Timestamp(ms);LG-Accel x(g);LG-Accel y(g);LG-Accel z(g);HG-Accel x(g);HG-Accel y(g);HG-Accel z(g);Gyro x(dps);Gyro y(dps);Gyro z(dps)
55;0.0;0.0;0.0;0.027327999472618103;0.5943840146064758;1.132159948348999;0.0;0.0;0.0
58;0.0;0.0;0.0;0.03903999924659729;0.5904799699783325;1.0716480016708374;0.0;0.0;0.0
60;0.0;0.0;0.0;0.03513599932193756;0.5826719999313354;1.051151990890503;0.0;0.0;0.0
62;0.0;0.0;0.0;0.054655998945236206;0.5592479705810547;1.0150399208068848;0.0;0.0;0.0
64;0.0;0.0;0.0;0.10540799796581268;0.5709599852561951;1.0062559843063354;0.0;0.0;0.0
66;0.0;0.0;0.0;0.13566400110721588;0.5533919930458069;0.9555040001869202;0.0;0.0;0.0
68;0.0;0.0;0.0;0.14737600088119507;0.5533919930458069;0.9711199998855591;0.0;0.0;0.0
70;0.0;0.0;0.0;0.1903200000524521;0.537775993347168;0.9106079936027527;0.0;0.0;0.0
72;0.03391600027680397;0.6702679991722107;0.8220359683036804;0.18251200020313263;0.5143519639968872;0.8862079977989197;0.0;0.0;0.0
74;0.0;0.0;0.0;0.22935999929904938;0.522159993648529;0.8413119912147522;0.0;0.0;0.0
77;0.0;0.0;0.0;0.2176479995250702;0.522159993648529;0.8012959957122803;0.0;0.0;0.0
79;0.0;0.0;0.0;0.2176479995250702;0.5065439939498901;0.7886079549789429;0.0;0.0;0.0
81;0.10516399890184402;0.6519680023193359;0.692471981048584;0.2449759989976883;0.537775993347168;0.748591959476471;0.0;0.0;0.0
83;0.0;0.0;0.0;0.24107199907302856;0.5250880122184753;0.7603039741516113;0.0;0.0;0.0
85;0.0;0.0;0.0;0.2566879987716675;0.5289919972419739;0.7398079633712769;0.0;0.0;0.0
87;0.0;0.0;0.0;0.27620798349380493;0.5485119819641113;0.7359039783477783;0.0;0.0;0.0
89;0.14225199818611145;0.6548959612846375;0.6226879954338074;0.29182398319244385;0.5485119819641113;0.7319999933242798;0.0;0.0;0.0
91;0.0;0.0;0.0;0.2996319830417633;0.5328959822654724;0.7359039783477783;0.0;0.0;0.0
94;0.0;0.0;0.0;0.2449759989976883;0.513375997543335;0.7524960041046143;0.0;0.0;0.0
96;0.0;0.0;0.0;0.21374399960041046;0.5094720125198364;0.7690879702568054;0.0;0.0;0.0
98;0.11419199407100677;0.6378160119056702;0.6317160129547119;0.20203199982643127;0.4782399833202362;0.8051999807357788;0.0;0.0;0.0
100;0.0;0.0;0.0;0.18641600012779236;0.48311999440193176;0.8500959873199463;0.0;0.0;0.0
102;0.0;0.0;0.0;0.1512800008058548;0.46750399470329285;0.8940159678459167;0.0;0.0;0.0
104;0.0;0.0;0.0;0.10150399804115295;0.447983980178833;0.9428159594535828;0.0;0.0;0.0
106;0.005367999896407127;0.5924319624900818;0.770796000957489;0.015615999698638916;0.4753119945526123;1.012112021446228;0.0;0.0;0.0
109;0.0;0.0;0.0;0.007807999849319458;0.40113598108291626;1.0482239723205566;0.0;0.0;0.0
111;0.0;0.0;0.0;-0.0936959981918335;0.3699039816856384;1.1380159854888916;0.0;0.0;0.0
113;0.0;0.0;0.0;-0.11321599781513214;0.35819199681282043;1.158511996269226;0.0;0.0;0.0
115;-0.19519999623298645;0.5094720125198364;0.9891759753227234;-0.16299200057983398;0.33476799726486206;1.2278079986572266;25.703125;53.56312561035156;73.13249969482422
117;0.0;0.0;0.0;-0.20983999967575073;0.29182398319244385;1.2639199495315552;0.0;0.0;0.0
119;0.0;0.0;0.0;-0.22935999929904938;0.24887999892234802;1.3127199411392212;0.0;0.0;0.0
121;0.0;0.0;0.0;-0.20983999967575073;0.20203199982643127;1.3449280261993408;0.0;0.0;0.0
123;-0.334524005651474;0.3816159963607788;1.1843760013580322;-0.2683999836444855;0.14737600088119507;1.3615199327468872;1.3431249856948853;61.26312255859375;69.49250030517578
126;0.0;0.0;0.0;-0.2996319830417633;0.10833600163459778;1.401535987854004;0.0;0.0;0.0
128;0.0;0.0;0.0;-0.3113439977169037;0.057583998888731;1.4064159393310547;0.0;0.0;0.0
130;0.0;0.0;0.0;-0.33476799726486206;-0.024399999529123306;1.4347199201583862;0.0;0.0;0.0
132;-0.4218759834766388;0.1844639927148819;1.274899959564209;-0.3152479827404022;-0.032207999378442764;1.4025119543075562;-21.896875381469727;45.303123474121094;65.01249694824219
134;0.0;0.0;0.0;-0.3152479827404022;-0.10638399422168732;1.4220319986343384;0.0;0.0;0.0
136;0.0;0.0;0.0;-0.3269599974155426;-0.18836799263954163;1.3449280261993408;0.0;0.0;0.0
138;0.0;0.0;0.0;-0.31915199756622314;-0.2508319914340973;1.3244320154190063;0.0;0.0;0.0
140;-0.4450559914112091;-0.05075199902057648;1.2334200143814087;-0.30743998289108276;-0.3484320044517517;1.3010079860687256;-38.41687774658203;9.323124885559082;64.45249938964844
143;0.0;0.0;0.0;-0.23716799914836884;-0.41870400309562683;1.3010079860687256;0.0;0.0;0.0
145;0.0;0.0;0.0;-0.205935999751091;-0.5280159711837769;1.2395199537277222;0.0;0.0;0.0
147;0.0;0.0;0.0;-0.17080000042915344;-0.6100000143051147;1.1946239471435547;0.0;0.0;0.0
149;-0.321835994720459;-0.39430397748947144;1.1128839254379272;-0.1210239976644516;-0.7349280118942261;1.158511996269226;-48.14687728881836;-28.896875381469727;65.43250274658203
151;0.0;0.0;0.0;-0.08588799834251404;-0.848143994808197;1.1058080196380615;0.0;0.0;0.0
153;0.0;0.0;0.0;-0.027327999472618103;-0.9418399930000305;1.044319987297058;0.0;0.0;0.0
155;0.0;0.0;0.0;-0.027327999472618103;-1.051151990890503;1.0082080364227295;0.0;0.0;0.0
157;-0.1647000014781952;-0.8134959936141968;0.9311040043830872;0.05075199902057648;-1.1292319297790527;0.9916160106658936;-54.586875915527344;-44.7868766784668;62.63249969482422
160;0.0;0.0;0.0;0.07807999849319458;-1.2190239429473877;0.9799039959907532;0.0;0.0;0.0
162;0.0;0.0;0.0;0.12785600125789642;-1.2814879417419434;0.9467200040817261;0.0;0.0;0.0
164;0.0;0.0;0.0;0.15518400073051453;-1.3634719848632812;0.9350079894065857;0.0;0.0;0.0
166;0.007319999858736992;-1.154852032661438;0.8420439958572388;0.205935999751091;-1.4025119543075562;0.9515999555587769;-57.946876525878906;-34.56687545776367;53.3224983215332
168;0.0;0.0;0.0;0.2176479995250702;-1.4454560279846191;0.9594079852104187;0.0;0.0;0.0
170;0.0;0.0;0.0;0.25278398394584656;-1.5079200267791748;0.9594079852104187;0.0;0.0;0.0
172;0.0;0.0;0.0;0.24107199907302856;-1.5938079357147217;0.9633119702339172;0.0;0.0;0.0
174;0.12029200047254562;-1.380795955657959;0.8444839715957642;0.22935999929904938;-1.664080023765564;0.9877119660377502;-59.90687561035156;-6.006875038146973;37.08250045776367
177;0.0;0.0;0.0;0.20203199982643127;-1.679695963859558;1.012112021446228;0.0;0.0;0.0
179;0.0;0.0;0.0;0.19422399997711182;-1.761680006980896;1.0570080280303955;0.0;0.0;0.0
181;0.0;0.0;0.0;0.1512800008058548;-1.7733919620513916;1.0687199831008911;0.0;0.0;0.0
183;0.060999996960163116;-1.6143039464950562;0.9293959736824036;0.1395680010318756;-1.8358559608459473;1.1058080196380615;-58.856876373291016;22.763126373291016;18.60249900817871
185;0.0;0.0;0.0;0.1239520013332367;-1.8748959302902222;1.122399926185608;0.0;0.0;0.0
187;0.0;0.0;0.0;0.08588799834251404;-1.9061279296875;1.1663199663162231;0.0;0.0;0.0
189;0.0;0.0;0.0;0.07417599856853485;-1.9061279296875;1.1790080070495605;0.0;0.0;0.0
191;-0.024887999519705772;-1.7467960119247437;1.0379760265350342;0.062463998794555664;-1.9295519590377808;1.182911992073059;-52.206878662109375;37.393123626708984;0.26249998807907104
194;0.0;0.0;0.0;0.019519999623298645;-1.9334559440612793;1.207311987876892;0.0;0.0;0.0
196;0.0;0.0;0.0;0.011711999773979187;-1.9022239446640015;1.2278079986572266;0.0;0.0;0.0
198;0.0;0.0;0.0;0.0;-1.9178400039672852;1.2278079986572266;0.0;0.0;0.0
200;-0.11297199875116348;-1.7821760177612305;1.0909240245819092;-0.003903999924659729;-1.9139360189437866;1.2434239387512207;-35.6868782043457;29.973125457763672;-14.507500648498535
202;0.0;0.0;0.0;-0.015615999698638916;-1.859279990196228;1.2756320238113403;0.0;0.0;0.0
204;0.0;0.0;0.0;-0.03513599932193756;-1.8436639308929443;1.2522079944610596;0.0;0.0;0.0
206;0.0;0.0;0.0;-0.03513599932193756;-1.7929120063781738;1.2356159687042236;0.0;0.0;0.0
208;-0.14908400177955627;-1.6870160102844238;1.1162999868392944;-0.003903999924659729;-1.769487977027893;1.231711983680725;-13.9868745803833;8.623125076293945;-26.127500534057617
211;0.0;0.0;0.0;0.007807999849319458;-1.7382559776306152;1.207311987876892;0.0;0.0;0.0
213;0.0;0.0;0.0;0.03513599932193756;-1.7070239782333374;1.150704026222229;0.0;0.0;0.0
215;0.0;0.0;0.0;0.07027199864387512;-1.6484639644622803;1.10971200466156;0.0;0.0;0.0
217;-0.09003599733114243;-1.5572079420089722;1.0255320072174072;0.0849120020866394;-1.628943920135498;1.0491999387741089;5.893125057220459;-14.476875305175781;-35.78750228881836
219;0.0;0.0;0.0;0.10052800178527832;-1.5508639812469482;1.0247999429702759;0.0;0.0;0.0
221;0.0;0.0;0.0;0.11126399785280228;-1.4805920124053955;1.0003999471664429;0.0;0.0;0.0
223;0.0;0.0;0.0;0.1268799901008606;-1.4376479387283325;0.9877119660377502;0.0;0.0;0.0
225;0.0007319999858736992;-1.3483439683914185;0.8852319717407227;0.15811198949813843;-1.336143970489502;0.9555040001869202;26.61312484741211;-27.286874771118164;-42.57749938964844
228;0.0;0.0;0.0;0.19715198874473572;-1.297104001045227;0.9877119660377502;0.0;0.0;0.0
230;0.0;0.0;0.0;0.21667200326919556;-1.2307360172271729;0.9672159552574158;0.0;0.0;0.0
232;0.0;0.0;0.0;0.22448000311851501;-1.148751974105835;0.9515999555587769;0.0;0.0;0.0
234;0.07441999763250351;-1.0928759574890137;0.8403359651565552;0.16591998934745789;-1.1292319297790527;0.9633119702339172;38.723121643066406;-25.606874465942383;-48.52750015258789
236;0.0;0.0;0.0;0.17372798919677734;-1.0940959453582764;0.9555040001869202;0.0;0.0;0.0
238;0.0;0.0;0.0;0.13859200477600098;-1.0433440208435059;0.9955199956893921;0.0;0.0;0.0
240;0.0;0.0;0.0;0.11126399785280228;-1.0316319465637207;1.0648159980773926;0.0;0.0;0.0
242;0.022935999557375908;-0.9137799739837646;0.8827919960021973;0.07320000231266022;-0.9964959621429443;1.0814080238342285;37.53312301635742;-3.2768750190734863;-58.88750076293945
245;0.0;0.0;0.0;0.049775999039411545;-0.937936007976532;1.1302080154418945;0.0;0.0;0.0
247;0.0;0.0;0.0;0.006831999868154526;-0.8871839642524719;1.1712000370025635;0.0;0.0;0.0
249;0.0;0.0;0.0;-0.020495999604463577;-0.8403359651565552;1.207311987876892;0.0;0.0;0.0
251;-0.1105320006608963;-0.7588399648666382;1.0418800115585327;-0.08295999467372894;-0.7973920106887817;1.2356159687042236;22.973125457763672;27.803125381469727;-75.61750030517578
253;0.0;0.0;0.0;-0.09857599437236786;-0.6880800127983093;1.3010079860687256;0.0;0.0;0.0
255;0.0;0.0;0.0;-0.16396799683570862;-0.43432000279426575;1.4064159393310547;0.0;0.0;0.0
257;0.0;0.0;0.0;-0.1756799966096878;-0.6412320137023926;1.2961280345916748;0.0;0.0;0.0
259;-0.2520520091056824;-0.5116679668426514;1.1733959913253784;-0.12590399384498596;-0.8559519648551941;1.2190239429473877;0.7131250500679016;40.75312423706055;-91.92749786376953
262;0.0;0.0;0.0;-0.187391996383667;-0.5553439855575562;1.4142240285873413;0.0;0.0;0.0
264;0.0;0.0;0.0;-0.13663999736309052;-0.4304159879684448;1.4425280094146729;0.0;0.0;0.0
266;0.0;0.0;0.0;-0.284991979598999;-0.399183988571167;1.3937280178070068;0.0;0.0;0.0
268;-0.32915598154067993;-0.37624800205230713;1.2409839630126953;-0.27327999472618103;-0.5319200158119202;1.2922239303588867;-13.076874732971191;23.3231258392334;-101.23750305175781
270;0.0;0.0;0.0;-0.16299200057983398;-0.4655520021915436;1.2844159603118896;0.0;0.0;0.0
272;0.0;0.0;0.0;-0.12492799758911133;-0.34062400460243225;1.3166239261627197;0.0;0.0;0.0
274;0.0;0.0;0.0;-0.13663999736309052;-0.32500800490379333;1.2961280345916748;0.0;0.0;0.0
276;-0.2898719906806946;-0.24058400094509125;1.1675399541854858;-0.1668960005044937;-0.29767999053001404;1.2639199495315552;-24.13687515258789;-10.69687557220459;-108.72750091552734
279;0.0;0.0;0.0;-0.17470400035381317;-0.2937760055065155;1.223904013633728;0.0;0.0;0.0
281;0.0;0.0;0.0;-0.1512800008058548;-0.22740799188613892;1.1868159770965576;0.0;0.0;0.0
283;0.0;0.0;0.0;-0.11321599781513214;-0.16103999316692352;1.1663199663162231;0.0;0.0;0.0
285;-0.2752319872379303;-0.09027999639511108;1.0604239702224731;-0.08979199826717377;-0.13371199369430542;1.1136159896850586;-31.766874313354492;-32.676876068115234;-113.34750366210938
287;0.0;0.0;0.0;-0.08979199826717377;-0.10638399422168732;1.0687199831008911;0.0;0.0;0.0
289;0.0;0.0;0.0;-0.0663679987192154;-0.07515199482440948;1.0160160064697266;0.0;0.0;0.0
291;0.0;0.0;0.0;-0.031231999397277832;-0.04391999915242195;0.9555040001869202;0.0;0.0;0.0
293;-0.17836399376392365;0.07173600047826767;0.8981639742851257;0.019519999623298645;-0.01659199967980385;0.9389119744300842;-37.15687561035156;-39.5368766784668;-115.5875015258789
296;0.0;0.0;0.0;0.04294399917125702;-0.00878399983048439;0.9106079936027527;0.0;0.0;0.0
298;0.0;0.0;0.0;0.08979199826717377;0.014639999717473984;0.8988959789276123;0.0;0.0;0.0
300;0.0;0.0;0.0;0.10833600163459778;0.03415999934077263;0.8705919981002808;0.0;0.0;0.0
302;-0.043431997299194336;0.1668960005044937;0.7773839831352234;0.13176000118255615;0.09272000193595886;0.8783999681472778;-36.0368766784668;-31.13687515258789;-114.32749938964844
304;0.0;0.0;0.0;0.13859200477600098;0.13566400110721588;0.8823039531707764;0.0;0.0;0.0
306;0.0;0.0;0.0;0.1424959897994995;0.18641600012779236;0.8579039573669434;0.0;0.0;0.0
308;0.0;0.0;0.0;0.1815359890460968;0.20983999967575073;0.8579039573669434;0.0;0.0;0.0
310;0.03562399744987488;0.3169559836387634;0.7334640026092529;0.19715198874473572;0.27620798349380493;0.8413119912147522;-34.14687728881836;-11.746875762939453;-112.36750030517578
313;0.0;0.0;0.0;0.17372798919677734;0.30743998289108276;0.8374080061912537;0.0;0.0;0.0
315;0.0;0.0;0.0;0.19715198874473572;0.3933279812335968;0.8539999723434448;0.0;0.0;0.0
317;0.0;0.0;0.0;0.22838398814201355;0.4167519807815552;0.8705919981002808;0.0;0.0;0.0
319;0.07978799939155579;0.5116679668426514;0.7285839915275574;0.22838398814201355;0.4753119945526123;0.8657119870185852;-32.956878662109375;7.643125057220459;-110.26750183105469
321;0.0;0.0;0.0;0.18251200020313263;0.5533919930458069;0.8823039531707764;0.0;0.0;0.0
323;0.0;0.0;0.0;0.1668960005044937;0.6158559918403625;0.9067040085792542;0.0;0.0;0.0
326;0.0;0.0;0.0;0.18251200020313263;0.6588000059127808;0.9106079936027527;0.0;0.0;0.0
328;0.06173199787735939;0.7346839904785156;0.7756760120391846;0.1395680010318756;0.7173599600791931;0.9555040001869202;-35.546878814697266;26.053125381469727;-109.00749969482422
330;0.0;0.0;0.0;0.11614400148391724;0.7563999891281128;0.9389119744300842;0.0;0.0;0.0
332;0.0;0.0;0.0;-0.011711999773979187;0.8344799876213074;0.9428159594535828;0.0;0.0;0.0
334;0.0;0.0;0.0;0.20983999967575073;1.0570080280303955;1.0160160064697266;0.0;0.0;0.0
336;-0.01878799870610237;1.0299240350723267;0.843019962310791;0.08588799834251404;1.1428959369659424;1.019919991493225;-44.7868766784668;48.663124084472656;-111.59750366210938
338;0.0;0.0;0.0;0.022447999566793442;1.1116639375686646;0.9515999555587769;0.0;0.0;0.0
340;0.0;0.0;0.0;0.11224000155925751;1.146799921989441;0.9594079852104187;0.0;0.0;0.0
342;0.0;0.0;0.0;0.14640000462532043;1.295151948928833;0.9877119660377502;0.0;0.0;0.0
345;-0.00878399983048439;1.343951940536499;0.8615639805793762;0.15030398964881897;1.4513119459152222;1.0003999471664429;-65.78688049316406;72.6031265258789;-119.36750030517578
347;0.0;0.0;0.0;0.15030398964881897;1.5684319734573364;0.9916160106658936;0.0;0.0;0.0
349;0.0;0.0;0.0;0.19324800372123718;1.6543200016021729;0.9515999555587769;0.0;0.0;0.0
351;0.0;0.0;0.0;0.13859200477600098;1.6933599710464478;0.8783999681472778;0.0;0.0;0.0
353;0.04513999819755554;1.7482600212097168;0.8161799907684326;0.1424959897994995;1.7363039255142212;0.8452159762382507;-88.74687957763672;101.16312408447266;-126.7874984741211
355;0.0;0.0;0.0;0.14347200095653534;1.7323999404907227;0.8335039615631104;0.0;0.0;0.0
357;0.0;0.0;0.0;0.12004800140857697;1.7558239698410034;0.8461920022964478;0.0;0.0;0.0
359;0.0;0.0;0.0;0.058559998869895935;1.7441120147705078;0.8657119870185852;0.0;0.0;0.0
362;-0.009759999811649323;1.8673319816589355;0.7271199822425842;0.03903999924659729;1.7245919704437256;0.8783999681472778;-100.78688049316406;124.89312744140625;-121.25749969482422
364;0.0;0.0;0.0;-0.04294399917125702;1.6894559860229492;0.8783999681472778;0.0;0.0;0.0
366;0.0;0.0;0.0;-0.1512800008058548;1.6387039422988892;0.9067040085792542;0.0;0.0;0.0
368;0.0;0.0;0.0;-0.23716799914836884;1.6347999572753906;0.9711199998855591;0.0;0.0;0.0
370;-0.2715719938278198;1.7782719135284424;0.7959280014038086;-0.29182398319244385;1.572335958480835;1.044319987297058;-94.13687896728516;130.2831268310547;-78.90750122070312
372;0.0;0.0;0.0;-0.39235198497772217;1.5371999740600586;1.10971200466156;0.0;0.0;0.0
374;0.0;0.0;0.0;-0.5016639828681946;1.4942560195922852;1.1712000370025635;0.0;0.0;0.0
376;0.0;0.0;0.0;-0.513375997543335;1.4474079608917236;1.2356159687042236;0.0;0.0;0.0
379;-0.5765720009803772;1.627236008644104;1.030900001525879;-0.4899519979953766;1.4161759614944458;1.2805119752883911;-75.51687622070312;104.453125;-14.157500267028809
381;0.0;0.0;0.0;-0.49775999784469604;1.3185759782791138;1.3781119585037231;0.0;0.0;0.0
383;0.0;0.0;0.0;-0.536799967288971;1.1780319213867188;1.4425280094146729;0.0;0.0;0.0
385;0.0;0.0;0.0;-0.5992639660835266;1.1116639375686646;1.4913280010223389;0.0;0.0;0.0
387;-0.6812480092048645;1.320039987564087;1.2890520095825195;-0.6958879828453064;0.9437919855117798;1.499135971069336;-59.206878662109375;67.28312683105469;26.582500457763672
389;0.0;0.0;0.0;-0.7388319969177246;0.8696159720420837;1.523535966873169;0.0;0.0;0.0
391;0.0;0.0;0.0;-0.6724640130996704;0.7603039741516113;1.5157279968261719;0.0;0.0;0.0
393;0.0;0.0;0.0;-0.5953599810600281;0.725167989730835;1.5079200267791748;0.0;0.0;0.0
396;-0.7798239588737488;0.9191479682922363;1.3695719242095947;-0.5250880122184753;0.6431840062141418;1.4786399602890015;-41.84687805175781;10.513124465942383;47.58250045776367
398;0.0;0.0;0.0;-0.43139198422431946;0.6041439771652222;1.4220319986343384;0.0;0.0;0.0
400;0.0;0.0;0.0;-0.36209598183631897;0.5885279774665833;1.3332159519195557;0.0;0.0;0.0
402;0.0;0.0;0.0;-0.2449759989976883;0.5651040077209473;1.1907199621200562;0.0;0.0;0.0
404;-0.472383975982666;0.7229719758033752;1.1714439392089844;-0.13663999736309052;0.5690079927444458;1.0726239681243896;-14.196874618530273;-80.06687927246094;65.22250366210938
406;0.0;0.0;0.0;-0.07027199864387512;0.5846239924430847;0.9311040043830872;0.0;0.0;0.0
408;0.0;0.0;0.0;0.031231999397277832;0.5729119777679443;0.8012959957122803;0.0;0.0;0.0
410;0.0;0.0;0.0;0.12785600125789642;0.5182560086250305;0.6344000101089478;0.0;0.0;0.0
413;-0.09345199912786484;0.6749039888381958;0.6797839999198914;0.1903200000524521;0.48311999440193176;0.5943840146064758;27.943124771118164;-156.43687438964844;87.97250366210938
415;0.0;0.0;0.0;0.25278398394584656;0.49483197927474976;0.5172799825668335;0.0;0.0;0.0
417;0.0;0.0;0.0;0.3113439977169037;0.5104479789733887;0.4567679762840271;0.0;0.0;0.0
419;0.0;0.0;0.0;0.3845439851284027;0.561199963092804;0.40406399965286255;0.0;0.0;0.0
421;0.1890999972820282;0.6710000038146973;0.3613640069961548;0.4352959990501404;0.6431840062141418;0.3669759929180145;70.99312591552734;-176.45687866210938;108.0625
423;0.0;0.0;0.0;0.45871999859809875;0.7017439603805542;0.3386719822883606;0.0;0.0;0.0
425;0.0;0.0;0.0;0.5016639828681946;0.7563999891281128;0.31036800146102905;0.0;0.0;0.0
427;0.0;0.0;0.0;0.5836479663848877;0.7759199738502502;0.29767999053001404;0.0;0.0;0.0
430;0.4013800024986267;0.8722999691963196;0.21398799121379852;0.6490399837493896;0.7954399585723877;0.3425759971141815;89.40312194824219;-127.38687896728516;116.53250122070312
432;0.0;0.0;0.0;0.6880800127983093;0.7524960041046143;0.33476799726486206;0.0;0.0;0.0
434;0.0;0.0;0.0;0.6958879828453064;0.6744160056114197;0.32207998633384705;0.0;0.0;0.0
436;0.0;0.0;0.0;0.6529439687728882;0.6431840062141418;0.34647998213768005;0.0;0.0;0.0
438;0.549731969833374;0.827892005443573;0.2378999888896942;0.6646559834480286;0.6314719915390015;0.3835679888725281;81.14311981201172;-29.666873931884766;114.0824966430664
440;0.0;0.0;0.0;0.6090239882469177;0.6705119609832764;0.436271995306015;0.0;0.0;0.0
442;0.0;0.0;0.0;0.563152015209198;0.6588000059127808;0.48897600173950195;0.0;0.0;0.0
444;0.0;0.0;0.0;0.5006880164146423;0.6783199906349182;0.5250880122184753;0.0;0.0;0.0
447;0.42797598242759705;0.7961719632148743;0.3816159963607788;0.4304159879684448;0.6666079759597778;0.6021919846534729;57.553123474121094;74.98312377929688;104.77249908447266
449;0.0;0.0;0.0;0.41870400309562683;0.6666079759597778;0.6627039909362793;0.0;0.0;0.0
451;0.0;0.0;0.0;0.3455039858818054;0.7056480050086975;0.7163839936256409;0.0;0.0;0.0
453;0.0;0.0;0.0;0.2635200023651123;0.6939359903335571;0.7681120038032532;0.0;0.0;0.0
455;0.2071560025215149;0.8261839747428894;0.5953599810600281;0.1815359890460968;0.6900320053100586;0.8461920022964478;27.733125686645508;137.35311889648438;91.89250183105469
457;0.0;0.0;0.0;0.07320000231266022;0.6900320053100586;0.9232959747314453;0.0;0.0;0.0
459;0.0;0.0;0.0;0.0029279999434947968;0.709551990032196;0.9838079810142517;0.0;0.0;0.0
461;0.0;0.0;0.0;-0.09467199444770813;0.6627039909362793;1.0775039196014404;0.0;0.0;0.0
464;-0.11980399489402771;0.8073959946632385;0.8762039542198181;-0.16396799683570862;0.6509919762611389;1.1663199663162231;-7.406875133514404;157.30313110351562;79.64250183105469
466;0.0;0.0;0.0;-0.230335995554924;0.5924319624900818;1.2190239429473877;0.0;0.0;0.0
468;0.0;0.0;0.0;-0.2654719948768616;0.5533919930458069;1.2922239303588867;0.0;0.0;0.0
470;0.0;0.0;0.0;-0.29280000925064087;0.5807200074195862;1.3254079818725586;0.0;0.0;0.0
472;-0.3835679888725281;0.7107719779014587;1.1365519762039185;-0.35916799306869507;0.5807200074195862;1.3088159561157227;-52.97687530517578;178.0231170654297;65.22250366210938
474;0.0;0.0;0.0;-0.37380799651145935;0.5846239924430847;1.3205280303955078;0.0;0.0;0.0
476;0.0;0.0;0.0;-0.4470079839229584;0.5651040077209473;1.3488320112228394;0.0;0.0;0.0
478;0.0;0.0;0.0;-0.47043198347091675;0.47921597957611084;1.3166239261627197;0.0;0.0;0.0
481;-0.5558319687843323;0.6592879891395569;1.2024319171905518;-0.49775999784469604;0.41284799575805664;1.3654239177703857;-86.71688079833984;184.88311767578125;59.48249816894531
483;0.0;0.0;0.0;-0.5328959822654724;0.350383996963501;1.3976320028305054;0.0;0.0;0.0
485;0.0;0.0;0.0;-0.5602239966392517;0.2176479995250702;1.45033597946167;0.0;0.0;0.0
487;0.0;0.0;0.0;-0.5602239966392517;0.12004800140857697;1.531343936920166;0.0;0.0;0.0
489;-0.6658759713172913;0.3711239993572235;1.3190640211105347;-0.5641279816627502;0.057583998888731;1.5762399435043335;-93.85688018798828;153.73312377929688;69.77249908447266
491;0.0;0.0;0.0;-0.6334239840507507;-0.028303999453783035;1.596735954284668;0.0;0.0;0.0
493;0.0;0.0;0.0;-0.6958879828453064;-0.14932799339294434;1.645535945892334;0.0;0.0;0.0
495;0.0;0.0;0.0;-0.6958879828453064;-0.3484320044517517;1.5401279926300049;0.0;0.0;0.0
498;-0.8130080103874207;-0.00317199993878603;1.4835200309753418;-0.8286240100860596;-0.1571359932422638;1.7177599668502808;-94.83687591552734;112.64312744140625;74.74250030517578
500;0.0;0.0;0.0;-0.750544011592865;-0.4577440023422241;1.6416319608688354;0.0;0.0;0.0
502;0.0;0.0;0.0;-0.7036960124969482;-0.39528000354766846;1.677743911743164;0.0;0.0;0.0
504;0.0;0.0;0.0;-0.6226879954338074;-0.4382239878177643;1.604543924331665;0.0;0.0;0.0
506;-0.8183760046958923;-0.2989000082015991;1.4864479303359985;-0.5836479663848877;-0.6646559834480286;1.4669280052185059;-91.68687438964844;42.29312515258789;74.4625015258789
508;0.0;0.0;0.0;-0.49775999784469604;-0.7193120121955872;1.3898239135742188;0.0;0.0;0.0
510;0.0;0.0;0.0;-0.4665279984474182;-0.8091039657592773;1.3293119668960571;0.0;0.0;0.0
513;0.0;0.0;0.0;-0.43139198422431946;-0.9418399930000305;1.2766079902648926;0.0;0.0;0.0
515;-0.6019479632377625;-0.6914960145950317;1.2102400064468384;-0.3962559998035431;-1.0003999471664429;1.256111979484558;-74.88687896728516;-31.83687400817871;76.42250061035156
517;0.0;0.0;0.0;-0.423583984375;-1.0433440208435059;1.2600159645080566;0.0;0.0;0.0
519;0.0;0.0;0.0;-0.39235198497772217;-0.9886879920959473;1.2717279195785522;0.0;0.0;0.0
521;0.0;0.0;0.0;-0.35819199681282043;-0.9691680073738098;1.1907199621200562;0.0;0.0;0.0
523;-0.5109359622001648;-0.8588799834251404;1.1004400253295898;-0.30743998289108276;-0.961359977722168;1.1175199747085571;-51.296878814697266;-73.20687866210938;70.68250274658203
525;0.0;0.0;0.0;-0.2332639992237091;-0.9496479630470276;1.085312008857727;0.0;0.0;0.0
527;0.0;0.0;0.0;-0.15908800065517426;-0.961359977722168;0.9916160106658936;0.0;0.0;0.0
530;0.0;0.0;0.0;-0.10150399804115295;-0.9925919771194458;0.9594079852104187;0.0;0.0;0.0
532;-0.27596399188041687;-0.8261839747428894;0.9015799760818481;0.027327999472618103;-0.9184159636497498;0.9759999513626099;-42.616878509521484;-74.88687896728516;60.3224983215332
534;0.0;0.0;0.0;0.019519999623298645;-0.8520479798316956;0.9467200040817261;0.0;0.0;0.0
536;0.0;0.0;0.0;0.027327999472618103;-0.9027999639511108;0.9515999555587769;0.0;0.0;0.0
538;0.0;0.0;0.0;0.05075199902057648;-0.8286240100860596;0.9389119744300842;0.0;0.0;0.0
540;-0.11077599972486496;-0.7278519868850708;0.8259400129318237;0.011711999773979187;-0.8364319801330566;0.9184159636497498;-29.6668758392334;-40.16687774658203;55.352500915527344
542;0.0;0.0;0.0;0.007807999849319458;-0.8637599945068359;0.9672159552574158;0.0;0.0;0.0
544;0.0;0.0;0.0;-0.011711999773979187;-0.9067040085792542;0.9955199956893921;0.0;0.0;0.0
547;0.0;0.0;0.0;-0.031231999397277832;-0.9769759774208069;1.060912013053894;0.0;0.0;0.0
549;-0.13981199264526367;-0.7837280035018921;0.8984079957008362;-0.10150399804115295;-0.9808799624443054;1.150704026222229;-18.396875381469727;11.913125038146973;55.49250030517578
551;0.0;0.0;0.0;-0.15908800065517426;-1.0160160064697266;1.207311987876892;0.0;0.0;0.0
553;0.0;0.0;0.0;-0.2332639992237091;-1.0082080364227295;1.3293119668960571;0.0;0.0;0.0
555;0.0;0.0;0.0;-0.30743998289108276;-0.9886879920959473;1.4064159393310547;0.0;0.0;0.0
557;-0.3596560060977936;-0.851315975189209;1.1963319778442383;-0.39235198497772217;-0.9106079936027527;1.506943941116333;-8.666874885559082;74.14312744140625;47.72249984741211
559;0.0;0.0;0.0;-0.4470079839229584;-0.848143994808197;1.6250399351119995;0.0;0.0;0.0
561;0.0;0.0;0.0;-0.45481598377227783;-0.8949919939041138;1.6494399309158325;0.0;0.0;0.0
564;0.0;0.0;0.0;-0.536799967288971;-0.8949919939041138;1.702143907546997;0.0;0.0;0.0
566;-0.606827974319458;-0.7459079623222351;1.5071879625320435;-0.5719360113143921;-0.9301279783248901;1.718735933303833;-0.2668749988079071;85.76312255859375;43.592498779296875
568;0.0;0.0;0.0;-0.6529439687728882;-0.9184159636497498;1.7714399099349976;0.0;0.0;0.0
570;0.0;0.0;0.0;-0.6997919678688049;-0.8871839642524719;1.8280479907989502;0.0;0.0;0.0
572;0.0;0.0;0.0;-0.7388319969177246;-0.8871839642524719;1.8680639266967773;0.0;0.0;0.0
574;-0.8086159825325012;-0.7673799991607666;1.6794519424438477;-0.7778719663619995;-0.8598560094833374;1.9373599290847778;19.123125076293945;35.29312515258789;51.99250030517578
576;0.0;0.0;0.0;-0.8061760067939758;-0.8442400097846985;1.9451680183410645;0.0;0.0;0.0
578;0.0;0.0;0.0;-0.8217920064926147;-0.8130080103874207;1.9529759883880615;0.0;0.0;0.0
581;0.0;0.0;0.0;-0.8061760067939758;-0.8286240100860596;1.9656639099121094;0.0;0.0;0.0
583;-0.9201239943504333;-0.6880800127983093;1.814871907234192;-0.7554239630699158;-0.8286240100860596;1.9656639099121094;29.203125;-21.266874313354492;53.95249938964844
585;0.0;0.0;0.0;-0.7398079633712769;-0.8208159804344177;1.9129599332809448;0.0;0.0;0.0
587;0.0;0.0;0.0;-0.7280960083007812;-0.8247199654579163;1.8563519716262817;0.0;0.0;0.0
589;0.0;0.0;0.0;-0.6734399795532227;-0.8520479798316956;1.7792479991912842;0.0;0.0;0.0
591;-0.8483879566192627;-0.7093079686164856;1.719223976135254;-0.6656320095062256;-0.8676639795303345;1.7382559776306152;26.8231258392334;-66.76687622070312;49.61249923706055
593;0.0;0.0;0.0;-0.6353759765625;-0.9145119786262512;1.6982399225234985;0.0;0.0;0.0
596;0.0;0.0;0.0;-0.5651040077209473;-0.9223200082778931;1.6416319608688354;0.0;0.0;0.0
598;0.0;0.0;0.0;-0.522159993648529;-0.9145119786262512;1.6006399393081665;0.0;0.0;0.0
600;-0.7039399743080139;-0.7720159888267517;1.5149959325790405;-0.5104479789733887;-0.9418399930000305;1.572335958480835;27.873125076293945;-97.35688018798828;44.36249923706055
602;0.0;0.0;0.0;-0.4635999798774719;-0.9535520076751709;1.531343936920166;0.0;0.0;0.0
604;0.0;0.0;0.0;-0.4596959948539734;-1.0082080364227295;1.4913280010223389;0.0;0.0;0.0
606;0.0;0.0;0.0;-0.45579198002815247;-1.0316319465637207;1.4464319944381714;0.0;0.0;0.0
608;-0.5929200053215027;-0.8664439916610718;1.3534679412841797;-0.45579198002815247;-1.0745760202407837;1.4308159351348877;29.623125076293945;-105.75687408447266;37.15250015258789
610;0.0;0.0;0.0;-0.4089439809322357;-1.0823839902877808;1.4220319986343384;0.0;0.0;0.0
612;0.0;0.0;0.0;-0.41284799575805664;-1.0940959453582764;1.3820159435272217;0.0;0.0;0.0
615;0.0;0.0;0.0;-0.3903999924659729;-1.1604639291763306;1.3615199327468872;0.0;0.0;0.0
617;-0.533627986907959;-0.9821000099182129;1.2580640316009521;-0.39430397748947144;-1.1721760034561157;1.3205280303955078;27.803125381469727;-103.30687713623047;26.932498931884766
619;0.0;0.0;0.0;-0.37088000774383545;-1.207311987876892;1.2883199453353882;0.0;0.0;0.0
621;0.0;0.0;0.0;-0.3357439935207367;-1.2502559423446655;1.2600159645080566;0.0;0.0;0.0
623;0.0;0.0;0.0;-0.2654719948768616;-1.3010079860687256;1.2190239429473877;0.0;0.0;0.0
625;-0.44188398122787476;-1.1206920146942139;1.1297199726104736;-0.22252799570560455;-1.343951940536499;1.207311987876892;21.083126068115234;-108.34687805175781;15.032499313354492
627;0.0;0.0;0.0;-0.21862399578094482;-1.4103199243545532;1.2034080028533936;0.0;0.0;0.0
629;0.0;0.0;0.0;-0.21081599593162537;-1.4571679830551147;1.1712000370025635;0.0;0.0;0.0
632;0.0;0.0;0.0;-0.22252799570560455;-1.4923039674758911;1.1663199663162231;0.0;0.0;0.0
634;-0.34013599157333374;-1.3051559925079346;1.0460280179977417;-0.19910399615764618;-1.5196319818496704;1.1419199705123901;10.723125457763672;-107.71687316894531;-2.74750018119812
636;0.0;0.0;0.0;-0.17177599668502808;-1.5157279968261719;1.1302080154418945;0.0;0.0;0.0
638;0.0;0.0;0.0;-0.1180959939956665;-1.5001119375228882;1.0648159980773926;0.0;0.0;0.0
640;0.0;0.0;0.0;-0.07515199482440948;-1.4962079524993896;1.0082080364227295;0.0;0.0;0.0
642;-0.23594799637794495;-1.36273992061615;0.9359839558601379;-0.0009759999811649323;-1.5040159225463867;0.9389119744300842;-6.846875190734863;-100.08687591552734;-24.447500228881836
644;0.0;0.0;0.0;0.023423999547958374;-1.4649759531021118;0.8696159720420837;0.0;0.0;0.0
646;0.0;0.0;0.0;0.07807999849319458;-1.433743953704834;0.8422879576683044;0.0;0.0;0.0
649;0.0;0.0;0.0;0.10540799796581268;-1.3517600297927856;0.7524960041046143;0.0;0.0;0.0
651;-0.045871999114751816;-1.2766079902648926;0.69759601354599;0.17080000042915344;-1.336143970489502;0.7115039825439453;-14.546875;-101.55687713623047;-38.9375
653;0.0;0.0;0.0;0.23716799914836884;-1.2932000160217285;0.6714879870414734;0.0;0.0;0.0
655;0.0;0.0;0.0;0.22545599937438965;-1.2502559423446655;0.6392799615859985;0.0;0.0;0.0
657;0.0;0.0;0.0;0.2683999836444855;-1.2034080028533936;0.5738880038261414;0.0;0.0;0.0
659;0.1076039969921112;-1.112396001815796;0.5055679678916931;0.27620798349380493;-1.1877919435501099;0.5533919930458069;-9.296875;-108.62687683105469;-43.977500915527344
662;0.0;0.0;0.0;0.31915199756622314;-1.156559944152832;0.5094720125198364;0.0;0.0;0.0
663;0.0;0.0;0.0;0.30353599786758423;-1.10971200466156;0.44017598032951355;0.0;0.0;0.0
666;0.0;0.0;0.0;0.33476799726486206;-1.10971200466156;0.436271995306015;0.0;0.0;0.0
668;0.1937360018491745;-0.9960079789161682;0.354775995016098;0.3416000008583069;-1.1175199747085571;0.4079679846763611;-2.4368748664855957;-103.16687774658203;-47.057498931884766
670;0.0;0.0;0.0;0.36111998558044434;-1.10971200466156;0.37088000774383545;0.0;0.0;0.0
672;0.0;0.0;0.0;0.38844799995422363;-1.0706720352172852;0.35526400804519653;0.0;0.0;0.0
674;0.0;0.0;0.0;0.423583984375;-1.0433440208435059;0.33476799726486206;0.0;0.0;0.0
676;0.27132800221443176;-0.9430599808692932;0.24229200184345245;0.45481598377227783;-1.0394400358200073;0.28596800565719604;4.703125;-76.4268798828125;-52.307498931884766
678;0.0;0.0;0.0;0.43139198422431946;-0.9847840070724487;0.2937760055065155;0.0;0.0;0.0
680;0.0;0.0;0.0;0.4470079839229584;-0.9067040085792542;0.26156800985336304;0.0;0.0;0.0
683;0.0;0.0;0.0;0.41967999935150146;-0.8559519648551941;0.2576639950275421;0.0;0.0;0.0
685;0.3054879903793335;-0.7817760109901428;0.1617719978094101;0.41577598452568054;-0.8169119954109192;0.26156800985336304;17.373125076293945;-44.22687530517578;-56.36750030517578
687;0.0;0.0;0.0;0.411871999502182;-0.7700639963150024;0.2654719948768616;0.0;0.0;0.0
689;0.0;0.0;0.0;0.41967999935150146;-0.7154079675674438;0.2537599802017212;0.0;0.0;0.0
691;0.0;0.0;0.0;0.411871999502182;-0.6724640130996704;0.2781600058078766;0.0;0.0;0.0
693;0.2979239821434021;-0.5729119777679443;0.14737600088119507;0.43139198422431946;-0.6256160140037537;0.2898719906806946;32.84312438964844;-25.326873779296875;-56.717498779296875
696;0.0;0.0;0.0;0.3962559998035431;-0.6060959696769714;0.29865598678588867;0.0;0.0;0.0
698;0.0;0.0;0.0;0.3845439851284027;-0.5982879996299744;0.2693759799003601;0.0;0.0;0.0
700;0.0;0.0;0.0;0.3845439851284027;-0.586575984954834;0.3025600016117096;0.0;0.0;0.0
702;0.28133198618888855;-0.4596959948539734;0.17665599286556244;0.3689279854297638;-0.5475360155105591;0.32207998633384705;45.58312225341797;-8.736875534057617;-55.10750198364258
704;0.0;0.0;0.0;0.3152479827404022;-0.5123999714851379;0.37966400384902954;0.0;0.0;0.0
706;0.0;0.0;0.0;0.30353599786758423;-0.47336000204086304;0.4274879992008209;0.0;0.0;0.0
708;0.0;0.0;0.0;0.26449599862098694;-0.43432000279426575;0.447983980178833;0.0;0.0;0.0
710;0.1739719957113266;-0.3281799852848053;0.30158400535583496;0.22155199944972992;-0.34062400460243225;0.513375997543335;51.953125;21.993125915527344;-57.34749984741211
712;0.0;0.0;0.0;0.2088640034198761;-0.2937760055065155;0.545583963394165;0.0;0.0;0.0
714;0.0;0.0;0.0;0.17372798919677734;-0.2508319914340973;0.6060959696769714;0.0;0.0;0.0
717;0.0;0.0;0.0;0.15811198949813843;-0.1727519929409027;0.6470879912376404;0.0;0.0;0.0
719;0.06758800148963928;-0.11224000155925751;0.4777520000934601;0.1268799901008606;-0.16494399309158325;0.6919839978218079;49.43312454223633;57.97312545776367;-63.57749938964844
721;0.0;0.0;0.0;0.0849120020866394;-0.13761599361896515;0.7729920148849487;0.0;0.0;0.0
723;0.0;0.0;0.0;0.03415999934077263;-0.1298079937696457;0.8295999765396118;0.0;0.0;0.0
725;0.0;0.0;0.0;-0.032207999378442764;-0.10638399422168732;0.8783999681472778;0.0;0.0;0.0
727;-0.09637999534606934;0.028060000389814377;0.6905199885368347;-0.09467199444770813;-0.04391999915242195;0.9271999597549438;42.78312301635742;77.50312042236328;-68.6875
729;0.0;0.0;0.0;-0.10931199789047241;-0.0009759999811649323;1.0003999471664429;0.0;0.0;0.0
731;0.0;0.0;0.0;-0.0936959981918335;0.053679998964071274;1.0775039196014404;0.0;0.0;0.0
734;0.0;0.0;0.0;-0.11321599781513214;0.10443200170993805;1.10971200466156;0.0;0.0;0.0
736;-0.22935999929904938;0.19471199810504913;0.9162200093269348;-0.11711999773979187;0.1668960005044937;1.1175199747085571;28.36312484741211;84.57312774658203;-75.82749938964844
738;0.0;0.0;0.0;-0.1395680010318756;0.20203199982643127;1.122399926185608;0.0;0.0;0.0
740;0.0;0.0;0.0;-0.16299200057983398;0.1903200000524521;1.101904034614563;0.0;0.0;0.0
742;0.0;0.0;0.0;-0.17080000042915344;0.19422399997711182;1.1175199747085571;0.0;0.0;0.0
744;-0.27962398529052734;0.33257198333740234;0.994055986404419;-0.17470400035381317;0.205935999751091;1.1136159896850586;10.933125495910645;73.79312133789062;-77.57749938964844
747;0.0;0.0;0.0;-0.16396799683570862;0.2332639992237091;1.1175199747085571;0.0;0.0;0.0
749;0.0;0.0;0.0;-0.19519999623298645;0.24887999892234802;1.150704026222229;0.0;0.0;0.0
751;0.0;0.0;0.0;-0.17958399653434753;0.25278398394584656;1.122399926185608;0.0;0.0;0.0
753;-0.29597198963165283;0.38259199261665344;1.0035719871520996;-0.187391996383667;0.27620798349380493;1.146799921989441;4.283124923706055;45.51312255859375;-71.4175033569336
755;0.0;0.0;0.0;-0.13371199369430542;0.2566879987716675;1.146799921989441;0.0;0.0;0.0
757;0.0;0.0;0.0;-0.13761599361896515;0.25278398394584656;1.1712000370025635;0.0;0.0;0.0
759;0.0;0.0;0.0;-0.10247999429702759;0.22935999929904938;1.1907199621200562;0.0;0.0;0.0
761;-0.2549799978733063;0.37966400384902954;1.0389519929885864;-0.14054399728775024;0.22155199944972992;1.1907199621200562;-1.6668750047683716;22.27312660217285;-66.72750091552734
764;0.0;0.0;0.0;-0.0936959981918335;0.2176479995250702;1.1663199663162231;0.0;0.0;0.0
766;0.0;0.0;0.0;-0.08588799834251404;0.22545599937438965;1.182911992073059;0.0;0.0;0.0
768;0.0;0.0;0.0;-0.0936959981918335;0.20983999967575073;1.1663199663162231;0.0;0.0;0.0
770;-0.21252399682998657;0.358924001455307;1.0509079694747925;-0.003903999924659729;0.22935999929904938;1.1419199705123901;-12.586874961853027;16.18312644958496;-68.26750183105469
772;0.0;0.0;0.0;-0.003903999924659729;0.22935999929904938;1.146799921989441;0.0;0.0;0.0
774;0.0;0.0;0.0;0.023423999547958374;0.22155199944972992;1.126304030418396;0.0;0.0;0.0
776;0.0;0.0;0.0;0.015615999698638916;0.22545599937438965;1.097999930381775;0.0;0.0;0.0
778;-0.12443999946117401;0.35819199681282043;0.9930799603462219;0.019519999623298645;0.2332639992237091;1.1136159896850586;-18.88687515258789;13.943124771118164;-69.52750396728516
781;0.0;0.0;0.0;0.0302559994161129;0.30353599786758423;1.1058080196380615;0.0;0.0;0.0
783;0.0;0.0;0.0;0.0302559994161129;0.33086398243904114;1.1058080196380615;0.0;0.0;0.0
785;0.0;0.0;0.0;0.057583998888731;0.23716799914836884;1.0892159938812256;0.0;0.0;0.0
787;-0.08125200122594833;0.419435977935791;0.97843998670578;0.057583998888731;0.3152479827404022;1.1175199747085571;-18.536874771118164;16.393125534057617;-68.26750183105469
789;0.0;0.0;0.0;0.0849120020866394;0.33476799726486206;1.146799921989441;0.0;0.0;0.0
791;0.0;0.0;0.0;0.045871999114751816;0.4167519807815552;1.1419199705123901;0.0;0.0;0.0
793;0.0;0.0;0.0;0.049775999039411545;0.3659999966621399;1.0931199789047241;0.0;0.0;0.0
795;-0.07027199864387512;0.4997119903564453;1.0040600299835205;0.045871999114751816;0.3933279812335968;1.134112000465393;-15.176875114440918;27.873125076293945;-65.81749725341797
798;0.0;0.0;0.0;0.03806399926543236;0.4167519807815552;1.1546080112457275;0.0;0.0;0.0
800;0.0;0.0;0.0;0.07320000231266022;0.436271995306015;1.158511996269226;0.0;0.0;0.0
802;0.0;0.0;0.0;0.057583998888731;0.4987359941005707;1.1712000370025635;0.0;0.0;0.0
804;-0.07783599942922592;0.5831599831581116;1.0362679958343506;0.022447999566793442;0.5533919930458069;1.2200000286102295;-7.26687479019165;36.69312286376953;-59.86750030517578
806;0.0;0.0;0.0;-0.03611199930310249;0.5260639786720276;1.2151199579238892;0.0;0.0;0.0
808;0.0;0.0;0.0;-0.024399999529123306;0.5963360071182251;1.231711983680725;0.0;0.0;0.0
810;0.0;0.0;0.0;-0.028303999453783035;0.6236639618873596;1.2522079944610596;0.0;0.0;0.0
812;-0.14005599915981293;0.7217519879341125;1.1053199768066406;-0.05563199892640114;0.6588000059127808;1.272704005241394;3.1631250381469727;39.35312271118164;-48.807498931884766
815;0.0;0.0;0.0;-0.015615999698638916;0.6744160056114197;1.256111979484558;0.0;0.0;0.0
817;0.0;0.0;0.0;-0.015615999698638916;0.7563999891281128;1.2522079944610596;0.0;0.0;0.0
819;0.0;0.0;0.0;-0.027327999472618103;0.7759199738502502;1.2639199495315552;0.0;0.0;0.0
821;-0.14908400177955627;0.8547319769859314;1.1287440061569214;-0.0663679987192154;0.7759199738502502;1.2678239345550537;16.813125610351562;33.33312225341797;-32.4275016784668
823;0.0;0.0;0.0;-0.031231999397277832;0.8266719579696655;1.2922239303588867;0.0;0.0;0.0
825;0.0;0.0;0.0;-0.05075199902057648;0.8149600028991699;1.3205280303955078;0.0;0.0;0.0
827;0.0;0.0;0.0;-0.12492799758911133;0.822767972946167;1.3332159519195557;0.0;0.0;0.0
829;-0.19885998964309692;0.9450119733810425;1.1831560134887695;-0.13566400110721588;0.8500959873199463;1.3254079818725586;32.983123779296875;25.703125;-11.42750072479248
832;0.0;0.0;0.0;-0.1668960005044937;0.822767972946167;1.3732320070266724;0.0;0.0;0.0
834;0.0;0.0;0.0;-0.19422399997711182;0.8539999723434448;1.3859199285507202;0.0;0.0;0.0
836;0.0;0.0;0.0;-0.20203199982643127;0.8539999723434448;1.4308159351348877;0.0;0.0;0.0
838;-0.305976003408432;0.9686799645423889;1.264407992362976;-0.20203199982643127;0.8774240016937256;1.45033597946167;44.11312484741211;20.103126525878906;5.442500114440918
840;0.0;0.0;0.0;-0.2566879987716675;0.8735199570655823;1.4630240201950073;0.0;0.0;0.0
842;0.0;0.0;0.0;-0.24887999892234802;0.912559986114502;1.523535966873169;0.0;0.0;0.0
844;0.0;0.0;0.0;-0.24107199907302856;0.9398880004882812;1.547935962677002;0.0;0.0;0.0
846;-0.3669759929180145;1.0338280200958252;1.3822599649429321;-0.24107199907302856;0.9398880004882812;1.5518399477005005;44.883121490478516;16.3231258392334;14.892499923706055
848;0.0;0.0;0.0;-0.2840159833431244;0.9359839558601379;1.5440319776535034;0.0;0.0;0.0
851;0.0;0.0;0.0;-0.2840159833431244;0.9555040001869202;1.5323200225830078;0.0;0.0;0.0
853;0.0;0.0;0.0;-0.2723039984703064;0.9750239849090576;1.523535966873169;0.0;0.0;0.0
855;-0.40357598662376404;1.085312008857727;1.4105639457702637;-0.2879199981689453;0.9515999555587769;1.523535966873169;38.79312515258789;2.323124885559082;23.642499923706055
857;0.0;0.0;0.0;-0.2879199981689453;0.9359839558601379;1.5196319818496704;0.0;0.0;0.0
859;0.0;0.0;0.0;-0.26449599862098694;0.9398880004882812;1.499135971069336;0.0;0.0;0.0
861;0.0;0.0;0.0;-0.2566879987716675;0.9359839558601379;1.5157279968261719;0.0;0.0;0.0
863;-0.3891800045967102;1.0950720310211182;1.3800640106201172;-0.2566879987716675;0.9476959705352783;1.474735975265503;32.28312301635742;-20.846874237060547;33.162498474121094
866;0.0;0.0;0.0;-0.19910399615764618;0.9906399846076965;1.4552159309387207;0.0;0.0;0.0
868;0.0;0.0;0.0;-0.2030079960823059;0.9750239849090576;1.4308159351348877;0.0;0.0;0.0
870;0.0;0.0;0.0;-0.187391996383667;0.9711199998855591;1.401535987854004;0.0;0.0;0.0
872;-0.33671998977661133;1.1158119440078735;1.3085719347000122;-0.19129599630832672;0.9789279699325562;1.3781119585037231;23.393125534057617;-37.64687728881836;41.0724983215332
874;0.0;0.0;0.0;-0.18348799645900726;0.9789279699325562;1.3937280178070068;0.0;0.0;0.0
876;0.0;0.0;0.0;-0.14054399728775024;0.9633119702339172;1.3537119626998901;0.0;0.0;0.0
878;0.0;0.0;0.0;-0.187391996383667;0.9320799708366394;1.3488320112228394;0.0;0.0;0.0
880;-0.3047559857368469;1.1070280075073242;1.2226840257644653;-0.15615999698638916;0.9437919855117798;1.2961280345916748;12.053125381469727;-41.98687744140625;48.63249969482422
883;0.0;0.0;0.0;-0.14054399728775024;0.920367956161499;1.3088159561157227;0.0;0.0;0.0
885;0.0;0.0;0.0;-0.12492799758911133;0.9047519564628601;1.2678239345550537;0.0;0.0;0.0
887;0.0;0.0;0.0;-0.11321599781513214;0.8852319717407227;1.2395199537277222;0.0;0.0;0.0
889;-0.2483920007944107;1.0348039865493774;1.1343560218811035;-0.10931199789047241;0.8774240016937256;1.199504017829895;-0.05687499791383743;-38.27687454223633;55.912498474121094
891;0.0;0.0;0.0;-0.11321599781513214;0.8266719579696655;1.1624159812927246;0.0;0.0;0.0
893;0.0;0.0;0.0;-0.10150399804115295;0.7954399585723877;1.1546080112457275;0.0;0.0;0.0
895;0.0;0.0;0.0;-0.07417599856853485;0.7642079591751099;1.10971200466156;0.0;0.0;0.0
897;-0.20471599698066711;0.9274439811706543;1.0140639543533325;-0.0663679987192154;0.748591959476471;1.10971200466156;-5.656875133514404;-35.47687530517578;65.22250366210938
900;0.0;0.0;0.0;-0.04391999915242195;0.7173599600791931;1.0931199789047241;0.0;0.0;0.0
902;0.0;0.0;0.0;-0.07124799489974976;0.709551990032196;1.0814080238342285;0.0;0.0;0.0
904;0.0;0.0;0.0;-0.06734399497509003;0.6978399753570557;1.044319987297058;0.0;0.0;0.0
906;-0.18080399930477142;0.8339920043945312;0.9494040012359619;-0.032207999378442764;0.6666079759597778;1.0570080280303955;-4.886875152587891;-33.02687454223633;74.88249969482422
908;0.0;0.0;0.0;-0.03611199930310249;0.6470879912376404;1.044319987297058;0.0;0.0;0.0
910;0.0;0.0;0.0;-0.0634399950504303;0.611952006816864;1.0570080280303955;0.0;0.0;0.0
912;0.0;0.0;0.0;-0.05953599885106087;0.611952006816864;1.0775039196014404;0.0;0.0;0.0
914;-0.16713999211788177;0.7559120059013367;0.9257360100746155;-0.0634399950504303;0.5729119777679443;1.0287039279937744;-4.256875038146973;-25.11687469482422;82.93250274658203
917;0.0;0.0;0.0;-0.024399999529123306;0.5729119777679443;1.0570080280303955;0.0;0.0;0.0
919;0.0;0.0;0.0;-0.05172799900174141;0.5338720083236694;1.0687199831008911;0.0;0.0;0.0
921;0.0;0.0;0.0;-0.0634399950504303;0.5182560086250305;1.0482239723205566;0.0;0.0;0.0
923;-0.18055999279022217;0.6717320084571838;0.9220759868621826;-0.0634399950504303;0.48311999440193176;1.0648159980773926;-5.096874713897705;-16.08687400817871;90.42250061035156
925;0.0;0.0;0.0;-0.05563199892640114;0.48311999440193176;1.036512017250061;0.0;0.0;0.0
927;0.0;0.0;0.0;-0.11419199407100677;0.42455998063087463;1.0482239723205566;0.0;0.0;0.0
929;0.0;0.0;0.0;-0.10638399422168732;0.4089439809322357;1.0491999387741089;0.0;0.0;0.0
931;-0.20398399233818054;0.5692520141601562;0.925491988658905;-0.10247999429702759;0.37380799651145935;1.085312008857727;-4.396874904632568;-11.396875381469727;98.5425033569336
934;0.0;0.0;0.0;-0.1210239976644516;0.37380799651145935;1.101904034614563;0.0;0.0;0.0
936;0.0;0.0;0.0;-0.14054399728775024;0.3269599974155426;1.10971200466156;0.0;0.0;0.0
938;0.0;0.0;0.0;-0.15908800065517426;0.2879199981689453;1.134112000465393;0.0;0.0;0.0
940;-0.2776719927787781;0.46408799290657043;0.9864919781684875;-0.20983999967575073;0.2449759989976883;1.1624159812927246;-6.076874732971191;-8.1068754196167;104.07250213623047
942;0.0;0.0;0.0;-0.19422399997711182;0.24107199907302856;1.158511996269226;0.0;0.0;0.0
944;0.0;0.0;0.0;-0.2176479995250702;0.18641600012779236;1.146799921989441;0.0;0.0;0.0
946;0.0;0.0;0.0;-0.19422399997711182;0.1512800008058548;1.101904034614563;0.0;0.0;0.0
948;-0.31963998079299927;0.3172000050544739;1.009671926498413;-0.18641600012779236;0.11614400148391724;1.1302080154418945;-13.076874732971191;-10.20687484741211;105.19249725341797
951;0.0;0.0;0.0;-0.19910399615764618;0.049775999039411545;1.1175199747085571;0.0;0.0;0.0
953;0.0;0.0;0.0;-0.19129599630832672;0.03415999934077263;1.085312008857727;0.0;0.0;0.0
955;0.0;0.0;0.0;-0.18348799645900726;-0.004879999905824661;1.044319987297058;0.0;0.0;0.0
957;-0.31329599022865295;0.17080000042915344;0.9601399898529053;-0.17958399653434753;-0.04001599922776222;1.012112021446228;-18.6768741607666;-22.106874465942383;105.26249694824219
959;0.0;0.0;0.0;-0.16396799683570862;-0.1298079937696457;0.9955199956893921;0.0;0.0;0.0
961;0.0;0.0;0.0;-0.13371199369430542;-0.16884799301624298;0.9428159594535828;0.0;0.0;0.0
963;0.0;0.0;0.0;-0.08686399459838867;-0.2664479911327362;0.8949919939041138;0.0;0.0;0.0
965;-0.25156399607658386;-0.013907999731600285;0.8383839726448059;-0.04782399907708168;-0.05563199892640114;0.9759999513626099;-18.816875457763672;-37.926876068115234;106.17250061035156
968;0.0;0.0;0.0;-0.06734399497509003;-0.33671998977661133;0.8374080061912537;0.0;0.0;0.0
970;0.0;0.0;0.0;-0.05172799900174141;-0.24302399158477783;0.9184159636497498;0.0;0.0;0.0
972;0.0;0.0;0.0;-0.032207999378442764;-0.3172000050544739;0.8988959789276123;0.0;0.0;0.0
974;-0.1856839954853058;-0.14908400177955627;0.7620120048522949;-0.10247999429702759;-0.32500800490379333;0.8500959873199463;-16.436874389648438;-41.07687759399414;106.03250122070312
976;0.0;0.0;0.0;-0.04391999915242195;-0.4928799867630005;0.7651839852333069;0.0;0.0;0.0
978;0.0;0.0;0.0;-0.024399999529123306;-0.44993600249290466;0.8217920064926147;0.0;0.0;0.0
980;0.0;0.0;0.0;0.06539200246334076;-0.5280159711837769;0.8178879618644714;0.0;0.0;0.0
982;-0.12639199197292328;-0.33647599816322327;0.6824679970741272;-0.0009759999811649323;-0.5241119861602783;0.8178879618644714;-16.996875762939453;-27.356874465942383;102.32250213623047
985;0.0;0.0;0.0;0.018543999642133713;-0.5943840146064758;0.7973920106887817;0.0;0.0;0.0
987;0.0;0.0;0.0;0.04196799919009209;-0.6217119693756104;0.7886079549789429;0.0;0.0;0.0
989;0.0;0.0;0.0;0.049775999039411545;-0.6568480134010315;0.7690879702568054;0.0;0.0;0.0
991;-0.07710400223731995;-0.48921999335289;0.6636799573898315;0.04196799919009209;-0.6958879828453064;0.7768959999084473;-15.946874618530273;-7.966874599456787;96.5824966430664
993;0.0;0.0;0.0;0.049775999039411545;-0.7388319969177246;0.7886079549789429;0.0;0.0;0.0
995;0.0;0.0;0.0;0.08100800216197968;-0.7661600112915039;0.7886079549789429;0.0;0.0;0.0
997;0.0;0.0;0.0;0.057583998888731;-0.8559519648551941;0.7729920148849487;0.0;0.0;0.0
999;-0.05514399707317352;-0.6495279669761658;0.6624599695205688;0.06539200246334076;-0.8754720091819763;0.7934879660606384;-11.116874694824219;5.263125419616699;92.87249755859375
1002;0.0;0.0;0.0;0.03806399926543236;-0.9691680073738098;0.8130080103874207;0.0;0.0;0.0
1004;0.0;0.0;0.0;0.03415999934077263;-0.9886879920959473;0.8452159762382507;0.0;0.0;0.0
1006;0.0;0.0;0.0;-0.004879999905824661;-1.0355359315872192;0.8657119870185852;0.0;0.0;0.0
1008;-0.1076039969921112;-0.8457039594650269;0.7256559729576111;-0.06734399497509003;-1.0589599609375;0.8949919939041138;-6.076874732971191;17.583126068115234;87.34249877929688
1010;0.0;0.0;0.0;-0.04391999915242195;-1.0901919603347778;0.9184159636497498;0.0;0.0;0.0
1012;0.0;0.0;0.0;-0.0907679945230484;-1.1292319297790527;0.9799039959907532;0.0;0.0;0.0
1014;0.0;0.0;0.0;-0.06734399497509003;-1.1526559591293335;0.9799039959907532;0.0;0.0;0.0
1016;-0.18544000387191772;-0.9813680052757263;0.8442400097846985;-0.0907679945230484;-1.148751974105835;1.0491999387741089;-6.496874809265137;32.84312438964844;76.28250122070312
1019;0.0;0.0;0.0;-0.1395680010318756;-1.1877919435501099;1.0775039196014404;0.0;0.0;0.0
1021;0.0;0.0;0.0;-0.14444799721240997;-1.2151199579238892;1.101904034614563;0.0;0.0;0.0
1023;0.0;0.0;0.0;-0.17470400035381317;-1.2346400022506714;1.158511996269226;0.0;0.0;0.0
1025;-0.27840399742126465;-1.0753079652786255;0.982587993144989;-0.17470400035381317;-1.297104001045227;1.1663199663162231;-12.166874885559082;46.28312301635742;63.68250274658203
1027;0.0;0.0;0.0;-0.2332639992237091;-1.3556640148162842;1.207311987876892;0.0;0.0;0.0
1029;0.0;0.0;0.0;-0.205935999751091;-1.4220319986343384;1.231711983680725;0.0;0.0;0.0
1031;0.0;0.0;0.0;-0.27620798349380493;-1.4805920124053955;1.2229279279708862;0.0;0.0;0.0
1033;-0.36746400594711304;-1.2702640295028687;1.0892159938812256;-0.27620798349380493;-1.5157279968261719;1.256111979484558;-19.72687530517578;46.983123779296875;51.29249954223633
1036;0.0;0.0;0.0;-0.27718400955200195;-1.5430560111999512;1.3010079860687256;0.0;0.0;0.0
1038;0.0;0.0;0.0;-0.2967039942741394;-1.613327980041504;1.3049119710922241;0.0;0.0;0.0
1040;0.0;0.0;0.0;-0.3240320086479187;-1.664080023765564;1.3010079860687256;0.0;0.0;0.0
1042;-0.4172399938106537;-1.4549720287322998;1.1604639291763306;-0.30060797929763794;-1.6953120231628418;1.2922239303588867;-25.88687515258789;38.02312469482422;37.01250076293945
1044;0.0;0.0;0.0;-0.27327999472618103;-1.7499679327011108;1.3049119710922241;0.0;0.0;0.0
1046;0.0;0.0;0.0;-0.2654719948768616;-1.8046239614486694;1.2639199495315552;0.0;0.0;0.0
1048;0.0;0.0;0.0;-0.2967039942741394;-1.8397599458694458;1.2717279195785522;0.0;0.0;0.0
1050;-0.39698800444602966;-1.6499279737472534;1.1497279405593872;-0.2576639950275421;-1.8631839752197266;1.2766079902648926;-28.406875610351562;20.66312599182129;21.542499542236328
1053;0.0;0.0;0.0;-0.2147199958562851;-1.8905119895935059;1.256111979484558;0.0;0.0;0.0
1055;0.0;0.0;0.0;-0.21081599593162537;-1.898319959640503;1.2678239345550537;0.0;0.0;0.0
1057;0.0;0.0;0.0;-0.20691199600696564;-1.9334559440612793;1.2639199495315552;0.0;0.0;0.0
1059;-0.34891998767852783;-1.761923909187317;1.1282559633255005;-0.2420479953289032;-1.9373599290847778;1.2190239429473877;-27.00687599182129;4.773125171661377;2.2925000190734863
1061;0.0;0.0;0.0;-0.21081599593162537;-1.9373599290847778;1.1868159770965576;0.0;0.0;0.0
1063;0.0;0.0;0.0;-0.1756799966096878;-1.9295519590377808;1.1546080112457275;0.0;0.0;0.0
1065;0.0;0.0;0.0;-0.14054399728775024;-1.8787999153137207;1.122399926185608;0.0;0.0;0.0
1067;-0.29109200835227966;-1.7655839920043945;1.0289479494094849;-0.08686399459838867;-1.8748959302902222;1.085312008857727;-24.486875534057617;-10.486875534057617;-21.017499923706055
1070;0.0;0.0;0.0;-0.04391999915242195;-1.859279990196228;1.012112021446228;0.0;0.0;0.0
1072;0.0;0.0;0.0;-0.01659199967980385;-1.8280479907989502;0.9799039959907532;0.0;0.0;0.0
1074;0.0;0.0;0.0;0.022447999566793442;-1.7772959470748901;0.9106079936027527;0.0;0.0;0.0
1076;-0.1349319964647293;-1.6713999509811401;0.843995988368988;0.06929600238800049;-1.7226399183273315;0.8500959873199463;-16.086875915527344;-25.74687385559082;-41.66749954223633
1078;0.0;0.0;0.0;0.10735999792814255;-1.6445599794387817;0.8500959873199463;0.0;0.0;0.0
1080;0.0;0.0;0.0;0.16201600432395935;-1.6016160249710083;0.7973920106887817;0.0;0.0;0.0
1082;0.0;0.0;0.0;0.18934398889541626;-1.5547679662704468;0.7934879660606384;0.0;0.0;0.0
1084;0.024156000465154648;-1.453995943069458;0.6927160024642944;0.20105600357055664;-1.476688027381897;0.7446879744529724;-1.3168751001358032;-29.806875228881836;-57.557498931884766
1087;0.0;0.0;0.0;0.18544000387191772;-1.4142240285873413;0.7163839936256409;0.0;0.0;0.0
1089;0.0;0.0;0.0;0.19324800372123718;-1.336143970489502;0.6919839978218079;0.0;0.0;0.0
1091;0.0;0.0;0.0;0.21667200326919556;-1.3166239261627197;0.6919839978218079;0.0;0.0;0.0
1093;0.09272000193595886;-1.2134119272232056;0.5882840156555176;0.21667200326919556;-1.2151199579238892;0.6714879870414734;12.2631254196167;-14.476875305175781;-70.57749938964844
1095;0.0;0.0;0.0;0.23228800296783447;-1.1526559591293335;0.6832000017166138;0.0;0.0;0.0
1097;0.0;0.0;0.0;0.236191987991333;-1.1214239597320557;0.6880800127983093;0.0;0.0;0.0
1099;0.0;0.0;0.0;0.27132800221443176;-1.0394400358200073;0.7115039825439453;0.0;0.0;0.0
1102;0.11589999496936798;-0.9669719934463501;0.574131965637207;0.18934398889541626;-0.9847840070724487;0.7319999933242798;25.91312599182129;12.54312515258789;-79.39749908447266
1104;0.0;0.0;0.0;0.15811198949813843;-0.9223200082778931;0.7807999849319458;0.0;0.0;0.0
1106;0.0;0.0;0.0;0.13468798995018005;-0.8364319801330566;0.8217920064926147;0.0;0.0;0.0
1108;0.0;0.0;0.0;0.10735999792814255;-0.7544479966163635;0.8500959873199463;0.0;0.0;0.0
1110;0.01439599972218275;-0.7005239725112915;0.6834439635276794;0.07710400223731995;-0.6880800127983093;0.9027999639511108;34.733123779296875;43.83312225341797;-84.99749755859375
1112;0.0;0.0;0.0;0.049775999039411545;-0.6373279690742493;0.9389119744300842;0.0;0.0;0.0
1114;0.0;0.0;0.0;-0.00878399983048439;-0.5982879996299744;0.9711199998855591;0.0;0.0;0.0
1116;0.0;0.0;0.0;-0.04782399907708168;-0.5553439855575562;1.012112021446228;0.0;0.0;0.0
1118;-0.12248799949884415;-0.46116000413894653;0.8381400108337402;-0.05563199892640114;-0.5241119861602783;1.0287039279937744;36.69312286376953;59.09312438964844;-88.35749816894531
1121;0.0;0.0;0.0;-0.07124799489974976;-0.48897600173950195;1.0570080280303955;0.0;0.0;0.0
1123;0.0;0.0;0.0;-0.07905599474906921;-0.4421280026435852;1.0892159938812256;0.0;0.0;0.0
1125;0.0;0.0;0.0;-0.09857599437236786;-0.387472003698349;1.0892159938812256;0.0;0.0;0.0
1127;-0.20788799226284027;-0.30695199966430664;0.9550159573554993;-0.11028799414634705;-0.3640480041503906;1.1136159896850586;34.733123779296875;53.983123779296875;-90.59750366210938
1129;0.0;0.0;0.0;-0.09857599437236786;-0.3211039900779724;1.1380159854888916;0.0;0.0;0.0
1131;0.0;0.0;0.0;-0.11419199407100677;-0.29767999053001404;1.126304030418396;0.0;0.0;0.0
1133;0.0;0.0;0.0;-0.10247999429702759;-0.27035200595855713;1.134112000465393;0.0;0.0;0.0
1136;-0.23814399540424347;-0.16152799129486084;1.012112021446228;-0.12199999392032623;-0.2391199916601181;1.158511996269226;30.743125915527344;39.84312438964844;-92.48750305175781
1138;0.0;0.0;0.0;-0.13663999736309052;-0.22740799188613892;1.1790080070495605;0.0;0.0;0.0
1140;0.0;0.0;0.0;-0.11321599781513214;-0.16103999316692352;1.2034080028533936;0.0;0.0;0.0
1142;0.0;0.0;0.0;-0.1327359974384308;-0.1180959939956665;1.1790080070495605;0.0;0.0;0.0
1144;-0.2500999867916107;-0.03684400022029877;1.0604239702224731;-0.1512800008058548;-0.10638399422168732;1.2190239429473877;24.373125076293945;27.66312599182129;-94.30750274658203
1146;0.0;0.0;0.0;-0.1512800008058548;-0.07905599474906921;1.2190239429473877;0.0;0.0;0.0
1148;0.0;0.0;0.0;-0.17470400035381317;-0.024399999529123306;1.207311987876892;0.0;0.0;0.0
1150;0.0;0.0;0.0;-0.16299200057983398;0.014639999717473984;1.2034080028533936;0.0;0.0;0.0
1153;-0.280599981546402;0.10858000069856644;1.0862879753112793;-0.17470400035381317;0.07710400223731995;1.2112159729003906;13.733124732971191;21.36312484741211;-95.56749725341797
1155;0.0;0.0;0.0;-0.18348799645900726;0.053679998964071274;1.199504017829895;0.0;0.0;0.0
1157;0.0;0.0;0.0;-0.17958399653434753;0.11224000155925751;1.1907199621200562;0.0;0.0;0.0
1159;0.0;0.0;0.0;-0.1600639969110489;0.10443200170993805;1.199504017829895;0.0;0.0;0.0
1161;-0.28352800011634827;0.2227720022201538;1.069451928138733;-0.1298079937696457;0.13566400110721588;1.175104022026062;3.3031251430511475;13.103124618530273;-94.02750396728516
1163;0.0;0.0;0.0;-0.11419199407100677;0.12004800140857697;1.175104022026062;0.0;0.0;0.0
1165;0.0;0.0;0.0;-0.06734399497509003;0.11224000155925751;1.126304030418396;0.0;0.0;0.0
1167;0.0;0.0;0.0;-0.07124799489974976;0.12785600125789642;1.1058080196380615;0.0;0.0;0.0
1170;-0.21716000139713287;0.25058799982070923;1.0113799571990967;-0.08295999467372894;0.13566400110721588;1.097999930381775;-3.8368749618530273;2.393125057220459;-89.40750122070312
1172;0.0;0.0;0.0;-0.07515199482440948;0.13176000118255615;1.101904034614563;0.0;0.0;0.0
1174;0.0;0.0;0.0;-0.0634399950504303;0.10443200170993805;1.0892159938812256;0.0;0.0;0.0
1176;0.0;0.0;0.0;-0.05172799900174141;0.10443200170993805;1.0570080280303955;0.0;0.0;0.0
1178;-0.18055999279022217;0.25912800431251526;0.9603840112686157;-0.07515199482440948;0.10833600163459778;1.0570080280303955;-6.916874885559082;-0.40687501430511475;-84.64749908447266
1180;0.0;0.0;0.0;-0.05172799900174141;0.12004800140857697;1.0892159938812256;0.0;0.0;0.0
1182;0.0;0.0;0.0;-0.05953599885106087;0.13176000118255615;1.0482239723205566;0.0;0.0;0.0
1184;0.0;0.0;0.0;-0.05172799900174141;0.13176000118255615;1.0931199789047241;0.0;0.0;0.0
1187;-0.17421600222587585;0.2630319893360138;0.9567239880561829;-0.028303999453783035;0.17080000042915344;1.0814080238342285;-8.526874542236328;4.843125343322754;-81.42749786376953
1189;0.0;0.0;0.0;-0.04001599922776222;0.14737600088119507;1.0404160022735596;0.0;0.0;0.0
1191;0.0;0.0;0.0;-0.03611199930310249;0.14347200095653534;1.0648159980773926;0.0;0.0;0.0
1193;0.0;0.0;0.0;-0.020495999604463577;0.17080000042915344;1.060912013053894;0.0;0.0;0.0
1195;-0.15908800065517426;0.2827959954738617;0.9403759837150574;-0.020495999604463577;0.14347200095653534;1.0726239681243896;-7.336874961853027;11.843124389648438;-79.04750061035156
1197;0.0;0.0;0.0;-0.04391999915242195;0.1668960005044937;1.097999930381775;0.0;0.0;0.0
1199;0.0;0.0;0.0;-0.04782399907708168;0.1786080002784729;1.126304030418396;0.0;0.0;0.0
1201;0.0;0.0;0.0;-0.07905599474906921;0.20203199982643127;1.1380159854888916;0.0;0.0;0.0
1204;-0.17714399099349976;0.32037198543548584;0.9806360006332397;-0.0634399950504303;0.2449759989976883;1.126304030418396;-0.40687501430511475;11.773124694824219;-73.79750061035156
1206;0.0;0.0;0.0;-0.09467199444770813;0.3152479827404022;1.1214239597320557;0.0;0.0;0.0
1208;0.0;0.0;0.0;-0.05953599885106087;0.1903200000524521;1.1136159896850586;0.0;0.0;0.0
1210;0.0;0.0;0.0;-0.05172799900174141;0.22935999929904938;1.134112000465393;0.0;0.0;0.0
1212;-0.20081199705600739;0.3728320002555847;1.006011962890625;-0.08295999467372894;0.2723039984703064;1.1712000370025635;5.473124980926514;10.653124809265137;-68.82749938964844
1214;0.0;0.0;0.0;-0.11419199407100677;0.38942399621009827;1.2151199579238892;0.0;0.0;0.0
1216;0.0;0.0;0.0;-0.09467199444770813;0.2996319830417633;1.1380159854888916;0.0;0.0;0.0
1218;0.0;0.0;0.0;-0.09857599437236786;0.3230559825897217;1.1175199747085571;0.0;0.0;0.0
1221;-0.1978839933872223;0.45749998092651367;1.0318759679794312;-0.08295999467372894;0.33476799726486206;1.1428959369659424;10.79312515258789;12.473124504089355;-64.34749603271484
1223;0.0;0.0;0.0;-0.04001599922776222;0.3659999966621399;1.1546080112457275;0.0;0.0;0.0
1225;0.0;0.0;0.0;-0.028303999453783035;0.38551998138427734;1.1302080154418945;0.0;0.0;0.0
1227;0.0;0.0;0.0;-0.05563199892640114;0.4050399959087372;1.158511996269226;0.0;0.0;0.0
1229;-0.15103599429130554;0.5197200179100037;1.0277279615402222;-0.05563199892640114;0.4440799951553345;1.182911992073059;19.963125228881836;11.773124694824219;-58.747501373291016
1231;0.0;0.0;0.0;-0.05563199892640114;0.49483197927474976;1.207311987876892;0.0;0.0;0.0
1233;0.0;0.0;0.0;-0.06734399497509003;0.522159993648529;1.2278079986572266;0.0;0.0;0.0
1235;0.0;0.0;0.0;-0.05172799900174141;0.5299679636955261;1.2278079986572266;0.0;0.0;0.0
1238;-0.1856839954853058;0.6468439698219299;1.0948280096054077;-0.07515199482440948;0.5533919930458069;1.2600159645080566;26.403125762939453;14.573124885559082;-52.307498931884766
1240;0.0;0.0;0.0;-0.10638399422168732;0.5963360071182251;1.2883199453353882;0.0;0.0;0.0
1242;0.0;0.0;0.0;-0.12590399384498596;0.6392799615859985;1.2805119752883911;0.0;0.0;0.0
1244;0.0;0.0;0.0;-0.1454239934682846;0.6509919762611389;1.3254079818725586;0.0;0.0;0.0
1246;-0.23594799637794495;0.7568879723548889;1.1670520305633545;-0.13371199369430542;0.6666079759597778;1.3127199411392212;26.963125228881836;19.263126373291016;-46.63750076293945
1248;0.0;0.0;0.0;-0.16103999316692352;0.6744160056114197;1.3371199369430542;0.0;0.0;0.0
1250;0.0;0.0;0.0;-0.17958399653434753;0.7173599600791931;1.3537119626998901;0.0;0.0;0.0
1252;0.0;0.0;0.0;-0.16396799683570862;0.7524960041046143;1.3488320112228394;0.0;0.0;0.0
1255;-0.2857239842414856;0.8671759963035583;1.2151199579238892;-0.187391996383667;0.799344003200531;1.3488320112228394;25.213125228881836;18.563125610351562;-39.77750015258789
1257;0.0;0.0;0.0;-0.18348799645900726;0.8305760025978088;1.3410239219665527;0.0;0.0;0.0
1259;0.0;0.0;0.0;-0.17177599668502808;0.8461920022964478;1.3693280220031738;0.0;0.0;0.0
1261;0.0;0.0;0.0;-0.16787199676036835;0.8422879576683044;1.3937280178070068;0.0;0.0;0.0
1263;-0.30060797929763794;0.9640439748764038;1.2304919958114624;-0.19129599630832672;0.8461920022964478;1.3488320112228394;25.423124313354492;7.223125457763672;-28.227500915527344
1265;0.0;0.0;0.0;-0.15225599706172943;0.8735199570655823;1.3576159477233887;0.0;0.0;0.0
1267;0.0;0.0;0.0;-0.18348799645900726;0.8461920022964478;1.3537119626998901;0.0;0.0;0.0
1269;0.0;0.0;0.0;-0.19910399615764618;0.8539999723434448;1.3537119626998901;0.0;0.0;0.0
1272;-0.29938799142837524;0.9779520034790039;1.2258559465408325;-0.1756799966096878;0.8305760025978088;1.3293119668960571;24.79312515258789;-7.966874599456787;-15.207500457763672
1274;0.0;0.0;0.0;-0.1600639969110489;0.8344799876213074;1.3371199369430542;0.0;0.0;0.0
1276;0.0;0.0;0.0;-0.16787199676036835;0.8618080019950867;1.3049119710922241;0.0;0.0;0.0
1278;0.0;0.0;0.0;-0.16787199676036835;0.8266719579696655;1.3205280303955078;0.0;0.0;0.0
1280;-0.28474798798561096;0.9808799624443054;1.1946239471435547;-0.12199999392032623;0.8657119870185852;1.2922239303588867;21.713125228881836;-15.806875228881836;-6.737499713897705
1282;0.0;0.0;0.0;-0.08686399459838867;0.9086560010910034;1.2639199495315552;0.0;0.0;0.0
1284;0.0;0.0;0.0;-0.08686399459838867;0.9047519564628601;1.2395199537277222;0.0;0.0;0.0
1286;0.0;0.0;0.0;-0.05563199892640114;0.920367956161499;1.207311987876892;0.0;0.0;0.0
1289;-0.18690399825572968;1.0379760265350342;1.118251919746399;-0.020495999604463577;0.9437919855117798;1.175104022026062;18.983125686645508;-18.466875076293945;0.4024999737739563
1291;0.0;0.0;0.0;-0.0009759999811649323;0.9437919855117798;1.158511996269226;0.0;0.0;0.0
1293;0.0;0.0;0.0;0.0029279999434947968;0.986735999584198;1.146799921989441;0.0;0.0;0.0
1295;0.0;0.0;0.0;0.010735999792814255;0.986735999584198;1.1175199747085571;0.0;0.0;0.0
1297;-0.12297599762678146;1.111907958984375;1.0260199308395386;-0.00878399983048439;1.010159969329834;1.126304030418396;23.183124542236328;-22.38687515258789;12.792499542236328
1299;0.0;0.0;0.0;0.022447999566793442;1.0491999387741089;1.1380159854888916;0.0;0.0;0.0
1301;0.0;0.0;0.0;0.010735999792814255;1.0491999387741089;1.1302080154418945;0.0;0.0;0.0
1303;0.0;0.0;0.0;-0.01659199967980385;1.0452959537506104;1.1419199705123901;0.0;0.0;0.0
1306;-0.1134599968791008;1.1724200248718262;1.0118680000305176;0.02635199949145317;1.0726239681243896;1.1546080112457275;27.313125610351562;-19.796875;27.002500534057617
1308;0.0;0.0;0.0;-0.00878399983048439;1.0765279531478882;1.150704026222229;0.0;0.0;0.0
1310;0.0;0.0;0.0;-0.020495999604463577;1.0804319381713867;1.150704026222229;0.0;0.0;0.0
1312;0.0;0.0;0.0;-0.04782399907708168;1.0843359231948853;1.1663199663162231;0.0;0.0;0.0
1314;-0.15201199054718018;1.2021880149841309;1.0394400358200073;-0.07515199482440948;1.0687199831008911;1.207311987876892;25.493125915527344;-9.716875076293945;38.76250076293945
1316;0.0;0.0;0.0;-0.0907679945230484;1.0648159980773926;1.2112159729003906;0.0;0.0;0.0
1318;0.0;0.0;0.0;-0.10638399422168732;1.0648159980773926;1.2151199579238892;0.0;0.0;0.0
1320;0.0;0.0;0.0;-0.13663999736309052;1.060912013053894;1.2395199537277222;0.0;0.0;0.0
1323;-0.2327760010957718;1.193892002105713;1.0850679874420166;-0.17958399653434753;1.0452959537506104;1.2034080028533936;18.91312599182129;-2.436875104904175;47.79249954223633
1325;0.0;0.0;0.0;-0.2030079960823059;1.0531039237976074;1.207311987876892;0.0;0.0;0.0
1327;0.0;0.0;0.0;-0.16787199676036835;1.0452959537506104;1.207311987876892;0.0;0.0;0.0
1329;0.0;0.0;0.0;-0.1756799966096878;1.0140639543533325;1.207311987876892;0.0;0.0;0.0
1331;-0.2949959933757782;1.1641240119934082;1.0748199224472046;-0.17177599668502808;0.9945439696311951;1.1663199663162231;11.983124732971191;-8.596875190734863;55.98249816894531
1333;0.0;0.0;0.0;-0.17177599668502808;0.9750239849090576;1.1380159854888916;0.0;0.0;0.0
1335;0.0;0.0;0.0;-0.15615999698638916;0.920367956161499;1.1419199705123901;0.0;0.0;0.0
1338;0.0;0.0;0.0;-0.1600639969110489;0.9242720007896423;1.101904034614563;0.0;0.0;0.0
1340;-0.2710839807987213;1.0845799446105957;0.9957639575004578;-0.1180959939956665;0.9164639711380005;1.0775039196014404;8.623125076293945;-26.796875;65.85250091552734
1342;0.0;0.0;0.0;-0.1298079937696457;0.896943986415863;1.0404160022735596;0.0;0.0;0.0
1344;0.0;0.0;0.0;-0.07905599474906921;0.9320799708366394;1.0287039279937744;0.0;0.0;0.0
1346;0.0;0.0;0.0;-0.07905599474906921;0.9164639711380005;1.012112021446228;0.0;0.0;0.0
1348;-0.20276398956775665;1.044808030128479;0.9030439853668213;-0.05953599885106087;0.8930400013923645;0.9594079852104187;6.033124923706055;-38.97687530517578;74.88249969482422
1350;0.0;0.0;0.0;-0.04782399907708168;0.8891359567642212;0.9467200040817261;0.0;0.0;0.0
1352;0.0;0.0;0.0;-0.04001599922776222;0.8852319717407227;0.9027999639511108;0.0;0.0;0.0
1355;0.0;0.0;0.0;-0.0009759999811649323;0.8500959873199463;0.8823039531707764;0.0;0.0;0.0
1357;-0.13395600020885468;0.9928359985351562;0.7898280024528503;0.014639999717473984;0.7954399585723877;0.8579039573669434;2.1131250858306885;-38.696876525878906;83.70249938964844
1359;0.0;0.0;0.0;0.04196799919009209;0.7603039741516113;0.8169119954109192;0.0;0.0;0.0
1361;0.0;0.0;0.0;0.06539200246334076;0.7563999891281128;0.8051999807357788;0.0;0.0;0.0
1363;0.0;0.0;0.0;0.08881600201129913;0.7642079591751099;0.7934879660606384;0.0;0.0;0.0
1365;-0.06148799881339073;0.8915759921073914;0.6880800127983093;0.08100800216197968;0.6861279606819153;0.7603039741516113;0.22312499582767487;-26.166873931884766;93.2925033569336
1367;0.0;0.0;0.0;0.08100800216197968;0.6744160056114197;0.7446879744529724;0.0;0.0;0.0
1369;0.0;0.0;0.0;0.09272000193595886;0.6627039909362793;0.748591959476471;0.0;0.0;0.0
1372;0.0;0.0;0.0;0.06539200246334076;0.6314719915390015;0.7398079633712769;0.0;0.0;0.0
1374;-0.043431997299194336;0.7922679781913757;0.6258599758148193;0.08100800216197968;0.6002399921417236;0.7524960041046143;2.6031250953674316;-8.666874885559082;104.07250213623047
1376;0.0;0.0;0.0;0.053679998964071274;0.5260639786720276;0.7524960041046143;0.0;0.0;0.0
1378;0.0;0.0;0.0;0.022447999566793442;0.5065439939498901;0.7563999891281128;0.0;0.0;0.0
1380;0.0;0.0;0.0;0.0302559994161129;0.47921597957611084;0.748591959476471;0.0;0.0;0.0
1382;-0.06758800148963928;0.6424520015716553;0.631227970123291;0.03415999934077263;0.44017598032951355;0.7729920148849487;5.613125324249268;9.743124961853027;112.89250183105469
1384;0.0;0.0;0.0;0.02635199949145317;0.3933279812335968;0.7934879660606384;0.0;0.0;0.0
1386;0.0;0.0;0.0;0.0029279999434947968;0.36209598183631897;0.8461920022964478;0.0;0.0;0.0
1389;0.0;0.0;0.0;-0.01268799975514412;0.30353599786758423;0.8374080061912537;0.0;0.0;0.0
1391;-0.134443998336792;0.48385199904441833;0.6936919689178467;-0.07124799489974976;0.2449759989976883;0.8862079977989197;5.473124980926514;27.173126220703125;117.02249908447266
1393;0.0;0.0;0.0;-0.07124799489974976;0.19422399997711182;0.9106079936027527;0.0;0.0;0.0
1395;0.0;0.0;0.0;-0.06734399497509003;0.19422399997711182;0.9232959747314453;0.0;0.0;0.0
1397;0.0;0.0;0.0;-0.09467199444770813;0.1395680010318756;0.9633119702339172;0.0;0.0;0.0
1399;-0.20813199877738953;0.29523998498916626;0.8054440021514893;-0.11028799414634705;0.022447999566793442;0.9799039959907532;-0.4768750071525574;43.06312561035156;115.0625
1401;0.0;0.0;0.0;-0.15225599706172943;0.2683999836444855;1.097999930381775;0.0;0.0;0.0
1403;0.0;0.0;0.0;-0.24595199525356293;-0.04782399907708168;0.9672159552574158;0.0;0.0;0.0
1406;0.0;0.0;0.0;-0.2030079960823059;0.07710400223731995;1.101904034614563;0.0;0.0;0.0
1408;-0.321835994720459;0.21569599211215973;0.9223200082778931;-0.22643199563026428;0.014639999717473984;1.1136159896850586;-8.246874809265137;52.02312469482422;110.72250366210938
1410;0.0;0.0;0.0;-0.27327999472618103;-0.06734399497509003;1.1058080196380615;0.0;0.0;0.0
1412;0.0;0.0;0.0;-0.2810879945755005;-0.10638399422168732;1.0726239681243896;0.0;0.0;0.0
1414;0.0;0.0;0.0;-0.284991979598999;-0.1727519929409027;1.085312008857727;0.0;0.0;0.0
1416;-0.3979640007019043;0.03245199844241142;0.9679479598999023;-0.2576639950275421;-0.13761599361896515;1.1380159854888916;-15.7368745803833;48.663124084472656;108.97250366210938
1418;0.0;0.0;0.0;-0.3357439935207367;-0.25863999128341675;1.1380159854888916;0.0;0.0;0.0
1420;0.0;0.0;0.0;-0.3201279938220978;-0.2781600058078766;1.158511996269226;0.0;0.0;0.0
1423;0.0;0.0;0.0;-0.3630719780921936;-0.3328160047531128;1.1663199663162231;0.0;0.0;0.0
1425;-0.45359599590301514;-0.15615999698638916;1.0187000036239624;-0.38649600744247437;-0.399183988571167;1.1790080070495605;-15.38687515258789;35.43312454223633;107.50250244140625
1427;0.0;0.0;0.0;-0.38649600744247437;-0.4421280026435852;1.1946239471435547;0.0;0.0;0.0
1429;0.0;0.0;0.0;-0.41284799575805664;-0.4382239878177643;1.207311987876892;0.0;0.0;0.0
1431;0.0;0.0;0.0;-0.38259199261665344;-0.5123999714851379;1.2034080028533936;0.0;0.0;0.0
1433;-0.5116679668426514;-0.33135199546813965;1.0628639459609985;-0.40991997718811035;-0.5436319708824158;1.182911992073059;-11.88687515258789;12.8931245803833;107.85250091552734
1435;0.0;0.0;0.0;-0.3786879777908325;-0.6021919846534729;1.150704026222229;0.0;0.0;0.0
1437;0.0;0.0;0.0;-0.374783992767334;-0.6919839978218079;1.1712000370025635;0.0;0.0;0.0
1440;0.0;0.0;0.0;-0.3396480083465576;-0.7622559666633606;1.122399926185608;0.0;0.0;0.0
1442;-0.4887319803237915;-0.5465599894523621;1.0287039279937744;-0.3084160089492798;-0.8130080103874207;1.1058080196380615;-8.946874618530273;-8.246874809265137;106.52249908447266
1444;0.0;0.0;0.0;-0.30451199412345886;-0.8949919939041138;1.085312008857727;0.0;0.0;0.0
1446;0.0;0.0;0.0;-0.2967039942741394;-0.9301279783248901;1.0570080280303955;0.0;0.0;0.0
1448;0.0;0.0;0.0;-0.2537599802017212;-0.9847840070724487;1.0531039237976074;0.0;0.0;0.0
1450;-0.40455198287963867;-0.7981239557266235;0.944767951965332;-0.2576639950275421;-1.0160160064697266;1.0326080322265625;-3.6268749237060547;-19.376874923706055;102.39250183105469
1452;0.0;0.0;0.0;-0.23423999547958374;-1.1136159896850586;1.0404160022735596;0.0;0.0;0.0
1454;0.0;0.0;0.0;-0.2030079960823059;-1.1331360340118408;0.9994239807128906;0.0;0.0;0.0
1457;0.0;0.0;0.0;-0.20691199600696564;-1.1136159896850586;1.036512017250061;0.0;0.0;0.0
1459;-0.3445279896259308;-0.9777079820632935;0.9062159657478333;-0.2420479953289032;-1.156559944152832;1.036512017250061;3.653125047683716;-19.166873931884766;96.72250366210938
1461;0.0;0.0;0.0;-0.16494399309158325;-1.254159927368164;1.0160160064697266;0.0;0.0;0.0
1463;0.0;0.0;0.0;-0.16787199676036835;-1.3049119710922241;1.0238239765167236;0.0;0.0;0.0
1465;0.0;0.0;0.0;-0.187391996383667;-1.3712799549102783;1.0482239723205566;0.0;0.0;0.0
1467;-0.29646000266075134;-1.185595989227295;0.908411979675293;-0.14444799721240997;-1.4376479387283325;1.044319987297058;4.423125267028809;-11.95687484741211;88.39250183105469
1470;0.0;0.0;0.0;-0.1298079937696457;-1.523535966873169;1.0491999387741089;0.0;0.0;0.0
1471;0.0;0.0;0.0;-0.14932799339294434;-1.5703840255737305;1.126304030418396;0.0;0.0;0.0
1474;0.0;0.0;0.0;-0.17958399653434753;-1.613327980041504;1.1624159812927246;0.0;0.0;0.0
1476;-0.2827959954738617;-1.430083990097046;0.9911279678344727;-0.1756799966096878;-1.679695963859558;1.1868159770965576;-1.4568750858306885;13.173125267028809;73.69249725341797
1478;0.0;0.0;0.0;-0.22643199563026428;-1.710927963256836;1.223904013633728;0.0;0.0;0.0
1480;0.0;0.0;0.0;-0.2576639950275421;-1.7499679327011108;1.2678239345550537;0.0;0.0;0.0
1482;0.0;0.0;0.0;-0.2537599802017212;-1.8124319314956665;1.3166239261627197;0.0;0.0;0.0
1484;-0.36917200684547424;-1.6245520114898682;1.1499719619750977;-0.2654719948768616;-1.867087960243225;1.377135992050171;-13.216875076293945;43.76312255859375;52.76250076293945
1486;0.0;0.0;0.0;-0.28889599442481995;-1.9529759883880615;1.4064159393310547;0.0;0.0;0.0
1488;0.0;0.0;0.0;-0.3474559783935547;-2.00763201713562;1.4308159351348877;0.0;0.0;0.0
1491;0.0;0.0;0.0;-0.39430397748947144;-2.0271520614624023;1.4464319944381714;0.0;0.0;0.0
1493;-0.47433599829673767;-1.8504959344863892;1.295639991760254;-0.44017598032951355;-2.089616060256958;1.4835200309753418;-23.156875610351562;57.69312286376953;28.47249984741211
1495;0.0;0.0;0.0;-0.45579198002815247;-2.101327896118164;1.5118240118026733;0.0;0.0;0.0
1497;0.0;0.0;0.0;-0.4987359941005707;-2.109135866165161;1.523535966873169;0.0;0.0;0.0
1499;0.0;0.0;0.0;-0.5338720083236694;-2.1442718505859375;1.5518399477005005;0.0;0.0;0.0
1501;-0.6056079864501953;-1.995919942855835;1.4042199850082397;-0.4987359941005707;-2.198927879333496;1.5362240076065063;-25.88687515258789;47.61312484741211;3.482499837875366
1503;0.0;0.0;0.0;-0.48311999440193176;-2.2184479236602783;1.5518399477005005;0.0;0.0;0.0
1505;0.0;0.0;0.0;-0.4596959948539734;-2.2223520278930664;1.5274399518966675;0.0;0.0;0.0
1508;0.0;0.0;0.0;-0.4440799951553345;-2.2574880123138428;1.5274399518966675;0.0;0.0;0.0
1510;-0.5887719988822937;-2.097424030303955;1.3995839357376099;-0.4167519807815552;-2.2535839080810547;1.4786399602890015;-20.9168758392334;11.1431245803833;-19.337499618530273
1512;0.0;0.0;0.0;-0.39430397748947144;-2.2262558937072754;1.474735975265503;0.0;0.0;0.0
1514;0.0;0.0;0.0;-0.3630719780921936;-2.2145440578460693;1.425935983657837;0.0;0.0;0.0
1516;0.0;0.0;0.0;-0.3240320086479187;-2.1208479404449463;1.3693280220031738;0.0;0.0;0.0
1518;-0.49190399050712585;-2.031787872314453;1.2766079902648926;-0.29280000925064087;-2.08571195602417;1.2883199453353882;-9.716875076293945;-32.88687515258789;-41.59749984741211
1521;0.0;0.0;0.0;-0.24595199525356293;-1.9998239278793335;1.231711983680725;0.0;0.0;0.0
1522;0.0;0.0;0.0;-0.187391996383667;-1.9646879434585571;1.2034080028533936;0.0;0.0;0.0
1525;0.0;0.0;0.0;-0.16396799683570862;-1.9022239446640015;1.1624159812927246;0.0;0.0;0.0
1527;-0.3252519965171814;-1.8158479928970337;1.075551986694336;-0.12590399384498596;-1.816335916519165;1.097999930381775;2.323125123977661;-61.30687713623047;-63.36750030517578
1529;0.0;0.0;0.0;-0.07124799489974976;-1.769487977027893;1.0404160022735596;0.0;0.0;0.0
1531;0.0;0.0;0.0;-0.032207999378442764;-1.6835999488830566;0.9750239849090576;0.0;0.0;0.0
1533;0.0;0.0;0.0;-0.0009759999811649323;-1.6055200099945068;0.8901119828224182;0.0;0.0;0.0
1535;-0.15445199608802795;-1.5340279340744019;0.8496080040931702;0.057583998888731;-1.5040159225463867;0.8539999723434448;12.403124809265137;-72.9268798828125;-81.42749786376953
1537;0.0;0.0;0.0;0.09662400186061859;-1.4103199243545532;0.8051999807357788;0.0;0.0;0.0
1540;0.0;0.0;0.0;0.13859200477600098;-1.3478559255599976;0.7446879744529724;0.0;0.0;0.0
1542;0.0;0.0;0.0;0.2088640034198761;-1.2736799716949463;0.6958879828453064;0.0;0.0;0.0
1544;0.023667998611927032;-1.207800030708313;0.6375719904899597;0.2205759882926941;-1.1916959285736084;0.6714879870414734;24.303125381469727;-68.58687591552734;-93.32749938964844
1546;0.0;0.0;0.0;0.21667200326919556;-1.101904034614563;0.6832000017166138;0.0;0.0;0.0
1548;0.0;0.0;0.0;0.25571200251579285;-1.019919991493225;0.6588000059127808;0.0;0.0;0.0
1550;0.0;0.0;0.0;0.23228800296783447;-0.9262239933013916;0.6431840062141418;0.0;0.0;0.0
1552;0.1193159967660904;-0.8866959810256958;0.5338720083236694;0.236191987991333;-0.8637599945068359;0.6509919762611389;37.60312271118164;-44.7868766784668;-99.13749694824219
1555;0.0;0.0;0.0;0.17763200402259827;-0.7700639963150024;0.6470879912376404;0.0;0.0;0.0
1557;0.0;0.0;0.0;0.1815359890460968;-0.684175968170166;0.6636799573898315;0.0;0.0;0.0
1559;0.0;0.0;0.0;0.1698240041732788;-0.5904799699783325;0.6792960166931152;0.0;0.0;0.0
1561;0.06563600152730942;-0.5489999651908875;0.5502200126647949;0.1424959897994995;-0.5202080011367798;0.7036960124969482;45.93312454223633;-10.346875190734863;-103.3375015258789
1563;0.0;0.0;0.0;0.10345599800348282;-0.44993600249290466;0.7603039741516113;0.0;0.0;0.0
1565;0.0;0.0;0.0;0.09272000193595886;-0.39137598872184753;0.7807999849319458;0.0;0.0;0.0
1567;0.0;0.0;0.0;0.053679998964071274;-0.3328160047531128;0.8374080061912537;0.0;0.0;0.0
1569;-0.018543999642133713;-0.25107598304748535;0.6729519963264465;0.06929600238800049;-0.2547360062599182;0.8823039531707764;46.77312469482422;25.91312599182129;-107.1875
1572;0.0;0.0;0.0;0.03806399926543236;-0.1844639927148819;0.9184159636497498;0.0;0.0;0.0
1574;0.0;0.0;0.0;0.04196799919009209;-0.13371199369430542;0.9955199956893921;0.0;0.0;0.0
1576;0.0;0.0;0.0;-0.04001599922776222;-0.04782399907708168;1.0160160064697266;0.0;0.0;0.0
1578;-0.12541599571704865;0.013419999741017818;0.8486319780349731;-0.05953599885106087;-0.01268799975514412;1.0775039196014404;40.9631233215332;52.65312576293945;-109.35749816894531
1580;0.0;0.0;0.0;-0.08295999467372894;0.018543999642133713;1.073599934577942;0.0;0.0;0.0
1582;0.0;0.0;0.0;-0.07905599474906921;0.11224000155925751;1.175104022026062;0.0;0.0;0.0
1584;0.0;0.0;0.0;-0.14151999354362488;0.14737600088119507;1.1712000370025635;0.0;0.0;0.0
1586;-0.23399598896503448;0.23131199181079865;1.0145519971847534;-0.19519999623298645;0.22155199944972992;1.2190239429473877;35.36312484741211;57.69312286376953;-107.74749755859375
1589;0.0;0.0;0.0;-0.19519999623298645;0.29182398319244385;1.256111979484558;0.0;0.0;0.0
1591;0.0;0.0;0.0;-0.2537599802017212;0.2879199981689453;1.2922239303588867;0.0;0.0;0.0
1593;0.0;0.0;0.0;-0.23814399540424347;0.350383996963501;1.3410239219665527;0.0;0.0;0.0
1595;-0.35819199681282043;0.4282200038433075;1.1580239534378052;-0.2693759799003601;0.36209598183631897;1.3488320112228394;30.673124313354492;40.47312545776367;-101.5875015258789
1597;0.0;0.0;0.0;-0.2654719948768616;0.4206559956073761;1.3820159435272217;0.0;0.0;0.0
1599;0.0;0.0;0.0;-0.27718400955200195;0.45579198002815247;1.3898239135742188;0.0;0.0;0.0
1601;0.0;0.0;0.0;-0.2967039942741394;0.48311999440193176;1.3693280220031738;0.0;0.0;0.0
1603;-0.4101639986038208;0.5736439824104309;1.2539160251617432;-0.2810879945755005;0.5065439939498901;1.3937280178070068;20.873125076293945;10.583125114440918;-95.63749694824219
1606;0.0;0.0;0.0;-0.2537599802017212;0.522159993648529;1.3410239219665527;0.0;0.0;0.0
1608;0.0;0.0;0.0;-0.22643199563026428;0.561199963092804;1.3244320154190063;0.0;0.0;0.0
1610;0.0;0.0;0.0;-0.21862399578094482;0.6197599768638611;1.3205280303955078;0.0;0.0;0.0
1612;-0.3525799810886383;0.69759601354599;1.1982840299606323;-0.16396799683570862;0.6353759765625;1.256111979484558;8.7631254196167;-23.016874313354492;-91.57749938964844
1614;0.0;0.0;0.0;-0.16787199676036835;0.6197599768638611;1.1868159770965576;0.0;0.0;0.0
1616;0.0;0.0;0.0;-0.1454239934682846;0.6431840062141418;1.1624159812927246;0.0;0.0;0.0
1618;0.0;0.0;0.0;-0.06734399497509003;0.6470879912376404;1.1136159896850586;0.0;0.0;0.0
1620;-0.2349720001220703;0.7746999859809875;1.0360239744186401;-0.05953599885106087;0.6705119609832764;1.101904034614563;-0.05687499791383743;-44.36687469482422;-86.25749969482422
1623;0.0;0.0;0.0;-0.032207999378442764;0.7017439603805542;1.0970239639282227;0.0;0.0;0.0
1625;0.0;0.0;0.0;-0.00878399983048439;0.7290719747543335;1.0482239723205566;0.0;0.0;0.0
1627;0.0;0.0;0.0;0.0302559994161129;0.7407839894294739;1.036512017250061;0.0;0.0;0.0
1629;-0.12663599848747253;0.8464359641075134;0.920367956161499;0.07320000231266022;0.7603039741516113;0.9877119660377502;-3.346874952316284;-47.23687744140625;-78.90750122070312
1631;0.0;0.0;0.0;0.057583998888731;0.7563999891281128;0.9672159552574158;0.0;0.0;0.0
1633;0.0;0.0;0.0;0.06929600238800049;0.7603039741516113;0.9389119744300842;0.0;0.0;0.0
1635;0.0;0.0;0.0;0.06929600238800049;0.7759199738502502;0.9467200040817261;0.0;0.0;0.0
1637;-0.049531999975442886;0.9006040096282959;0.8383839726448059;0.07320000231266022;0.8032479882240295;0.9594079852104187;-4.396874904632568;-37.15687561035156;-71.69750213623047
1640;0.0;0.0;0.0;0.0849120020866394;0.7759199738502502;0.9467200040817261;0.0;0.0;0.0
1642;0.0;0.0;0.0;0.0849120020866394;0.8422879576683044;0.9672159552574158;0.0;0.0;0.0
1644;0.0;0.0;0.0;0.04196799919009209;0.8344799876213074;0.9799039959907532;0.0;0.0;0.0
1646;-0.04928799718618393;0.9491599798202515;0.8437519669532776;0.03415999934077263;0.8618080019950867;0.9955199956893921;-3.6268749237060547;-22.38687515258789;-62.94750213623047
1648;0.0;0.0;0.0;0.08198399841785431;0.8813279867172241;1.0043039321899414;0.0;0.0;0.0
1650;0.0;0.0;0.0;0.04684799909591675;0.8735199570655823;0.9877119660377502;0.0;0.0;0.0
1652;0.0;0.0;0.0;0.019519999623298645;0.8852319717407227;1.0238239765167236;0.0;0.0;0.0
1654;-0.07246799767017365;1.0011320114135742;0.8852319717407227;0.003903999924659729;0.8852319717407227;1.0287039279937744;-2.296875;-8.1068754196167;-54.967498779296875
1657;0.0;0.0;0.0;0.023423999547958374;0.9398880004882812;1.0491999387741089;0.0;0.0;0.0
1659;0.0;0.0;0.0;0.007807999849319458;0.986735999584198;1.0892159938812256;0.0;0.0;0.0
1661;0.0;0.0;0.0;-0.019519999623298645;0.9906399846076965;1.0531039237976074;0.0;0.0;0.0
1663;-0.12785600125789642;1.0836039781570435;0.9259799718856812;0.011711999773979187;0.912559986114502;1.019919991493225;1.2731249332427979;-1.3168749809265137;-46.147499084472656
1665;0.0;0.0;0.0;-0.032207999378442764;0.9984479546546936;1.073599934577942;0.0;0.0;0.0
1667;0.0;0.0;0.0;-0.01659199967980385;1.0726239681243896;1.0892159938812256;0.0;0.0;0.0
1669;0.0;0.0;0.0;-0.03611199930310249;1.0413919687271118;1.0775039196014404;0.0;0.0;0.0
1671;-0.15103599429130554;1.1658319234848022;0.944767951965332;-0.028303999453783035;1.060912013053894;1.0775039196014404;9.323124885559082;-7.476874828338623;-33.19750213623047
1674;0.0;0.0;0.0;-0.04001599922776222;1.0960479974746704;1.0814080238342285;0.0;0.0;0.0
1676;0.0;0.0;0.0;-0.020495999604463577;1.1233760118484497;1.0892159938812256;0.0;0.0;0.0
1678;0.0;0.0;0.0;-0.024399999529123306;1.158511996269226;1.1136159896850586;0.0;0.0;0.0
1680;-0.15201199054718018;1.2575759887695312;0.9716079831123352;-0.032207999378442764;1.146799921989441;1.101904034614563;15.273124694824219;-15.1068754196167;-19.75749969482422
1682;0.0;0.0;0.0;-0.04782399907708168;1.189743995666504;1.0931199789047241;0.0;0.0;0.0
1684;0.0;0.0;0.0;-0.04001599922776222;1.1858400106430054;1.10971200466156;0.0;0.0;0.0
1686;0.0;0.0;0.0;-0.05172799900174141;1.2326879501342773;1.101904034614563;0.0;0.0;0.0
1688;-0.15201199054718018;1.33980393409729;0.977463960647583;-0.024399999529123306;1.2717279195785522;1.0814080238342285;16.253124237060547;-18.536874771118164;-7.857500076293945
1691;0.0;0.0;0.0;-0.024399999529123306;1.3068640232086182;1.0931199789047241;0.0;0.0;0.0
1693;0.0;0.0;0.0;-0.020495999604463577;1.3107680082321167;1.060912013053894;0.0;0.0;0.0
1695;0.0;0.0;0.0;-0.00878399983048439;1.287343978881836;1.0648159980773926;0.0;0.0;0.0
1697;-0.13419999182224274;1.4322799444198608;0.9469639658927917;-0.020495999604463577;1.338096022605896;1.0404160022735596;14.433125495910645;-22.1768741607666;5.162500381469727
1699;0.0;0.0;0.0;-0.024399999529123306;1.3420000076293945;1.0404160022735596;0.0;0.0;0.0
1701;0.0;0.0;0.0;-0.01659199967980385;1.3693280220031738;1.019919991493225;0.0;0.0;0.0
1703;0.0;0.0;0.0;-0.024399999529123306;1.3693280220031738;1.0238239765167236;0.0;0.0;0.0
1705;-0.14444799721240997;1.4937679767608643;0.9110959768295288;-0.024399999529123306;1.377135992050171;1.0247999429702759;12.893125534057617;-21.826873779296875;20.63249969482422
1708;0.0;0.0;0.0;-0.032207999378442764;1.4005600214004517;1.0326080322265625;0.0;0.0;0.0
1710;0.0;0.0;0.0;-0.04782399907708168;1.392751932144165;1.036512017250061;0.0;0.0;0.0
1712;0.0;0.0;0.0;-0.06734399497509003;1.377135992050171;1.0648159980773926;0.0;0.0;0.0
1714;-0.17153199017047882;1.5118240118026733;0.9149999618530273;-0.09467199444770813;1.3537119626998901;1.044319987297058;10.093125343322754;-14.266875267028809;37.712501525878906
1716;0.0;0.0;0.0;-0.08686399459838867;1.345903992652893;1.0931199789047241;0.0;0.0;0.0
1718;0.0;0.0;0.0;-0.12199999392032623;1.3263839483261108;1.0814080238342285;0.0;0.0;0.0
1720;0.0;0.0;0.0;-0.13761599361896515;1.295151948928833;1.126304030418396;0.0;0.0;0.0
1722;-0.22960399091243744;1.4583879709243774;0.9633119702339172;-0.14932799339294434;1.3068640232086182;1.146799921989441;4.283124923706055;-7.26687479019165;54.65250015258789
1725;0.0;0.0;0.0;-0.17177599668502808;1.2678239345550537;1.1302080154418945;0.0;0.0;0.0
1727;0.0;0.0;0.0;-0.21081599593162537;1.2756320238113403;1.150704026222229;0.0;0.0;0.0
1729;0.0;0.0;0.0;-0.21081599593162537;1.2365919351577759;1.1624159812927246;0.0;0.0;0.0
1731;-0.3118319809436798;1.3773800134658813;1.019919991493225;-0.2030079960823059;1.158511996269226;1.1624159812927246;-5.866875171661377;-6.706874847412109;68.44249725341797
1733;0.0;0.0;0.0;-0.20691199600696564;1.1546080112457275;1.1712000370025635;0.0;0.0;0.0
1735;0.0;0.0;0.0;-0.16787199676036835;1.115567922592163;1.146799921989441;0.0;0.0;0.0
1737;0.0;0.0;0.0;-0.17177599668502808;1.0413919687271118;1.1380159854888916;0.0;0.0;0.0
1739;-0.3140279948711395;1.221463918685913;1.013819932937622;-0.19129599630832672;1.017967939376831;1.122399926185608;-17.276874542236328;-16.506874084472656;80.48249816894531
1742;0.0;0.0;0.0;-0.17177599668502808;0.9555040001869202;1.0814080238342285;0.0;0.0;0.0
1744;0.0;0.0;0.0;-0.15615999698638916;0.920367956161499;1.0570080280303955;0.0;0.0;0.0
1746;0.0;0.0;0.0;-0.14932799339294434;0.8696159720420837;1.0482239723205566;0.0;0.0;0.0
1748;-0.29523998498916626;1.0557879209518433;0.9374479651451111;-0.1298079937696457;0.8774240016937256;1.044319987297058;-24.066875457763672;-27.4268741607666;91.68250274658203
1750;0.0;0.0;0.0;-0.1180959939956665;0.8383839726448059;1.0238239765167236;0.0;0.0;0.0
1752;0.0;0.0;0.0;-0.09467199444770813;0.8305760025978088;1.0238239765167236;0.0;0.0;0.0
1754;0.0;0.0;0.0;-0.14054399728775024;0.748591959476471;1.0003999471664429;0.0;0.0;0.0
1756;-0.24887999892234802;0.9315919876098633;0.8884040117263794;-0.14151999354362488;0.732975959777832;0.9759999513626099;-27.566875457763672;-31.90687370300293;101.62249755859375
1759;0.0;0.0;0.0;-0.09467199444770813;0.6744160056114197;0.9955199956893921;0.0;0.0;0.0
1761;0.0;0.0;0.0;-0.10247999429702759;0.6080479621887207;0.9799039959907532;0.0;0.0;0.0
1763;0.0;0.0;0.0;-0.08295999467372894;0.5690079927444458;0.9594079852104187;0.0;0.0;0.0
1765;-0.2281399965286255;0.7607919573783875;0.8559519648551941;-0.07905599474906921;0.5104479789733887;0.9555040001869202;-31.97687530517578;-28.896875381469727;109.18250274658203
1767;0.0;0.0;0.0;-0.07515199482440948;0.5104479789733887;0.9515999555587769;0.0;0.0;0.0
1769;0.0;0.0;0.0;-0.07905599474906921;0.42846399545669556;0.9389119744300842;0.0;0.0;0.0
1771;0.0;0.0;0.0;-0.08686399459838867;0.3972319960594177;0.9759999513626099;0.0;0.0;0.0
1773;-0.19690799713134766;0.5814520120620728;0.8356999754905701;-0.07124799489974976;0.38942399621009827;0.9720959663391113;-35.89687728881836;-17.556875228881836;113.3125
1776;0.0;0.0;0.0;-0.05563199892640114;0.36209598183631897;1.0043039321899414;0.0;0.0;0.0
1778;0.0;0.0;0.0;-0.08295999467372894;0.350383996963501;0.9955199956893921;0.0;0.0;0.0
1780;0.0;0.0;0.0;-0.11028799414634705;0.3113439977169037;0.9838079810142517;0.0;0.0;0.0
1782;-0.21130399405956268;0.4635999798774719;0.8588799834251404;-0.1180959939956665;0.3113439977169037;1.0043039321899414;-36.87687683105469;-2.0168750286102295;115.8324966430664
1784;0.0;0.0;0.0;-0.13371199369430542;0.28011199831962585;1.0082080364227295;0.0;0.0;0.0
1786;0.0;0.0;0.0;-0.13371199369430542;0.2566879987716675;1.0238239765167236;0.0;0.0;0.0
1788;0.0;0.0;0.0;-0.1600639969110489;0.21374399960041046;1.0570080280303955;0.0;0.0;0.0
1790;-0.25278398394584656;0.370635986328125;0.9013359546661377;-0.16787199676036835;0.10833600163459778;1.0404160022735596;-33.37687683105469;4.283125400543213;121.01249694824219
1793;0.0;0.0;0.0;-0.1298079937696457;0.07710400223731995;1.0491999387741089;0.0;0.0;0.0
1795;0.0;0.0;0.0;-0.2420479953289032;0.24107199907302856;1.1790080070495605;0.0;0.0;0.0
1797;0.0;0.0;0.0;-0.19910399615764618;-0.05953599885106087;1.0404160022735596;0.0;0.0;0.0
1799;-0.3140279948711395;0.24155999720096588;0.9755119681358337;-0.2147199958562851;0.18251200020313263;1.2151199579238892;-27.146875381469727;2.463124990463257;127.3125
1801;0.0;0.0;0.0;-0.23814399540424347;0.057583998888731;1.199504017829895;0.0;0.0;0.0
1803;0.0;0.0;0.0;-0.2810879945755005;-0.01659199967980385;1.1380159854888916;0.0;0.0;0.0
1805;0.0;0.0;0.0;-0.3084160089492798;-0.07124799489974976;1.134112000465393;0.0;0.0;0.0
1807;-0.37624800205230713;0.12712399661540985;1.0294359922409058;-0.24595199525356293;-0.09467199444770813;1.1624159812927246;-26.306875228881836;-3.976875066757202;132.7025146484375
1810;0.0;0.0;0.0;-0.21862399578094482;-0.13371199369430542;1.1956000328063965;0.0;0.0;0.0
1812;0.0;0.0;0.0;-0.2537599802017212;-0.17665599286556244;1.207311987876892;0.0;0.0;0.0
1814;0.0;0.0;0.0;-0.2967039942741394;-0.18055999279022217;1.2034080028533936;0.0;0.0;0.0
1816;-0.39015600085258484;-0.019276000559329987;1.0699399709701538;-0.33183997869491577;-0.2664479911327362;1.2278079986572266;-24.13687515258789;-9.576875686645508;135.43251037597656
1818;0.0;0.0;0.0;-0.3357439935207367;-0.2781600058078766;1.2678239345550537;0.0;0.0;0.0
1820;0.0;0.0;0.0;-0.38649600744247437;-0.3093920052051544;1.2961280345916748;0.0;0.0;0.0
1822;0.0;0.0;0.0;-0.4089439809322357;-0.3835679888725281;1.3088159561157227;0.0;0.0;0.0
1824;-0.49653998017311096;-0.1803160011768341;1.1385040283203125;-0.3972319960594177;-0.3835679888725281;1.2922239303588867;-27.286874771118164;-17.20687484741211;134.66250610351562
1827;0.0;0.0;0.0;-0.4167519807815552;-0.44993600249290466;1.2805119752883911;0.0;0.0;0.0
1829;0.0;0.0;0.0;-0.4050399959087372;-0.5475360155105591;1.2639199495315552;0.0;0.0;0.0
1831;0.0;0.0;0.0;-0.38259199261665344;-0.5943840146064758;1.2805119752883911;0.0;0.0;0.0
1833;-0.5314319729804993;-0.3879599869251251;1.1380159854888916;-0.4050399959087372;-0.6568480134010315;1.1907199621200562;-35.96687698364258;-31.346874237060547;130.18251037597656
1835;0.0;0.0;0.0;-0.32793599367141724;-0.6880800127983093;1.182911992073059;0.0;0.0;0.0
1837;0.0;0.0;0.0;-0.3201279938220978;-0.7583519816398621;1.175104022026062;0.0;0.0;0.0
1839;0.0;0.0;0.0;-0.30451199412345886;-0.8676639795303345;1.1380159854888916;0.0;0.0;0.0
1841;-0.4487159848213196;-0.6522119641304016;1.042855978012085;-0.27327999472618103;-0.9652639627456665;1.122399926185608;-41.706878662109375;-50.24687576293945;124.5824966430664
1844;0.0;0.0;0.0;-0.23814399540424347;-1.012112021446228;1.0687199831008911;0.0;0.0;0.0
1846;0.0;0.0;0.0;-0.187391996383667;-1.0823839902877808;1.0531039237976074;0.0;0.0;0.0
1848;0.0;0.0;0.0;-0.187391996383667;-1.1682720184326172;1.0570080280303955;0.0;0.0;0.0
1850;-0.32964399456977844;-0.9559919834136963;0.9381799697875977;-0.1298079937696457;-1.2268320322036743;1.0491999387741089;-43.66687774658203;-61.65687561035156;115.34249877929688
1852;0.0;0.0;0.0;-0.12199999392032623;-1.2736799716949463;1.0082080364227295;0.0;0.0;0.0
1854;0.0;0.0;0.0;-0.14444799721240997;-1.3517600297927856;1.0287039279937744;0.0;0.0;0.0
1856;0.0;0.0;0.0;-0.09857599437236786;-1.4142240285873413;1.012112021446228;0.0;0.0;0.0
1858;-0.24765999615192413;-1.207311987876892;0.9008479714393616;-0.0907679945230484;-1.4610719680786133;1.012112021446228;-48.2868766784668;-50.106876373291016;97.9124984741211
1861;0.0;0.0;0.0;-0.07905599474906921;-1.5079200267791748;1.0160160064697266;0.0;0.0;0.0
1863;0.0;0.0;0.0;-0.04782399907708168;-1.621135950088501;0.9633119702339172;0.0;0.0;0.0
1865;0.0;0.0;0.0;-0.04001599922776222;-1.5899039506912231;0.9799039959907532;0.0;0.0;0.0
1867;-0.18129199743270874;-1.4086120128631592;0.8637599945068359;-0.05953599885106087;-1.5469599962234497;0.9759999513626099;-52.97687530517578;-27.216875076293945;75.7925033569336
1869;0.0;0.0;0.0;-0.024399999529123306;-1.7265440225601196;0.9428159594535828;0.0;0.0;0.0
1871;0.0;0.0;0.0;-0.01268799975514412;-1.6562719345092773;0.9877119660377502;0.0;0.0;0.0
1873;0.0;0.0;0.0;-0.020495999604463577;-1.6601759195327759;0.9838079810142517;0.0;0.0;0.0
1875;-0.1349319964647293;-1.5523279905319214;0.8461920022964478;-0.03611199930310249;-1.769487977027893;0.9594079852104187;-51.366878509521484;-11.046875;55.42250061035156
1878;0.0;0.0;0.0;-0.01659199967980385;-1.8397599458694458;0.9594079852104187;0.0;0.0;0.0
1880;0.0;0.0;0.0;-0.07124799489974976;-1.8046239614486694;0.9711199998855591;0.0;0.0;0.0
1882;0.0;0.0;0.0;-0.05172799900174141;-1.8475679159164429;1.0160160064697266;0.0;0.0;0.0
1884;-0.1651879996061325;-1.6814039945602417;0.8518039584159851;-0.05172799900174141;-1.8553760051727295;0.9877119660377502;-42.47687530517578;-5.726874828338623;37.99250030517578
1886;0.0;0.0;0.0;-0.05563199892640114;-1.867087960243225;0.9672159552574158;0.0;0.0;0.0
1888;0.0;0.0;0.0;-0.020495999604463577;-1.8905119895935059;0.9955199956893921;0.0;0.0;0.0
1890;0.0;0.0;0.0;-0.04001599922776222;-1.898319959640503;0.9916160106658936;0.0;0.0;0.0
1892;-0.1668960005044937;-1.7548480033874512;0.8588799834251404;-0.04391999915242195;-1.9178400039672852;0.9555040001869202;-30.786874771118164;-8.176875114440918;19.862499237060547
1895;0.0;0.0;0.0;-0.01268799975514412;-1.9334559440612793;0.9515999555587769;0.0;0.0;0.0
1897;0.0;0.0;0.0;-0.00878399983048439;-1.9217439889907837;0.9311040043830872;0.0;0.0;0.0
1899;0.0;0.0;0.0;0.022447999566793442;-1.9139360189437866;0.8988959789276123;0.0;0.0;0.0
1901;-0.12517200410366058;-1.7863240242004395;0.8076399564743042;0.022447999566793442;-1.9178400039672852;0.9145119786262512;-17.13687515258789;-12.306875228881836;0.7524999976158142
1903;0.0;0.0;0.0;0.045871999114751816;-1.9022239446640015;0.8783999681472778;0.0;0.0;0.0
1905;0.0;0.0;0.0;0.07320000231266022;-1.8553760051727295;0.8500959873199463;0.0;0.0;0.0
1907;0.0;0.0;0.0;0.09662400186061859;-1.851472020149231;0.8413119912147522;0.0;0.0;0.0
1909;-0.049531999975442886;-1.7282519340515137;0.7434679865837097;0.12297599762678146;-1.816335916519165;0.8335039615631104;-1.1068750619888306;-18.88687515258789;-16.747499465942383
1912;0.0;0.0;0.0;0.10833600163459778;-1.816335916519165;0.8295999765396118;0.0;0.0;0.0
1914;0.0;0.0;0.0;0.14640000462532043;-1.7382559776306152;0.8051999807357788;0.0;0.0;0.0
1916;0.0;0.0;0.0;0.1424959897994995;-1.7265440225601196;0.7729920148849487;0.0;0.0;0.0
1918;0.024643998593091965;-1.6145479679107666;0.6802719831466675;0.1698240041732788;-1.6875039339065552;0.7642079591751099;12.963125228881836;-15.596875190734863;-33.19750213623047
1920;0.0;0.0;0.0;0.18934398889541626;-1.6328480243682861;0.7603039741516113;0.0;0.0;0.0
1922;0.0;0.0;0.0;0.1815359890460968;-1.582095980644226;0.8169119954109192;0.0;0.0;0.0
1924;0.0;0.0;0.0;0.22838398814201355;-1.5938079357147217;0.7847039699554443;0.0;0.0;0.0
1926;0.0802759975194931;-1.4598519802093506;0.6624599695205688;0.24009600281715393;-1.5118240118026733;0.7768959999084473;22.903125762939453;1.1331249475479126;-50.13750076293945
1929;0.0;0.0;0.0;0.2088640034198761;-1.4688799381256104;0.7729920148849487;0.0;0.0;0.0
1931;0.0;0.0;0.0;0.19715198874473572;-1.441551923751831;0.7847039699554443;0.0;0.0;0.0
1933;0.0;0.0;0.0;0.17763200402259827;-1.3634719848632812;0.8256959915161133;0.0;0.0;0.0
1935;0.07539600133895874;-1.2861239910125732;0.6817359924316406;0.18544000387191772;-1.3244320154190063;0.8461920022964478;30.673124313354492;24.653125762939453;-65.32749938964844
1937;0.0;0.0;0.0;0.17763200402259827;-1.2814879417419434;0.8901119828224182;0.0;0.0;0.0
1939;0.0;0.0;0.0;0.13468798995018005;-1.2268320322036743;0.8901119828224182;0.0;0.0;0.0
1941;0.0;0.0;0.0;0.13078400492668152;-1.1799839735031128;0.9223200082778931;0.0;0.0;0.0
1943;0.02000799961388111;-1.0865319967269897;0.773967981338501;0.09662400186061859;-1.1253279447555542;0.9311040043830872;35.08312225341797;43.69312286376953;-78.8375015258789
1946;0.0;0.0;0.0;0.11907199770212173;-1.051151990890503;0.9594079852104187;0.0;0.0;0.0
1948;0.0;0.0;0.0;0.09955199807882309;-1.019919991493225;1.0082080364227295;0.0;0.0;0.0
1950;0.0;0.0;0.0;0.06148799881339073;-0.945743978023529;1.012112021446228;0.0;0.0;0.0
1952;-0.03806399926543236;-0.8698599934577942;0.8630279898643494;0.03806399926543236;-0.9067040085792542;1.036512017250061;37.8131217956543;54.12312316894531;-89.6875
1954;0.0;0.0;0.0;0.0302559994161129;-0.8559519648551941;1.0570080280303955;0.0;0.0;0.0
1956;0.0;0.0;0.0;0.010735999792814255;-0.8364319801330566;1.073599934577942;0.0;0.0;0.0
1958;0.0;0.0;0.0;-0.024399999529123306;-0.7700639963150024;1.073599934577942;0.0;0.0;0.0
1961;-0.11907199770212173;-0.6839320063591003;0.9352520108222961;-0.020495999604463577;-0.7271199822425842;1.101904034614563;39.703125;53.2131233215332;-95.63749694824219
1963;0.0;0.0;0.0;-0.0634399950504303;-0.7154079675674438;1.146799921989441;0.0;0.0;0.0
1965;0.0;0.0;0.0;-0.07124799489974976;-0.6646559834480286;1.1380159854888916;0.0;0.0;0.0
1967;0.0;0.0;0.0;-0.07905599474906921;-0.6178079843521118;1.1907199621200562;0.0;0.0;0.0
1969;-0.1856839954853058;-0.5260639786720276;1.0211399793624878;-0.08686399459838867;-0.586575984954834;1.2151199579238892;38.93312454223633;48.453125;-99.69750213623047
1971;0.0;0.0;0.0;-0.11028799414634705;-0.5709599852561951;1.223904013633728;0.0;0.0;0.0
1973;0.0;0.0;0.0;-0.15225599706172943;-0.5670560002326965;1.2522079944610596;0.0;0.0;0.0
1975;0.0;0.0;0.0;-0.17958399653434753;-0.5045920014381409;1.272704005241394;0.0;0.0;0.0
1978;-0.25986000895500183;-0.4126040041446686;1.1145919561386108;-0.1756799966096878;-0.5006880164146423;1.2639199495315552;31.233125686645508;46.00312423706055;-104.45750427246094
1980;0.0;0.0;0.0;-0.16787199676036835;-0.4694559872150421;1.3371199369430542;0.0;0.0;0.0
1982;0.0;0.0;0.0;-0.16787199676036835;-0.4577440023422241;1.3166239261627197;0.0;0.0;0.0
1984;0.0;0.0;0.0;-0.19910399615764618;-0.4265120029449463;1.3010079860687256;0.0;0.0;0.0
1986;-0.30695199966430664;-0.31768798828125;1.182911992073059;-0.20691199600696564;-0.387472003698349;1.2961280345916748;19.61312484741211;39.2131233215332;-109.84750366210938
1988;0.0;0.0;0.0;-0.20691199600696564;-0.39528000354766846;1.3127199411392212;0.0;0.0;0.0
1990;0.0;0.0;0.0;-0.18348799645900726;-0.3640480041503906;1.3254079818725586;0.0;0.0;0.0
1992;0.0;0.0;0.0;-0.17177599668502808;-0.3484320044517517;1.3088159561157227;0.0;0.0;0.0
1995;-0.3213479816913605;-0.2525399923324585;1.18340003490448;-0.2030079960823059;-0.3757599890232086;1.3332159519195557;9.393125534057617;21.223125457763672;-115.1675033569336
1997;0.0;0.0;0.0;-0.1483519971370697;-0.3445279896259308;1.2961280345916748;0.0;0.0;0.0
1999;0.0;0.0;0.0;-0.1483519971370697;-0.3484320044517517;1.2766079902648926;0.0;0.0;0.0
2001;0.0;0.0;0.0;-0.1571359932422638;-0.3601439893245697;1.231711983680725;0.0;0.0;0.0
2003;-0.28426000475883484;-0.2042279988527298;1.1443599462509155;-0.1571359932422638;-0.29767999053001404;1.2112159729003906;-1.3168751001358032;3.583124876022339;-121.5374984741211
2005;0.0;0.0;0.0;-0.11028799414634705;-0.29767999053001404;1.1790080070495605;0.0;0.0;0.0
2007;0.0;0.0;0.0;-0.05172799900174141;-0.25863999128341675;1.158511996269226;0.0;0.0;0.0
2009;0.0;0.0;0.0;0.010735999792814255;-0.14932799339294434;1.150704026222229;0.0;0.0;0.0
2012;-0.1681160032749176;-0.09686800092458725;1.035048007965088;0.010735999792814255;-0.1454239934682846;1.0531039237976074;-8.176875114440918;-8.45687484741211;-128.04750061035156
2014;0.0;0.0;0.0;0.018543999642133713;-0.10638399422168732;1.019919991493225;0.0;0.0;0.0
2016;0.0;0.0;0.0;0.018543999642133713;-0.08686399459838867;0.9916160106658936;0.0;0.0;0.0
2018;0.0;0.0;0.0;0.0302559994161129;-0.07515199482440948;0.9672159552574158;0.0;0.0;0.0
2020;-0.09662400186061859;0.033427998423576355;0.87254399061203;0.08100800216197968;-0.04782399907708168;0.9428159594535828;-5.376874923706055;-11.53687572479248;-128.8874969482422
2022;0.0;0.0;0.0;0.12297599762678146;-0.020495999604463577;0.9594079852104187;0.0;0.0;0.0
2024;0.0;0.0;0.0;0.10443200170993805;-0.00878399983048439;0.9515999555587769;0.0;0.0;0.0
2026;0.0;0.0;0.0;0.10052800178527832;0.014639999717473984;0.9428159594535828;0.0;0.0;0.0
2029;-0.024399999529123306;0.13834799826145172;0.8234999775886536;0.09272000193595886;0.10833600163459778;1.0082080364227295;3.653125047683716;-5.936874866485596;-125.45750427246094
2031;0.0;0.0;0.0;0.11907199770212173;0.14347200095653534;0.9467200040817261;0.0;0.0;0.0
2033;0.0;0.0;0.0;0.03415999934077263;0.16299200057983398;0.9389119744300842;0.0;0.0;0.0
2035;0.0;0.0;0.0;0.03415999934077263;0.20983999967575073;0.9594079852104187;0.0;0.0;0.0
2037;-0.05050799995660782;0.29597198963165283;0.8378959894180298;0.03415999934077263;0.17470400035381317;0.9594079852104187;10.093125343322754;16.3231258392334;-122.65750122070312
2039;0.0;0.0;0.0;0.057583998888731;0.2332639992237091;1.0082080364227295;0.0;0.0;0.0
2041;0.0;0.0;0.0;0.03806399926543236;0.29182398319244385;1.0287039279937744;0.0;0.0;0.0
2043;0.0;0.0;0.0;-0.004879999905824661;0.35819199681282043;1.085312008857727;0.0;0.0;0.0
2046;-0.10174799710512161;0.4135800004005432;0.9191479682922363;-0.07515199482440948;0.33476799726486206;1.0892159938812256;17.79312515258789;37.53312301635742;-117.75749969482422
2048;0.0;0.0;0.0;-0.04001599922776222;0.447983980178833;1.158511996269226;0.0;0.0;0.0
2050;0.0;0.0;0.0;-0.07905599474906921;0.46750399470329285;1.1380159854888916;0.0;0.0;0.0
2052;0.0;0.0;0.0;-0.1298079937696457;0.5143519639968872;1.1428959369659424;0.0;0.0;0.0
2054;-0.20325200259685516;0.6100000143051147;1.0191879272460938;-0.12590399384498596;0.5729119777679443;1.2034080028533936;26.893125534057617;44.18312454223633;-109.2874984741211
2056;0.0;0.0;0.0;-0.14151999354362488;0.611952006816864;1.223904013633728;0.0;0.0;0.0
2058;0.0;0.0;0.0;-0.1600639969110489;0.6509919762611389;1.248304009437561;0.0;0.0;0.0
2060;0.0;0.0;0.0;-0.1454239934682846;0.709551990032196;1.2678239345550537;0.0;0.0;0.0
2063;-0.28181999921798706;0.7927559614181519;1.1145919561386108;-0.187391996383667;0.7446879744529724;1.3049119710922241;37.953125;33.68312454223633;-97.10749816894531
2065;0.0;0.0;0.0;-0.21081599593162537;0.7681120038032532;1.2766079902648926;0.0;0.0;0.0
2067;0.0;0.0;0.0;-0.20691199600696564;0.8071519732475281;1.3088159561157227;0.0;0.0;0.0
2069;0.0;0.0;0.0;-0.2420479953289032;0.920367956161499;1.3693280220031738;0.0;0.0;0.0
2071;-0.3213479816913605;0.9596520066261292;1.185107946395874;-0.17177599668502808;0.8735199570655823;1.3127199411392212;44.4631233215332;17.443126678466797;-83.10749816894531
2073;0.0;0.0;0.0;-0.15225599706172943;0.7642079591751099;1.3127199411392212;0.0;0.0;0.0
2075;0.0;0.0;0.0;-0.18348799645900726;0.9789279699325562;1.3976320028305054;0.0;0.0;0.0
2077;0.0;0.0;0.0;-0.15323199331760406;1.0648159980773926;1.4064159393310547;0.0;0.0;0.0
2080;-0.2823079824447632;1.0909240245819092;1.23390793800354;-0.17177599668502808;1.0804319381713867;1.3781119585037231;45.65312194824219;7.57312536239624;-72.67749786376953
2082;0.0;0.0;0.0;-0.17177599668502808;1.0960479974746704;1.3254079818725586;0.0;0.0;0.0
2084;0.0;0.0;0.0;-0.14054399728775024;1.1389919519424438;1.3205280303955078;0.0;0.0;0.0
2086;0.0;0.0;0.0;-0.09857599437236786;1.2014559507369995;1.3205280303955078;0.0;0.0;0.0
2088;-0.2588839828968048;1.2795360088348389;1.1936479806900024;-0.08686399459838867;1.2444000244140625;1.2922239303588867;43.483123779296875;-7.406874656677246;-60.63750076293945
2090;0.0;0.0;0.0;-0.10247999429702759;1.2444000244140625;1.297104001045227;0.0;0.0;0.0
2092;0.0;0.0;0.0;-0.07905599474906921;1.3107680082321167;1.2883199453353882;0.0;0.0;0.0
2094;0.0;0.0;0.0;-0.10638399422168732;1.3654239177703857;1.2766079902648926;0.0;0.0;0.0
2097;-0.2054480016231537;1.4371600151062012;1.1582679748535156;-0.07124799489974976;1.3888479471206665;1.272704005241394;44.8131217956543;-20.63687515258789;-46.91749954223633
2099;0.0;0.0;0.0;-0.06734399497509003;1.4395999908447266;1.2639199495315552;0.0;0.0;0.0
2101;0.0;0.0;0.0;-0.032207999378442764;1.4786399602890015;1.2639199495315552;0.0;0.0;0.0
2103;0.0;0.0;0.0;-0.01659199967980385;1.5450079441070557;1.256111979484558;0.0;0.0;0.0
2105;-0.16591998934745789;1.6199159622192383;1.1343560218811035;-0.04782399907708168;1.5879520177841187;1.248304009437561;42.08312225341797;-23.296875;-33.26750183105469
2107;0.0;0.0;0.0;-0.020495999604463577;1.6269919872283936;1.2190239429473877;0.0;0.0;0.0
2109;0.0;0.0;0.0;-0.04001599922776222;1.6582239866256714;1.2356159687042236;0.0;0.0;0.0
2111;0.0;0.0;0.0;-0.020495999604463577;1.7284959554672241;1.2034080028533936;0.0;0.0;0.0
2114;-0.14322799444198608;1.7992559671401978;1.1016600131988525;-0.01268799975514412;1.7480159997940063;1.223904013633728;38.02312469482422;-21.546875;-17.23750114440918
2116;0.0;0.0;0.0;-0.004879999905824661;1.7870559692382812;1.2112159729003906;0.0;0.0;0.0
2118;0.0;0.0;0.0;-0.00878399983048439;1.7987679243087769;1.2034080028533936;0.0;0.0;0.0
2120;0.0;0.0;0.0;-0.04782399907708168;1.8378080129623413;1.1956000328063965;0.0;0.0;0.0
2122;-0.13005200028419495;1.9500479698181152;1.083359956741333;-0.01659199967980385;1.8768479824066162;1.199504017829895;33.9631233215332;-21.126874923706055;3.552500009536743
2124;0.0;0.0;0.0;-0.024399999529123306;1.8885599374771118;1.2151199579238892;0.0;0.0;0.0
2126;0.0;0.0;0.0;-0.0009759999811649323;1.9119839668273926;1.207311987876892;0.0;0.0;0.0
2129;0.0;0.0;0.0;-0.024399999529123306;1.8924639225006104;1.2034080028533936;0.0;0.0;0.0
2131;-0.14591199159622192;2.0222718715667725;1.0721359252929688;-0.032207999378442764;1.8963679075241089;1.1907199621200562;28.013124465942383;-19.65687370300293;26.862499237060547
2133;0.0;0.0;0.0;-0.028303999453783035;1.8690400123596191;1.1907199621200562;0.0;0.0;0.0
2135;0.0;0.0;0.0;-0.04782399907708168;1.8885599374771118;1.1790080070495605;0.0;0.0;0.0
2137;0.0;0.0;0.0;-0.05172799900174141;1.8378080129623413;1.207311987876892;0.0;0.0;0.0
2139;-0.16372399032115936;1.9986039400100708;1.0704280138015747;-0.07515199482440948;1.8378080129623413;1.199504017829895;20.243125915527344;-16.156875610351562;49.962501525878906
2141;0.0;0.0;0.0;-0.11419199407100677;1.7987679243087769;1.231711983680725;0.0;0.0;0.0
2143;0.0;0.0;0.0;-0.10638399422168732;1.7870559692382812;1.2278079986572266;0.0;0.0;0.0
2146;0.0;0.0;0.0;-0.0907679945230484;1.7167840003967285;1.231711983680725;0.0;0.0;0.0
2148;-0.22033199667930603;1.902467966079712;1.0884839296340942;-0.11028799414634705;1.6972639560699463;1.231711983680725;9.323124885559082;-17.486873626708984;70.40249633789062
2150;0.0;0.0;0.0;-0.11028799414634705;1.6894559860229492;1.2112159729003906;0.0;0.0;0.0
2152;0.0;0.0;0.0;-0.12199999392032623;1.66212797164917;1.231711983680725;0.0;0.0;0.0
2154;0.0;0.0;0.0;-0.1483519971370697;1.6113759279251099;1.2200000286102295;0.0;0.0;0.0
2156;-0.2500999867916107;1.7785159349441528;1.0926319360733032;-0.1756799966096878;1.5684319734573364;1.2112159729003906;-5.866875171661377;-20.49687385559082;86.2925033569336
2158;0.0;0.0;0.0;-0.1483519971370697;1.5450079441070557;1.2112159729003906;0.0;0.0;0.0
2160;0.0;0.0;0.0;-0.1483519971370697;1.525488018989563;1.223904013633728;0.0;0.0;0.0
2163;0.0;0.0;0.0;-0.1756799966096878;1.4591199159622192;1.2278079986572266;0.0;0.0;0.0
2165;-0.28938400745391846;1.645535945892334;1.0794559717178345;-0.17958399653434753;1.4317920207977295;1.1956000328063965;-22.316875457763672;-23.576873779296875;100.15249633789062
2167;0.0;0.0;0.0;-0.18348799645900726;1.384943962097168;1.1956000328063965;0.0;0.0;0.0
2169;0.0;0.0;0.0;-0.2147199958562851;1.3146719932556152;1.1907199621200562;0.0;0.0;0.0
2171;0.0;0.0;0.0;-0.20691199600696564;1.2912479639053345;1.2034080028533936;0.0;0.0;0.0
2173;-0.3352559804916382;1.4610719680786133;1.0701839923858643;-0.24595199525356293;1.2404959201812744;1.2034080028533936;-38.766876220703125;-25.81687355041504;113.3125
2175;0.0;0.0;0.0;-0.2654719948768616;1.1702239513397217;1.1946239471435547;0.0;0.0;0.0
2177;0.0;0.0;0.0;-0.2967039942741394;1.150704026222229;1.182911992073059;0.0;0.0;0.0
2180;0.0;0.0;0.0;-0.2967039942741394;1.0726239681243896;1.146799921989441;0.0;0.0;0.0
2182;-0.399183988571167;1.2580640316009521;1.0472480058670044;-0.30451199412345886;1.0140639543533325;1.1428959369659424;-53.32687759399414;-28.056875228881836;125.14250183105469
2184;0.0;0.0;0.0;-0.30060797929763794;0.9398880004882812;1.1380159854888916;0.0;0.0;0.0
2186;0.0;0.0;0.0;-0.30060797929763794;0.8344799876213074;1.0970239639282227;0.0;0.0;0.0
2188;0.0;0.0;0.0;-0.2967039942741394;0.7524960041046143;1.0814080238342285;0.0;0.0;0.0
2190;-0.42675599455833435;0.9657520055770874;0.9679479598999023;-0.27718400955200195;0.6470879912376404;1.0570080280303955;-61.9368782043457;-42.266876220703125;137.88250732421875
2192;0.0;0.0;0.0;-0.2654719948768616;0.5690079927444458;1.0043039321899414;0.0;0.0;0.0
2194;0.0;0.0;0.0;-0.27327999472618103;0.4753119945526123;1.0003999471664429;0.0;0.0;0.0
2197;0.0;0.0;0.0;-0.284991979598999;0.3659999966621399;0.9759999513626099;0.0;0.0;0.0
2199;-0.3955239951610565;0.6104879975318909;0.8742519617080688;-0.30060797929763794;0.30353599786758423;0.9476959705352783;-63.616878509521484;-53.606876373291016;148.73251342773438
2201;0.0;0.0;0.0;-0.23814399540424347;0.2566879987716675;0.9389119744300842;0.0;0.0;0.0
2203;0.0;0.0;0.0;-0.2537599802017212;0.10833600163459778;0.8783999681472778;0.0;0.0;0.0
2205;0.0;0.0;0.0;-0.3084160089492798;-0.0009759999811649323;0.8744959831237793;0.0;0.0;0.0
2207;-0.403331995010376;0.24692799150943756;0.7773839831352234;-0.284991979598999;-0.07124799489974976;0.8744959831237793;-60.676876068115234;-58.15687561035156;156.29251098632812
2209;0.0;0.0;0.0;-0.230335995554924;-0.16884799301624298;0.8413119912147522;0.0;0.0;0.0
2211;0.0;0.0;0.0;-0.20691199600696564;-0.22740799188613892;0.8256959915161133;0.0;0.0;0.0
2214;0.0;0.0;0.0;-0.2420479953289032;-0.35233598947525024;0.7973920106887817;0.0;0.0;0.0
2216;-0.34867599606513977;-0.1332239955663681;0.69759601354599;-0.21081599593162537;-0.5241119861602783;0.7563999891281128;-54.09687805175781;-60.25687789916992;160.1425018310547
2218;0.0;0.0;0.0;-0.2030079960823059;-0.32500800490379333;0.8783999681472778;0.0;0.0;0.0
2220;0.0;0.0;0.0;-0.2576639950275421;-0.6958879828453064;0.6919839978218079;0.0;0.0;0.0
2222;0.0;0.0;0.0;-0.1600639969110489;-0.6373279690742493;0.7886079549789429;0.0;0.0;0.0
2224;-0.32330000400543213;-0.44139599800109863;0.6551399827003479;-0.16396799683570862;-0.7154079675674438;0.7768959999084473;-44.71687698364258;-64.24687194824219;161.1225128173828
2226;0.0;0.0;0.0;-0.14444799721240997;-0.9223200082778931;0.6792960166931152;0.0;0.0;0.0
2228;0.0;0.0;0.0;-0.230335995554924;-1.066767930984497;0.6392799615859985;0.0;0.0;0.0
2231;0.0;0.0;0.0;-0.12199999392032623;-1.1838879585266113;0.6548959612846375;0.0;0.0;0.0
2233;-0.27669599652290344;-0.9142679572105408;0.5499759912490845;-0.10247999429702759;-1.2658720016479492;0.6792960166931152;-39.5368766784668;-65.08687591552734;158.18251037597656
2235;0.0;0.0;0.0;-0.04001599922776222;-1.3986079692840576;0.6627039909362793;0.0;0.0;0.0
2237;0.0;0.0;0.0;-0.03611199930310249;-1.4923039674758911;0.6753919720649719;0.0;0.0;0.0
2239;0.0;0.0;0.0;0.0029279999434947968;-1.5508639812469482;0.748591959476471;0.0;0.0;0.0
2241;-0.15835599601268768;-1.33980393409729;0.5851119756698608;-0.04782399907708168;-1.6562719345092773;0.7398079633712769;-35.05687713623047;-43.0368766784668;142.9925079345703
2243;0.0;0.0;0.0;-0.0009759999811649323;-1.7890080213546753;0.7934879660606384;0.0;0.0;0.0
2245;0.0;0.0;0.0;-0.004879999905824661;-1.8787999153137207;0.8256959915161133;0.0;0.0;0.0
2248;0.0;0.0;0.0;0.006831999868154526;-1.9646879434585571;0.8461920022964478;0.0;0.0;0.0
2250;-0.13298000395298004;-1.7238600254058838;0.6995480060577393;0.010735999792814255;-2.0544800758361816;0.9067040085792542;-41.00687789916992;-3.486875057220459;118.14250183105469
2252;0.0;0.0;0.0;-0.03611199930310249;-2.171599864959717;0.9271999597549438;0.0;0.0;0.0
2254;0.0;0.0;0.0;-0.05563199892640114;-2.2418720722198486;0.9799039959907532;0.0;0.0;0.0
2256;0.0;0.0;0.0;-0.10247999429702759;-2.358991861343384;1.0247999429702759;0.0;0.0;0.0
2258;-0.1890999972820282;-2.106207847595215;0.8503400087356567;-0.08295999467372894;-2.456591844558716;1.0531039237976074;-50.456878662109375;35.85312271118164;87.13249969482422
2261;0.0;0.0;0.0;-0.1600639969110489;-2.5034399032592773;1.1419199705123901;0.0;0.0;0.0
2262;0.0;0.0;0.0;-0.17177599668502808;-2.6244640350341797;1.182911992073059;0.0;0.0;0.0
2265;0.0;0.0;0.0;-0.21081599593162537;-2.647887945175171;1.2190239429473877;0.0;0.0;0.0
2267;-0.3169559836387634;-2.451956033706665;1.0482239723205566;-0.26156800985336304;-2.7259678840637207;1.2434239387512207;-55.706878662109375;59.37312316894531;51.712501525878906
2269;0.0;0.0;0.0;-0.3084160089492798;-2.7923359870910645;1.3010079860687256;0.0;0.0;0.0
2271;0.0;0.0;0.0;-0.33183997869491577;-2.7923359870910645;1.3088159561157227;0.0;0.0;0.0
2273;0.0;0.0;0.0;-0.3396480083465576;-2.8118560314178467;1.3332159519195557;0.0;0.0;0.0
2275;-0.4467639923095703;-2.659355878829956;1.173151969909668;-0.3786879777908325;-2.850895881652832;1.3166239261627197;-53.74687576293945;53.28312301635742;14.962499618530273
2277;0.0;0.0;0.0;-0.35916799306869507;-2.8743200302124023;1.3127199411392212;0.0;0.0;0.0
2279;0.0;0.0;0.0;-0.3786879777908325;-2.850895881652832;1.2766079902648926;0.0;0.0;0.0
2282;0.0;0.0;0.0;-0.3201279938220978;-2.8782238960266113;1.2278079986572266;0.0;0.0;0.0
2284;-0.4694559872150421;-2.7318239212036133;1.1360639333724976;-0.29280000925064087;-2.8938398361206055;1.2034080028533936;-39.81687545776367;8.133124351501465;-15.697500228881836
2286;0.0;0.0;0.0;-0.2654719948768616;-2.827471971511841;1.1624159812927246;0.0;0.0;0.0
2288;0.0;0.0;0.0;-0.22643199563026428;-2.827471971511841;1.0814080238342285;0.0;0.0;0.0
2290;0.0;0.0;0.0;-0.19910399615764618;-2.7845280170440674;1.0531039237976074;0.0;0.0;0.0
2292;-0.34989598393440247;-2.6735079288482666;0.9628239870071411;-0.12590399384498596;-2.757200002670288;0.9428159594535828;-19.026874542236328;-46.606876373291016;-43.34749984741211
2294;0.0;0.0;0.0;-0.08295999467372894;-2.7142560482025146;0.8783999681472778;0.0;0.0;0.0
2296;0.0;0.0;0.0;-0.032207999378442764;-2.6283679008483887;0.7807999849319458;0.0;0.0;0.0
2299;0.0;0.0;0.0;0.07320000231266022;-2.57371187210083;0.7163839936256409;0.0;0.0;0.0
2301;-0.1361519992351532;-2.500756025314331;0.680027961730957;0.1268799901008606;-2.4995360374450684;0.6148799657821655;-2.5068750381469727;-75.16687774658203;-74.00749969482422
2303;0.0;0.0;0.0;0.18544000387191772;-2.4097440242767334;0.5416799783706665;0.0;0.0;0.0
2305;0.0;0.0;0.0;0.236191987991333;-2.3394720554351807;0.45579198002815247;0.0;0.0;0.0
2307;0.0;0.0;0.0;0.25571200251579285;-2.2496800422668457;0.35916799306869507;0.0;0.0;0.0
2309;0.11394799500703812;-2.191119909286499;0.3320840001106262;0.32598400115966797;-2.109135866165161;0.2898719906806946;16.3231258392334;-80.20687866210938;-101.23750305175781
2312;0.0;0.0;0.0;0.3601439893245697;-2.0232479572296143;0.2205759882926941;0.0;0.0;0.0
2314;0.0;0.0;0.0;0.4030880033969879;-1.9295519590377808;0.17665599286556244;0.0;0.0;0.0
2316;0.0;0.0;0.0;0.4655520021915436;-1.8046239614486694;0.12785600125789642;0.0;0.0;0.0
2318;0.28669998049736023;-1.7689999341964722;0.07002799957990646;0.44993600249290466;-1.6835999488830566;0.0907679945230484;40.893123626708984;-71.45687866210938;-119.0875015258789
2320;0.0;0.0;0.0;0.5123999714851379;-1.5391520261764526;0.09955199807882309;0.0;0.0;0.0
2322;0.0;0.0;0.0;0.5475360155105591;-1.433743953704834;0.115167997777462;0.0;0.0;0.0
2324;0.0;0.0;0.0;0.5709599852561951;-1.3127199411392212;0.12004800140857697;0.0;0.0;0.0
2326;0.4130919873714447;-1.2890520095825195;-0.0029279999434947968;0.5592479705810547;-1.1838879585266113;0.11126399785280228;59.37312316894531;-31.696874618530273;-132.66749572753906
2328;0.0;0.0;0.0;0.5709599852561951;-1.051151990890503;0.1239520013332367;0.0;0.0;0.0
2330;0.0;0.0;0.0;0.5904799699783325;-0.8988959789276123;0.14444799721240997;0.0;0.0;0.0
2333;0.0;0.0;0.0;0.586575984954834;-0.7973920106887817;0.18055999279022217;0.0;0.0;0.0
2335;0.4596959948539734;-0.7810440063476562;0.04294399917125702;0.586575984954834;-0.6646559834480286;0.2088640034198761;66.02312469482422;37.393123626708984;-144.3574981689453
2337;0.0;0.0;0.0;0.5358240008354187;-0.5748639702796936;0.24107199907302856;0.0;0.0;0.0
2339;0.0;0.0;0.0;0.4967840015888214;-0.4772639870643616;0.2820639908313751;0.0;0.0;0.0
2341;0.0;0.0;0.0;0.4108960032463074;-0.4108960032463074;0.3269599974155426;0.0;0.0;0.0
2343;0.3491639792919159;-0.3525799810886383;0.16860400140285492;0.35233598947525024;-0.3172000050544739;0.4079679846763611;69.38312530517578;106.5531234741211;-146.8774871826172
2346;0.0;0.0;0.0;0.2908479869365692;-0.25863999128341675;0.48897600173950195;0.0;0.0;0.0
2347;0.0;0.0;0.0;0.23228800296783447;-0.16494399309158325;0.5738880038261414;0.0;0.0;0.0
2350;0.0;0.0;0.0;0.1698240041732788;-0.08686399459838867;0.6753919720649719;0.0;0.0;0.0
2352;0.10589599609375;-0.02635199949145317;0.46457600593566895;0.10735999792814255;-0.020495999604463577;0.7603039741516113;72.3231201171875;156.953125;-142.46749877929688
2354;0.0;0.0;0.0;0.0302559994161129;0.045871999114751816;0.8618080019950867;0.0;0.0;0.0
2356;0.0;0.0;0.0;-0.04391999915242195;0.1512800008058548;0.9672159552574158;0.0;0.0;0.0
2358;0.0;0.0;0.0;-0.09857599437236786;0.1786080002784729;1.073599934577942;0.0;0.0;0.0
2360;-0.1576239913702011;0.24985599517822266;0.8452159762382507;-0.13761599361896515;0.22545599937438965;1.150704026222229;65.53312683105469;188.94313049316406;-138.40748596191406
2363;0.0;0.0;0.0;-0.2147199958562851;0.2996319830417633;1.272704005241394;0.0;0.0;0.0
2365;0.0;0.0;0.0;-0.33183997869491577;0.3542879819869995;1.3537119626998901;0.0;0.0;0.0
2367;0.0;0.0;0.0;-0.3786879777908325;0.42455998063087463;1.474735975265503;0.0;0.0;0.0
2369;-0.4289519786834717;0.4945879876613617;1.2243919372558594;-0.4635999798774719;0.49483197927474976;1.5518399477005005;51.11312484741211;199.0231170654297;-136.79750061035156
2371;0.0;0.0;0.0;-0.4909279942512512;0.5494880080223083;1.588927984237671;0.0;0.0;0.0
2373;0.0;0.0;0.0;-0.5416799783706665;0.5846239924430847;1.6816480159759521;0.0;0.0;0.0
2375;0.0;0.0;0.0;-0.5651040077209473;0.6627039909362793;1.718735933303833;0.0;0.0;0.0
