Timestamp(ms);LG-Accel x(g);LG-Accel y(g);LG-Accel z(g);HG-Accel x(g);HG-Accel y(g);HG-Accel z(g);Gyro x(dps);Gyro y(dps);Gyro z(dps)
68;0.0;0.0;0.0;0.27035200595855713;0.03513599932193756;1.0960479974746704;0.0;0.0;0.0
70;0.0;0.0;0.0;0.25863999128341675;0.10150399804115295;1.140944004058838;0.0;0.0;0.0
72;0.0;0.0;0.0;0.20788799226284027;0.15615999698638916;1.173151969909668;0.0;0.0;0.0
75;0.0;0.0;0.0;0.24692799150943756;0.18348799645900726;1.165343999862671;0.0;0.0;0.0
77;0.0;0.0;0.0;0.2781600058078766;0.27327999472618103;1.1526559591293335;0.0;0.0;0.0
79;0.0;0.0;0.0;0.28889599442481995;0.31036800146102905;1.146799921989441;0.0;0.0;0.0
81;0.0;0.0;0.0;0.30060797929763794;0.36502400040626526;1.1916959285736084;0.0;0.0;0.0
83;0.0;0.0;0.0;0.2537599802017212;0.411871999502182;1.207311987876892;0.0;0.0;0.0
85;0.15054799616336823;0.4999559819698334;1.0521279573440552;0.2030079960823059;0.45871999859809875;1.272704005241394;0.0;0.0;0.0
87;0.0;0.0;0.0;0.14444799721240997;0.5250880122184753;1.297104001045227;0.0;0.0;0.0
89;0.0;0.0;0.0;0.13663999736309052;0.5524159669876099;1.3049119710922241;0.0;0.0;0.0
92;0.0;0.0;0.0;0.06734399497509003;0.6148799657821655;1.3498079776763916;0.0;0.0;0.0
94;-0.0004879999905824661;0.6985719799995422;1.1846200227737427;0.04391999915242195;0.6695359945297241;1.401535987854004;0.0;0.0;0.0
96;0.0;0.0;0.0;-0.009759999811649323;0.708575963973999;1.4220319986343384;0.0;0.0;0.0
98;0.0;0.0;0.0;0.0019519999623298645;0.708575963973999;1.5001119375228882;0.0;0.0;0.0
100;0.0;0.0;0.0;-0.02147199958562851;0.7476159930229187;1.5528159141540527;0.0;0.0;0.0
102;-0.12712399661540985;0.8532679677009583;1.3429759740829468;-0.04879999905824661;0.7827519774436951;1.5772159099578857;0.0;0.0;0.0
104;0.0;0.0;0.0;-0.10735999792814255;0.8022719621658325;1.6299200057983398;0.0;0.0;0.0
106;0.0;0.0;0.0;-0.13078400492668152;0.7827519774436951;1.6904319524765015;0.0;0.0;0.0
109;0.0;0.0;0.0;-0.16494399309158325;0.8022719621658325;1.735327959060669;0.0;0.0;0.0
111;-0.25742000341415405;0.937936007976532;1.545740008354187;-0.2235039919614792;0.8178879618644714;1.776319980621338;0.0;0.0;0.0
113;0.0;0.0;0.0;-0.24692799150943756;0.8256959915161133;1.808527946472168;0.0;0.0;0.0
115;0.0;0.0;0.0;-0.27425599098205566;0.8295999765396118;1.849519968032837;0.0;0.0;0.0
117;0.0;0.0;0.0;-0.3328160047531128;0.8100799918174744;1.8934400081634521;0.0;0.0;0.0
119;-0.38966798782348633;0.944767951965332;1.7072679996490479;-0.3211039900779724;0.8100799918174744;1.9139360189437866;0.0;0.0;0.0
121;0.0;0.0;0.0;-0.32500800490379333;0.7944639921188354;1.9383360147476196;0.0;0.0;0.0
123;0.0;0.0;0.0;-0.37088000774383545;0.7632319927215576;1.9627360105514526;0.0;0.0;0.0
126;0.0;0.0;0.0;-0.35916799306869507;0.7319999933242798;1.9705439805984497;0.0;0.0;0.0
128;-0.4660399854183197;0.8891359567642212;1.8180439472198486;-0.3786879777908325;0.700767993927002;1.9910399913787842;25.77312469482422;61.989376068115234;22.706249237060547
130;0.0;0.0;0.0;-0.3669759929180145;0.6734399795532227;2.0027520656585693;0.0;0.0;0.0
132;0.0;0.0;0.0;-0.4021120071411133;0.6265919804573059;1.9705439805984497;0.0;0.0;0.0
134;0.0;0.0;0.0;-0.3903999924659729;0.5914559960365295;1.9783519506454468;0.0;0.0;0.0
136;-0.505079984664917;0.7588399648666382;1.8268280029296875;-0.3357439935207367;0.5524159669876099;1.9422399997711182;1.9031249284744263;24.399375915527344;26.626249313354492
138;0.0;0.0;0.0;-0.32500800490379333;0.5289919972419739;1.889535903930664;0.0;0.0;0.0
140;0.0;0.0;0.0;-0.28596800565719604;0.47043198347091675;1.8290239572525024;0.0;0.0;0.0
143;0.0;0.0;0.0;-0.2664479911327362;0.4899519979953766;1.8290239572525024;0.0;0.0;0.0
145;-0.4152880012989044;0.6304959654808044;1.7101960182189941;-0.24302399158477783;0.4626239836215973;1.776319980621338;-17.836875915527344;-18.23062515258789;30.546249389648438
147;0.0;0.0;0.0;-0.2088640034198761;0.423583984375;1.6992160081863403;0.0;0.0;0.0
149;0.0;0.0;0.0;-0.20105600357055664;0.45871999859809875;1.6953120231628418;0.0;0.0;0.0
151;0.0;0.0;0.0;-0.19324800372123718;0.4352959990501404;1.6299200057983398;0.0;0.0;0.0
153;-0.32378798723220825;0.5709599852561951;1.545740008354187;-0.17372798919677734;0.3845439851284027;1.5928319692611694;-30.996875762939453;-51.34062194824219;36.35625076293945
155;0.0;0.0;0.0;-0.15811198949813843;0.4001599848270416;1.547935962677002;0.0;0.0;0.0
157;0.0;0.0;0.0;-0.1512800008058548;0.3416000008583069;1.499135971069336;0.0;0.0;0.0
160;0.0;0.0;0.0;-0.11614400148391724;0.30646398663520813;1.425935983657837;0.0;0.0;0.0
162;-0.2640079855918884;0.4789719879627228;1.3607879877090454;-0.0849120020866394;0.2869440019130707;1.4220319986343384;-42.616878509521484;-71.22062683105469;43.07624816894531
164;0.0;0.0;0.0;-0.10052800178527832;0.236191987991333;1.3410239219665527;0.0;0.0;0.0
166;0.0;0.0;0.0;-0.0849120020866394;0.19715198874473572;1.32150399684906;0.0;0.0;0.0
168;0.0;0.0;0.0;-0.10443200170993805;0.21667200326919556;1.2766079902648926;0.0;0.0;0.0
170;-0.2000799924135208;0.35989999771118164;1.1848639249801636;-0.057583998888731;0.1815359890460968;1.2600159645080566;-50.946876525878906;-77.94062042236328;49.096248626708984
172;0.0;0.0;0.0;-0.057583998888731;0.1424959897994995;1.223904013633728;0.0;0.0;0.0
174;0.0;0.0;0.0;-0.06148799881339073;0.13859200477600098;1.158511996269226;0.0;0.0;0.0
177;0.0;0.0;0.0;-0.022447999566793442;0.09564799815416336;1.1389919519424438;0.0;0.0;0.0
179;-0.177387997508049;0.2581520080566406;1.0477359294891357;-0.053679998964071274;0.02537599951028824;1.097999930381775;-57.0368766784668;-82.9106216430664;53.01625061035156
181;0.0;0.0;0.0;-0.06148799881339073;-0.0019519999623298645;1.073599934577942;0.0;0.0;0.0
183;0.0;0.0;0.0;-0.07710400223731995;-0.05270399898290634;1.0043039321899414;0.0;0.0;0.0
185;0.0;0.0;0.0;-0.0849120020866394;-0.09955199807882309;0.9964959621429443;0.0;0.0;0.0
187;-0.1856839954853058;0.07124799489974976;0.8913319706916809;-0.06929600238800049;-0.16591998934745789;0.9359839558601379;-60.81687545776367;-86.97062683105469;56.866249084472656
189;0.0;0.0;0.0;-0.06929600238800049;-0.21276798844337463;0.9193919897079468;0.0;0.0;0.0
191;0.0;0.0;0.0;-0.07320000231266022;-0.21276798844337463;0.9076799750328064;0.0;0.0;0.0
194;0.0;0.0;0.0;-0.09272000193595886;-0.19715198874473572;0.9037759900093079;0.0;0.0;0.0
196;-0.1890999972820282;-0.08954799920320511;0.7620120048522949;-0.02635199949145317;-0.3572160005569458;0.7700639963150024;-59.206878662109375;-87.390625;55.466251373291016
198;0.0;0.0;0.0;-0.09662400186061859;-0.2908479869365692;0.8022719621658325;0.0;0.0;0.0
200;0.0;0.0;0.0;-0.06929600238800049;-0.3142719864845276;0.732975959777832;0.0;0.0;0.0
202;0.0;0.0;0.0;0.01268799975514412;-0.3337920010089874;0.6880800127983093;0.0;0.0;0.0
204;-0.15933199226856232;-0.1856839954853058;0.5980439782142639;0.05563199892640114;-0.39235198497772217;0.6158559918403625;-52.696876525878906;-91.2406234741211;53.92625045776367
207;0.0;0.0;0.0;-0.006831999868154526;-0.3572160005569458;0.5914559960365295;0.0;0.0;0.0
208;0.0;0.0;0.0;0.05563199892640114;-0.33769598603248596;0.5338720083236694;0.0;0.0;0.0
211;0.0;0.0;0.0;0.07515199482440948;-0.3455039858818054;0.49775999784469604;0.0;0.0;0.0
213;-0.07930000126361847;-0.22203999757766724;0.4101639986038208;0.0634399950504303;-0.3728320002555847;0.42846399545669556;-36.176876068115234;-95.5106201171875;56.72624969482422
215;0.0;0.0;0.0;0.1210239976644516;-0.36111998558044434;0.3962559998035431;0.0;0.0;0.0
217;0.0;0.0;0.0;0.1180959939956665;-0.3533119857311249;0.3640480041503906;0.0;0.0;0.0
219;0.0;0.0;0.0;0.1756799966096878;-0.37673598527908325;0.33183997869491577;0.0;0.0;0.0
221;0.016835998743772507;-0.23399598896503448;0.24155999720096588;0.16787199676036835;-0.3962559998035431;0.2908479869365692;-14.196874618530273;-99.0106201171875;63.72624969482422
224;0.0;0.0;0.0;0.1756799966096878;-0.3728320002555847;0.23423999547958374;0.0;0.0;0.0
225;0.0;0.0;0.0;0.1600639969110489;-0.3845439851284027;0.22155199944972992;0.0;0.0;0.0
228;0.0;0.0;0.0;0.22643199563026428;-0.37673598527908325;0.19715198874473572;0.0;0.0;0.0
230;0.07124799489974976;-0.23692399263381958;0.10638399422168732;0.21862399578094482;-0.33769598603248596;0.18544000387191772;8.483124732971191;-96.77062225341797;73.17625427246094
232;0.0;0.0;0.0;0.2391199916601181;-0.3416000008583069;0.1727519929409027;0.0;0.0;0.0
234;0.0;0.0;0.0;0.21569599211215973;-0.3298879861831665;0.1483519971370697;0.0;0.0;0.0
236;0.0;0.0;0.0;0.2664479911327362;-0.33769598603248596;0.15323199331760406;0.0;0.0;0.0
238;0.11297199875116348;-0.20203199982643127;0.03611199930310249;0.2820639908313751;-0.33769598603248596;0.14054399728775024;24.373125076293945;-87.32062530517578;81.36625671386719
240;0.0;0.0;0.0;0.30158400535583496;-0.3298879861831665;0.1327359974384308;0.0;0.0;0.0
243;0.0;0.0;0.0;0.30158400535583496;-0.3416000008583069;0.1327359974384308;0.0;0.0;0.0
245;0.0;0.0;0.0;0.3328160047531128;-0.39235198497772217;0.13663999736309052;0.0;0.0;0.0
247;0.18861199915409088;-0.2256999909877777;0.024156000465154648;0.33671998977661133;-0.41577598452568054;0.17763200402259827;27.943124771118164;-68.07062530517578;89.41625213623047
249;0.0;0.0;0.0;0.34355199337005615;-0.44310399889945984;0.1815359890460968;0.0;0.0;0.0
251;0.0;0.0;0.0;0.34355199337005615;-0.5172799825668335;0.205935999751091;0.0;0.0;0.0
253;0.0;0.0;0.0;0.3474559783935547;-0.5524159669876099;0.2547360062599182;0.0;0.0;0.0
255;0.22618798911571503;-0.3652679920196533;0.10638399422168732;0.35526400804519653;-0.610975980758667;0.27425599098205566;20.103124618530273;-29.0106258392334;95.36625671386719
257;0.0;0.0;0.0;0.33183997869491577;-0.6812480092048645;0.3152479827404022;0.0;0.0;0.0
260;0.0;0.0;0.0;0.22643199563026428;-0.7202879786491394;0.44896000623703003;0.0;0.0;0.0
262;0.0;0.0;0.0;0.2147199958562851;-0.8217920064926147;0.48507198691368103;0.0;0.0;0.0
264;0.1320039927959442;-0.6034119725227356;0.2832840085029602;0.15615999698638916;-0.895967960357666;0.5582720041275024;3.3731250762939453;16.839374542236328;96.41625213623047
266;0.0;0.0;0.0;0.14444799721240997;-1.0013760328292847;0.5338720083236694;0.0;0.0;0.0
268;0.0;0.0;0.0;0.05172799900174141;-1.0872639417648315;0.6031680107116699;0.0;0.0;0.0
270;0.0;0.0;0.0;0.03611199930310249;-1.2160959243774414;0.6314719915390015;0.0;0.0;0.0
272;-0.04294399917125702;-0.9667279720306396;0.47262799739837646;0.01659199967980385;-1.2980799674987793;0.659775972366333;-20.006874084472656;34.759376525878906;93.26625061035156
275;0.0;0.0;0.0;0.05172799900174141;-1.45033597946167;0.676367998123169;0.0;0.0;0.0
277;0.0;0.0;0.0;0.04391999915242195;-1.5518399477005005;0.7290719747543335;0.0;0.0;0.0
279;0.0;0.0;0.0;0.07515199482440948;-1.6728639602661133;0.7778719663619995;0.0;0.0;0.0
281;-0.06026799976825714;-1.4198359251022339;0.5992639660835266;0.08295999467372894;-1.7782719135284424;0.7934879660606384;-40.026878356933594;27.339374542236328;82.27625274658203
283;0.0;0.0;0.0;0.10247999429702759;-1.8719679117202759;0.8178879618644714;0.0;0.0;0.0
285;0.0;0.0;0.0;0.07515199482440948;-1.9500479698181152;0.8510719537734985;0.0;0.0;0.0
287;0.0;0.0;0.0;0.1210239976644516;-2.035935878753662;0.8500959873199463;0.0;0.0;0.0
289;-0.02757199853658676;-1.8165799379348755;0.6983279585838318;0.05563199892640114;-2.125727891921997;0.8744959831237793;-53.32687759399414;18.589374542236328;63.79624938964844
292;0.0;0.0;0.0;0.08295999467372894;-2.215519905090332;0.8627839684486389;0.0;0.0;0.0
294;0.0;0.0;0.0;0.09467199444770813;-2.293599843978882;0.8422879576683044;0.0;0.0;0.0
296;0.0;0.0;0.0;0.11711999773979187;-2.3599679470062256;0.8588799834251404;0.0;0.0;0.0
298;-0.017079999670386314;-2.1450040340423584;0.7241919636726379;0.12492799758911133;-2.402911901473999;0.8666880130767822;-61.23687744140625;1.9293750524520874;40.276248931884766
300;0.0;0.0;0.0;0.17958399653434753;-2.4731838703155518;0.8422879576683044;0.0;0.0;0.0
302;0.0;0.0;0.0;0.21862399578094482;-2.496608018875122;0.8461920022964478;0.0;0.0;0.0
304;0.0;0.0;0.0;0.2420479953289032;-2.5317440032958984;0.7934879660606384;0.0;0.0;0.0
306;0.08540000021457672;-2.3470358848571777;0.6914960145950317;0.27718400955200195;-2.5200319290161133;0.7690879702568054;-62.706878662109375;-12.070625305175781;12.766249656677246
308;0.0;0.0;0.0;0.2654719948768616;-2.5161280632019043;0.725167989730835;0.0;0.0;0.0
311;0.0;0.0;0.0;0.2967039942741394;-2.4614720344543457;0.7368800044059753;0.0;0.0;0.0
313;0.0;0.0;0.0;0.31622397899627686;-2.395103931427002;0.7290719747543335;0.0;0.0;0.0
315;0.1756799966096878;-2.305311918258667;0.5992639660835266;0.33183997869491577;-2.3677759170532227;0.684175968170166;-55.56687545776367;-13.960624694824219;-16.073749542236328
317;0.0;0.0;0.0;0.35916799306869507;-2.317023992538452;0.6519680023193359;0.0;0.0;0.0
319;0.0;0.0;0.0;0.38259199261665344;-2.2506558895111084;0.5904799699783325;0.0;0.0;0.0
321;0.0;0.0;0.0;0.4060159921646118;-2.203808069229126;0.5504639744758606;0.0;0.0;0.0
323;0.2727919816970825;-2.105475902557373;0.4701879918575287;0.47921597957611084;-2.121824026107788;0.5094720125198364;-40.65687561035156;-15.570625305175781;-40.78375244140625
326;0.0;0.0;0.0;0.561199963092804;-2.043743848800659;0.46164798736572266;0.0;0.0;0.0
328;0.0;0.0;0.0;0.5846239924430847;-1.9695680141448975;0.41284799575805664;0.0;0.0;0.0
330;0.0;0.0;0.0;0.6578239798545837;-1.8680639266967773;0.3962559998035431;0.0;0.0;0.0
332;0.48092398047447205;-1.8221919536590576;0.3076840043067932;0.6773439645767212;-1.7587519884109497;0.35624000430107117;-17.066875457763672;-17.32062530517578;-57.44375228881836
334;0.0;0.0;0.0;0.7476159930229187;-1.6923840045928955;0.3474559783935547;0.0;0.0;0.0
336;0.0;0.0;0.0;0.7437120079994202;-1.637727975845337;0.3113439977169037;0.0;0.0;0.0
338;0.0;0.0;0.0;0.8217920064926147;-1.555743932723999;0.30353599786758423;0.0;0.0;0.0
340;0.640500009059906;-1.4849839210510254;0.20691199600696564;0.8139839768409729;-1.4034879207611084;0.3230559825897217;8.063124656677246;1.5093750953674316;-65.91374969482422
343;0.0;0.0;0.0;0.8178879618644714;-1.2863680124282837;0.3113439977169037;0.0;0.0;0.0
345;0.0;0.0;0.0;0.8178879618644714;-1.173151969909668;0.31915199756622314;0.0;0.0;0.0
347;0.0;0.0;0.0;0.7827519774436951;-1.0716480016708374;0.3357439935207367;0.0;0.0;0.0
349;0.6932039856910706;-1.0335839986801147;0.21154800057411194;0.7944639921188354;-0.962336003780365;0.41284799575805664;31.16312599182129;50.649375915527344;-68.43374633789062
351;0.0;0.0;0.0;0.8022719621658325;-0.87254399061203;0.4450559914112091;0.0;0.0;0.0
353;0.0;0.0;0.0;0.7632319927215576;-0.774944007396698;0.49775999784469604;0.0;0.0;0.0
355;0.0;0.0;0.0;0.7319999933242798;-0.708575963973999;0.5748639702796936;0.0;0.0;0.0
357;0.6339119672775269;-0.6595320105552673;0.3899119794368744;0.6812480092048645;-0.6773439645767212;0.610975980758667;50.83312225341797;106.92937469482422;-63.67375183105469
360;0.0;0.0;0.0;0.6314719915390015;-0.6187840104103088;0.7368800044059753;0.0;0.0;0.0
362;0.0;0.0;0.0;0.5963360071182251;-0.6148799657821655;0.8022719621658325;0.0;0.0;0.0
364;0.0;0.0;0.0;0.5416799783706665;-0.5992639660835266;0.9076799750328064;0.0;0.0;0.0
366;0.4706760048866272;-0.47555598616600037;0.6832000017166138;0.47921597957611084;-0.5407040119171143;1.0130879878997803;66.51312255859375;156.13937377929688;-51.633750915527344
368;0.0;0.0;0.0;0.38259199261665344;-0.536799967288971;1.0823839902877808;0.0;0.0;0.0
370;0.0;0.0;0.0;0.29280000925064087;-0.4626239836215973;1.223904013633728;0.0;0.0;0.0
372;0.0;0.0;0.0;0.21081599593162537;-0.47433599829673767;1.3127199411392212;0.0;0.0;0.0
374;0.16909199953079224;-0.3559959828853607;1.0760400295257568;0.11321599781513214;-0.45481598377227783;1.4142240285873413;74.3531265258789;187.359375;-41.133750915527344
377;0.0;0.0;0.0;0.03611199930310249;-0.41577598452568054;1.5118240118026733;0.0;0.0;0.0
379;0.0;0.0;0.0;-0.053679998964071274;-0.411871999502182;1.621135950088501;0.0;0.0;0.0
381;0.0;0.0;0.0;-0.13176000118255615;-0.41577598452568054;1.6992160081863403;0.0;0.0;0.0
383;-0.17006799578666687;-0.2886520028114319;1.467903971672058;-0.2088640034198761;-0.43139198422431946;1.7880319356918335;69.87312316894531;191.34938049316406;-36.5837516784668
385;0.0;0.0;0.0;-0.2908479869365692;-0.40406399965286255;1.8690400123596191;0.0;0.0;0.0
387;0.0;0.0;0.0;-0.3640480041503906;-0.411871999502182;1.9744479656219482;0.0;0.0;0.0
389;0.0;0.0;0.0;-0.47336000204086304;-0.38844799995422363;2.0632638931274414;0.0;0.0;0.0
391;-0.4980039894580841;-0.2642520070075989;1.8236559629440308;-0.5280159711837769;-0.3689279854297638;2.1198718547821045;54.40312194824219;172.9393768310547;-42.60375213623047
394;0.0;0.0;0.0;-0.6051200032234192;-0.3689279854297638;2.2057600021362305;0.0;0.0;0.0
396;0.0;0.0;0.0;-0.6480640172958374;-0.31036800146102905;2.2457759380340576;0.0;0.0;0.0
398;0.0;0.0;0.0;-0.6871039867401123;-0.3455039858818054;2.2906720638275146;0.0;0.0;0.0
400;-0.7622559666633606;-0.19617599248886108;2.084980010986328;-0.7222399711608887;-0.2869440019130707;2.3189759254455566;30.743125915527344;128.2793731689453;-56.883750915527344
402;0.0;0.0;0.0;-0.7417600154876709;-0.3025600016117096;2.3189759254455566;0.0;0.0;0.0
404;0.0;0.0;0.0;-0.7378559708595276;-0.2791360020637512;2.3072638511657715;0.0;0.0;0.0
406;0.0;0.0;0.0;-0.6871039867401123;-0.25571200251579285;2.2945759296417236;0.0;0.0;0.0
408;-0.8337479829788208;-0.12712399661540985;2.1445159912109375;-0.6832000017166138;-0.23228800296783447;2.2340638637542725;5.753125190734863;55.759376525878906;-73.05374908447266
411;0.0;0.0;0.0;-0.6324479579925537;-0.18934398889541626;2.1969759464263916;0.0;0.0;0.0
413;0.0;0.0;0.0;-0.6129279732704163;-0.18544000387191772;2.0964479446411133;0.0;0.0;0.0
415;0.0;0.0;0.0;-0.5123999714851379;-0.14640000462532043;2.019343852996826;0.0;0.0;0.0
417;-0.708575963973999;-0.04684799909591675;1.955415964126587;-0.46164798736572266;-0.15030398964881897;1.9178400039672852;-11.95687484741211;-24.740625381469727;-85.16374969482422
419;0.0;0.0;0.0;-0.37966400384902954;-0.12297599762678146;1.816335916519165;0.0;0.0;0.0
421;0.0;0.0;0.0;-0.3142719864845276;-0.10735999792814255;1.7275199890136719;0.0;0.0;0.0
423;0.0;0.0;0.0;-0.21667200326919556;-0.08393599838018417;1.6260160207748413;0.0;0.0;0.0
425;-0.44896000623703003;0.024399999529123306;1.5940519571304321;-0.21276798844337463;-0.040991999208927155;1.547935962677002;-18.88687515258789;-92.2906265258789;-89.57374572753906
428;0.0;0.0;0.0;-0.1239520013332367;-0.08393599838018417;1.45033597946167;0.0;0.0;0.0
430;0.0;0.0;0.0;-0.09662400186061859;-0.07612799853086472;1.3693280220031738;0.0;0.0;0.0
432;0.0;0.0;0.0;-0.022447999566793442;-0.0605119988322258;1.272704005241394;0.0;0.0;0.0
434;-0.20617999136447906;0.0680759996175766;1.2375680208206177;0.04391999915242195;-0.05660799890756607;1.2112159729003906;-22.45687484741211;-124.35062408447266;-91.18374633789062
436;0.0;0.0;0.0;0.07124799489974976;-0.0878399983048439;1.1302080154418945;0.0;0.0;0.0
438;0.0;0.0;0.0;0.13663999736309052;-0.05660799890756607;1.0618879795074463;0.0;0.0;0.0
440;0.0;0.0;0.0;0.2030079960823059;-0.09564799815416336;0.9564799666404724;0.0;0.0;0.0
442;0.01878799870610237;0.0651479959487915;0.9252479672431946;0.230335995554924;-0.07612799853086472;0.9037759900093079;-24.346874237060547;-126.17062377929688;-91.1137466430664
445;0.0;0.0;0.0;0.27327999472618103;-0.07612799853086472;0.8422879576683044;0.0;0.0;0.0
447;0.0;0.0;0.0;0.3123199939727783;-0.07222399860620499;0.8139839768409729;0.0;0.0;0.0
449;0.0;0.0;0.0;0.3669759929180145;-0.11907199770212173;0.7612800002098083;0.0;0.0;0.0
451;0.19471199810504913;0.05441199988126755;0.6880800127983093;0.38259199261665344;-0.06831999868154526;0.7407839894294739;-19.1668758392334;-108.46062469482422;-89.3637466430664
453;0.0;0.0;0.0;0.4206559956073761;-0.06441599875688553;0.7046719789505005;0.0;0.0;0.0
455;0.0;0.0;0.0;0.39820799231529236;-0.044895999133586884;0.6353759765625;0.0;0.0;0.0
457;0.0;0.0;0.0;0.4206559956073761;0.0019519999623298645;0.6197599768638611;0.0;0.0;0.0
459;0.2984119951725006;0.10858000069856644;0.526308000087738;0.48311999440193176;0.044895999133586884;0.5992639660835266;-6.846875190734863;-80.88062286376953;-86.28374481201172
462;0.0;0.0;0.0;0.537775993347168;0.07612799853086472;0.5953599810600281;0.0;0.0;0.0
464;0.0;0.0;0.0;0.5416799783706665;0.12297599762678146;0.5787680149078369;0.0;0.0;0.0
466;0.0;0.0;0.0;0.537775993347168;0.15030398964881897;0.5504639744758606;0.0;0.0;0.0
468;0.42455998063087463;0.24741598963737488;0.4513999819755554;0.5533919930458069;0.18934398889541626;0.5094720125198364;10.373125076293945;-49.94062423706055;-84.1137466430664
470;0.0;0.0;0.0;0.5299679636955261;0.2176479995250702;0.5016639828681946;0.0;0.0;0.0
472;0.0;0.0;0.0;0.5299679636955261;0.24107199907302856;0.522159993648529;0.0;0.0;0.0
474;0.0;0.0;0.0;0.5299679636955261;0.2566879987716675;0.5426560044288635;0.0;0.0;0.0
476;0.4265120029449463;0.37624800205230713;0.4067479968070984;0.545583963394165;0.31915199756622314;0.5543680191040039;30.673124313354492;-13.54062557220459;-72.14374542236328
479;0.0;0.0;0.0;0.5026400089263916;0.3699039816856384;0.6236639618873596;0.0;0.0;0.0
481;0.0;0.0;0.0;0.4323679804801941;0.38551998138427734;0.659775972366333;0.0;0.0;0.0
483;0.0;0.0;0.0;0.3903999924659729;0.42455998063087463;0.6724640130996704;0.0;0.0;0.0
485;0.3315959870815277;0.5309439897537231;0.5314319729804993;0.3513599932193756;0.47921597957611084;0.7163839936256409;48.17312240600586;29.999374389648438;-60.87375259399414
487;0.0;0.0;0.0;0.26156800985336304;0.48604798316955566;0.757375955581665;0.0;0.0;0.0
489;0.0;0.0;0.0;0.2654719948768616;0.5250880122184753;0.8061760067939758;0.0;0.0;0.0
491;0.0;0.0;0.0;0.21081599593162537;0.536799967288971;0.8344799876213074;0.0;0.0;0.0
493;0.1285879909992218;0.6480640172958374;0.6746599674224854;0.15225599706172943;0.6070719957351685;0.9076799750328064;57.13312530517578;66.9593734741211;-53.383750915527344
496;0.0;0.0;0.0;0.07515199482440948;0.5719360113143921;0.9476959705352783;0.0;0.0;0.0
498;0.0;0.0;0.0;0.07905599474906921;0.6304959654808044;0.9925919771194458;0.0;0.0;0.0
500;0.0;0.0;0.0;0.07124799489974976;0.7202879786491394;1.0043039321899414;0.0;0.0;0.0
502;-0.030499998480081558;0.7812879681587219;0.8383839726448059;0.0634399950504303;0.798367977142334;1.0531039237976074;64.13312530517578;88.09938049316406;-49.95375061035156
504;0.0;0.0;0.0;-0.02635199949145317;0.8569279909133911;1.1145919561386108;0.0;0.0;0.0
506;0.0;0.0;0.0;-0.07710400223731995;0.8803519606590271;1.1428959369659424;0.0;0.0;0.0
508;0.0;0.0;0.0;-0.07320000231266022;0.9506239891052246;1.1712000370025635;0.0;0.0;0.0
510;-0.1664080023765564;1.0272400379180908;1.0047919750213623;-0.10833600163459778;1.0130879878997803;1.2200000286102295;68.61312103271484;95.72937774658203;-43.79375076293945
513;0.0;0.0;0.0;-0.16201600432395935;1.1106879711151123;1.2356159687042236;0.0;0.0;0.0
515;0.0;0.0;0.0;-0.1815359890460968;1.1536319255828857;1.2648959159851074;0.0;0.0;0.0
517;0.0;0.0;0.0;-0.22448000311851501;1.2278079986572266;1.2932000160217285;0.0;0.0;0.0
519;-0.29987600445747375;1.2746559381484985;1.1345999240875244;-0.22448000311851501;1.2746559381484985;1.3088159561157227;67.00312042236328;90.61937713623047;-34.20375061035156
521;0.0;0.0;0.0;-0.2088640034198761;1.3371199369430542;1.3166239261627197;0.0;0.0;0.0
523;0.0;0.0;0.0;-0.2205759882926941;1.3449280261993408;1.3166239261627197;0.0;0.0;0.0
525;0.0;0.0;0.0;-0.18544000387191772;1.3956799507141113;1.3293119668960571;0.0;0.0;0.0
527;-0.33647599816322327;1.4881559610366821;1.1999919414520264;-0.17763200402259827;1.4386240243911743;1.3537119626998901;60.63312530517578;75.63937377929688;-21.4637508392334
530;0.0;0.0;0.0;-0.22838398814201355;1.4776639938354492;1.3537119626998901;0.0;0.0;0.0
532;0.0;0.0;0.0;-0.20495998859405518;1.497183918952942;1.3742079734802246;0.0;0.0;0.0
534;0.0;0.0;0.0;-0.22448000311851501;1.5362240076065063;1.370303988456726;0.0;0.0;0.0
536;-0.3450160026550293;1.635532021522522;1.2351279258728027;-0.24399998784065247;1.5596479177474976;1.3986079692840576;52.86312484741211;65.4893798828125;-5.643750190734863
538;0.0;0.0;0.0;-0.2791360020637512;1.5596479177474976;1.3898239135742188;0.0;0.0;0.0
540;0.0;0.0;0.0;-0.2908479869365692;1.5635520219802856;1.4025119543075562;0.0;0.0;0.0
542;0.0;0.0;0.0;-0.3181760013103485;1.6103999614715576;1.4308159351348877;0.0;0.0;0.0
544;-0.4182159900665283;1.7141000032424927;1.2753880023956299;-0.3337920010089874;1.5791679620742798;1.4308159351348877;43.34312438964844;57.019378662109375;11.366250038146973
547;0.0;0.0;0.0;-0.32207998633384705;1.5908799171447754;1.4347199201583862;0.0;0.0;0.0
549;0.0;0.0;0.0;-0.3298879861831665;1.5791679620742798;1.4386240243911743;0.0;0.0;0.0
551;0.0;0.0;0.0;-0.30646398663520813;1.5830719470977783;1.4308159351348877;0.0;0.0;0.0
553;-0.4445679783821106;1.7092199325561523;1.2922239303588867;-0.3416000008583069;1.5674560070037842;1.3937280178070068;30.11312484741211;38.04937744140625;29.916250228881836
555;0.0;0.0;0.0;-0.31036800146102905;1.5401279926300049;1.4025119543075562;0.0;0.0;0.0
557;0.0;0.0;0.0;-0.2908479869365692;1.5440319776535034;1.3937280178070068;0.0;0.0;0.0
559;0.0;0.0;0.0;-0.28303998708724976;1.5635520219802856;1.3898239135742188;0.0;0.0;0.0
561;-0.40577200055122375;1.6743279695510864;1.2639199495315552;-0.26742398738861084;1.5167039632797241;1.3820159435272217;14.503125190734863;21.319374084472656;47.20624923706055
564;0.0;0.0;0.0;-0.2635200023651123;1.497183918952942;1.3742079734802246;0.0;0.0;0.0
566;0.0;0.0;0.0;-0.2908479869365692;1.4737600088119507;1.370303988456726;0.0;0.0;0.0
568;0.0;0.0;0.0;-0.3025600016117096;1.4620479345321655;1.3537119626998901;0.0;0.0;0.0
570;-0.3984519839286804;1.5942959785461426;1.230247974395752;-0.2869440019130707;1.3761600255966187;1.3615199327468872;-2.6468749046325684;14.459375381469727;62.256248474121094
572;0.0;0.0;0.0;-0.29865598678588867;1.3410239219665527;1.32150399684906;0.0;0.0;0.0
574;0.0;0.0;0.0;-0.3025600016117096;1.313696026802063;1.32150399684906;0.0;0.0;0.0
576;0.0;0.0;0.0;-0.29475200176239014;1.2356159687042236;1.2844159603118896;0.0;0.0;0.0
578;-0.4126040041446686;1.4261800050735474;1.1807159185409546;-0.2791360020637512;1.165343999862671;1.2883199453353882;-20.146875381469727;5.639374732971191;76.67625427246094
581;0.0;0.0;0.0;-0.26742398738861084;1.1028800010681152;1.2404959201812744;0.0;0.0;0.0
583;0.0;0.0;0.0;-0.26742398738861084;1.0482239723205566;1.231711983680725;0.0;0.0;0.0
585;0.0;0.0;0.0;-0.23228800296783447;0.9779520034790039;1.2404959201812744;0.0;0.0;0.0
587;-0.39601197838783264;1.1672959327697754;1.1065399646759033;-0.26742398738861084;0.8998720049858093;1.207311987876892;-33.30687713623047;-2.200624942779541;89.83625030517578
589;0.0;0.0;0.0;-0.26742398738861084;0.8100799918174744;1.1916959285736084;0.0;0.0;0.0
591;0.0;0.0;0.0;-0.2596159875392914;0.700767993927002;1.1672959327697754;0.0;0.0;0.0
593;0.0;0.0;0.0;-0.2596159875392914;0.8608319759368896;1.2444000244140625;0.0;0.0;0.0
596;-0.38551998138427734;0.9132919907569885;1.0587159395217896;-0.28303998708724976;0.6187840104103088;1.1624159812927246;-39.1868782043457;-3.880625009536743;99.98625183105469
598;0.0;0.0;0.0;-0.2479040026664734;0.6539199948310852;1.1712000370025635;0.0;0.0;0.0
600;0.0;0.0;0.0;-0.19324800372123718;0.6265919804573059;1.1868159770965576;0.0;0.0;0.0
602;0.0;0.0;0.0;-0.2479040026664734;0.5328959822654724;1.1428959369659424;0.0;0.0;0.0
604;-0.3740519881248474;0.7173599600791931;1.0294359922409058;-0.2635200023651123;0.47043198347091675;1.1058080196380615;-39.956878662109375;-10.9506254196167;109.15625762939453
606;0.0;0.0;0.0;-0.24009600281715393;0.4274879992008209;1.101904034614563;0.0;0.0;0.0
608;0.0;0.0;0.0;-0.18544000387191772;0.3416000008583069;1.0335839986801147;0.0;0.0;0.0
610;0.0;0.0;0.0;-0.16201600432395935;0.2791360020637512;1.0247999429702759;0.0;0.0;0.0
612;-0.31329599022865295;0.47848400473594666;0.9250040054321289;-0.13176000118255615;0.22838398814201355;1.0091840028762817;-35.96687698364258;-20.610624313354492;118.5362548828125
615;0.0;0.0;0.0;-0.13566400110721588;0.16201600432395935;0.9808799624443054;0.0;0.0;0.0
617;0.0;0.0;0.0;-0.1239520013332367;0.11126399785280228;0.9808799624443054;0.0;0.0;0.0
619;0.0;0.0;0.0;-0.10052800178527832;0.04879999905824661;0.9759999513626099;0.0;0.0;0.0
621;-0.2374119907617569;0.24985599517822266;0.8625400066375732;-0.07710400223731995;0.02147199958562851;0.9759999513626099;-24.13687515258789;-23.620624542236328;124.69625091552734
623;0.0;0.0;0.0;-0.09272000193595886;0.0019519999623298645;0.9603840112686157;0.0;0.0;0.0
625;0.0;0.0;0.0;-0.10052800178527832;-0.044895999133586884;0.9437919855117798;0.0;0.0;0.0
627;0.0;0.0;0.0;-0.057583998888731;-0.10345599800348282;0.9525759816169739;0.0;0.0;0.0
630;-0.1978839933872223;0.07246799767017365;0.8234999775886536;-0.03415999934077263;-0.1698240041732788;0.9281759858131409;-12.936875343322754;-28.450624465942383;129.87625122070312
632;0.0;0.0;0.0;-0.014639999717473984;-0.2088640034198761;0.9398880004882812;0.0;0.0;0.0
634;0.0;0.0;0.0;0.01268799975514412;-0.25571200251579285;0.9154880046844482;0.0;0.0;0.0
636;0.0;0.0;0.0;0.01659199967980385;-0.3181760013103485;0.9154880046844482;0.0;0.0;0.0
638;-0.12175599485635757;-0.1298079937696457;0.7912920117378235;0.04782399907708168;-0.3845439851284027;0.9154880046844482;-6.706874847412109;-27.470624923706055;133.4462432861328
640;0.0;0.0;0.0;0.032207999378442764;-0.4079679846763611;0.9232959747314453;0.0;0.0;0.0
642;0.0;0.0;0.0;0.020495999604463577;-0.44310399889945984;0.9398880004882812;0.0;0.0;0.0
644;0.0;0.0;0.0;0.04391999915242195;-0.4938559830188751;0.9437919855117798;0.0;0.0;0.0
647;-0.09686800092458725;-0.3247639834880829;0.8061760067939758;0.01659199967980385;-0.5836479663848877;0.9398880004882812;-5.236875057220459;-11.720624923706055;132.18624877929688
649;0.0;0.0;0.0;0.0009759999811649323;-0.6344000101089478;0.9437919855117798;0.0;0.0;0.0
651;0.0;0.0;0.0;0.028303999453783035;-0.685151994228363;0.9320799708366394;0.0;0.0;0.0
653;0.0;0.0;0.0;-0.010735999792814255;-0.7476159930229187;0.9720959663391113;0.0;0.0;0.0
655;-0.11028799414634705;-0.5389959812164307;0.8291119933128357;0.01659199967980385;-0.7593280076980591;0.9759999513626099;-6.076874732971191;2.489374876022339;127.98625946044922
657;0.0;0.0;0.0;-0.022447999566793442;-0.7593280076980591;1.0296800136566162;0.0;0.0;0.0
659;0.0;0.0;0.0;0.028303999453783035;-0.8686400055885315;1.0091840028762817;0.0;0.0;0.0
661;0.0;0.0;0.0;0.028303999453783035;-0.8491199612617493;1.0657919645309448;0.0;0.0;0.0
664;-0.10565199702978134;-0.6900320053100586;0.9054839611053467;0.028303999453783035;-0.8920639753341675;1.097999930381775;-7.056874752044678;5.779375076293945;121.47625732421875
666;0.0;0.0;0.0;0.05953599885106087;-0.9311040043830872;1.0862879753112793;0.0;0.0;0.0
668;0.0;0.0;0.0;0.05953599885106087;-0.9584319591522217;1.0901919603347778;0.0;0.0;0.0
670;0.0;0.0;0.0;0.11321599781513214;-1.0052800178527832;1.122399926185608;0.0;0.0;0.0
672;-0.05685199797153473;-0.8330159783363342;0.9589200019836426;0.09759999811649323;-1.0677440166473389;1.1058080196380615;-14.546875;-1.4306249618530273;112.9362564086914
674;0.0;0.0;0.0;0.10540799796581268;-1.1292319297790527;1.0657919645309448;0.0;0.0;0.0
676;0.0;0.0;0.0;0.1327359974384308;-1.1643680334091187;1.097999930381775;0.0;0.0;0.0
678;0.0;0.0;0.0;0.17177599668502808;-1.2580640316009521;1.097999930381775;0.0;0.0;0.0
681;0.009759999811649323;-1.0374879837036133;0.9618479609489441;0.15225599706172943;-1.285391926765442;1.0940959453582764;-27.216875076293945;-5.770625114440918;103.27625274658203
683;0.0;0.0;0.0;0.18348799645900726;-1.28929603099823;1.0940959453582764;0.0;0.0;0.0
685;0.0;0.0;0.0;0.19519999623298645;-1.441551923751831;1.0940959453582764;0.0;0.0;0.0
687;0.0;0.0;0.0;0.17958399653434753;-1.4532639980316162;1.150704026222229;0.0;0.0;0.0
689;0.054655998945236206;-1.2683119773864746;0.9918599724769592;0.18348799645900726;-1.5001119375228882;1.1712000370025635;-43.73687744140625;4.099374771118164;89.20625305175781
691;0.0;0.0;0.0;0.1756799966096878;-1.6299200057983398;1.1633919477462769;0.0;0.0;0.0
693;0.0;0.0;0.0;0.14444799721240997;-1.6923840045928955;1.1428959369659424;0.0;0.0;0.0
695;0.0;0.0;0.0;0.12492799758911133;-1.8016959428787231;1.1633919477462769;0.0;0.0;0.0
698;0.028303999453783035;-1.5525720119476318;1.0294359922409058;0.12492799758911133;-1.8173120021820068;1.158511996269226;-62.84687805175781;23.419374465942383;70.65625
700;0.0;0.0;0.0;0.10150399804115295;-1.891487956047058;1.182911992073059;0.0;0.0;0.0
702;0.0;0.0;0.0;0.09857599437236786;-1.9461439847946167;1.223904013633728;0.0;0.0;0.0
704;0.0;0.0;0.0;0.04782399907708168;-1.981279969215393;1.2522079944610596;0.0;0.0;0.0
706;-0.05929199978709221;-1.8019399642944336;1.0877519845962524;-0.018543999642133713;-2.028127908706665;1.2688000202178955;-67.53688049316406;42.03937530517578;51.966251373291016
708;0.0;0.0;0.0;-0.07320000231266022;-2.0583839416503906;1.3127199411392212;0.0;0.0;0.0
710;0.0;0.0;0.0;-0.06539200246334076;-2.175503969192505;1.3166239261627197;0.0;0.0;0.0
712;0.0;0.0;0.0;-0.10833600163459778;-2.2106399536132812;1.3410239219665527;0.0;0.0;0.0
715;-0.19300399720668793;-2.0103158950805664;1.1836439371109009;-0.08881600201129913;-2.2574880123138428;1.3332159519195557;-58.71687698364258;33.70937728881836;37.126251220703125
717;0.0;0.0;0.0;-0.10833600163459778;-2.3160479068756104;1.3537119626998901;0.0;0.0;0.0
719;0.0;0.0;0.0;-0.10443200170993805;-2.382416009902954;1.3410239219665527;0.0;0.0;0.0
721;0.0;0.0;0.0;-0.09272000193595886;-2.3980319499969482;1.3176000118255615;0.0;0.0;0.0
723;-0.22374799847602844;-2.2133240699768066;1.1973079442977905;-0.09662400186061859;-2.4058399200439453;1.3176000118255615;-41.49687576293945;-2.340625047683716;23.546249389648438
725;0.0;0.0;0.0;-0.06148799881339073;-2.4214558601379395;1.3127199411392212;0.0;0.0;0.0
727;0.0;0.0;0.0;-0.02635199949145317;-2.4136478900909424;1.2883199453353882;0.0;0.0;0.0
729;0.0;0.0;0.0;-0.014639999717473984;-2.4214558601379395;1.2112159729003906;0.0;0.0;0.0
732;-0.15737999975681305;-2.2794480323791504;1.130452036857605;-0.014639999717473984;-2.4331679344177246;1.1712000370025635;-23.9268741607666;-41.68062210083008;3.3862500190734863
734;0.0;0.0;0.0;0.020495999604463577;-2.378511905670166;1.158511996269226;0.0;0.0;0.0
736;0.0;0.0;0.0;0.07515199482440948;-2.36680006980896;1.0940959453582764;0.0;0.0;0.0
738;0.0;0.0;0.0;0.09759999811649323;-2.300431966781616;1.0374879837036133;0.0;0.0;0.0
740;-0.05245999991893768;-2.2057600021362305;0.9596520066261292;0.16787199676036835;-2.2418720722198486;1.0003999471664429;-13.146875381469727;-69.47062683105469;-21.953750610351562
742;0.0;0.0;0.0;0.19129599630832672;-2.21942400932312;0.9320799708366394;0.0;0.0;0.0
744;0.0;0.0;0.0;0.24985599517822266;-2.1725759506225586;0.8510719537734985;0.0;0.0;0.0
746;0.0;0.0;0.0;0.2693759799003601;-2.129631996154785;0.8061760067939758;0.0;0.0;0.0
749;0.10809199512004852;-2.0230040550231934;0.7351719737052917;0.3240320086479187;-2.028127908706665;0.725167989730835;-7.966875076293945;-77.87062072753906;-48.063751220703125
751;0.0;0.0;0.0;0.3474559783935547;-1.981279969215393;0.700767993927002;0.0;0.0;0.0
753;0.0;0.0;0.0;0.3903999924659729;-1.9071040153503418;0.6275680065155029;0.0;0.0;0.0
755;0.0;0.0;0.0;0.42455998063087463;-1.8446400165557861;0.6031680107116699;0.0;0.0;0.0
757;0.26742398738861084;-1.769487977027893;0.5106920003890991;0.4635999798774719;-1.7743679285049438;0.5338720083236694;-1.736875057220459;-69.33061981201172;-69.20375061035156
759;0.0;0.0;0.0;0.5065439939498901;-1.6767679452896118;0.4899519979953766;0.0;0.0;0.0
761;0.0;0.0;0.0;0.5768159627914429;-1.6299200057983398;0.4694559872150421;0.0;0.0;0.0
763;0.0;0.0;0.0;0.6080479621887207;-1.5245119333267212;0.4323679804801941;0.0;0.0;0.0
766;0.4379799962043762;-1.4835200309753418;0.3535560071468353;0.6041439771652222;-1.5127999782562256;0.4323679804801941;8.133125305175781;-48.54062271118164;-81.87374877929688
768;0.0;0.0;0.0;0.611952006816864;-1.411296010017395;0.4167519807815552;0.0;0.0;0.0
770;0.0;0.0;0.0;0.6353759765625;-1.3371199369430542;0.4411519765853882;0.0;0.0;0.0
772;0.0;0.0;0.0;0.6314719915390015;-1.2551360130310059;0.44896000623703003;0.0;0.0;0.0
774;0.49775999784469604;-1.1916959285736084;0.313539981842041;0.5963360071182251;-1.2160959243774414;0.4450559914112091;17.79312515258789;-10.320625305175781;-87.54374694824219
776;0.0;0.0;0.0;0.5807200074195862;-1.1292319297790527;0.48604798316955566;0.0;0.0;0.0
778;0.0;0.0;0.0;0.5416799783706665;-1.1058080196380615;0.49775999784469604;0.0;0.0;0.0
780;0.0;0.0;0.0;0.522159993648529;-1.012112021446228;0.537775993347168;0.0;0.0;0.0
783;0.42163199186325073;-0.9525759816169739;0.37917599081993103;0.48311999440193176;-1.0082080364227295;0.5543680191040039;21.713125228881836;40.079376220703125;-90.76374816894531
785;0.0;0.0;0.0;0.4206559956073761;-0.9184159636497498;0.6236639618873596;0.0;0.0;0.0
787;0.0;0.0;0.0;0.35526400804519653;-0.8676639795303345;0.6675840020179749;0.0;0.0;0.0
789;0.0;0.0;0.0;0.3123199939727783;-0.8754720091819763;0.7046719789505005;0.0;0.0;0.0
791;0.24155999720096588;-0.7732359766960144;0.5404599905014038;0.27327999472618103;-0.8637599945068359;0.7690879702568054;22.343124389648438;92.57937622070312;-93.00374603271484
793;0.0;0.0;0.0;0.21081599593162537;-0.8178879618644714;0.8910880088806152;0.0;0.0;0.0
795;0.0;0.0;0.0;0.14444799721240997;-0.798367977142334;0.9232959747314453;0.0;0.0;0.0
797;0.0;0.0;0.0;0.08295999467372894;-0.7827519774436951;0.9681919813156128;0.0;0.0;0.0
800;0.016103999689221382;-0.6685599684715271;0.7929999828338623;-0.014639999717473984;-0.7788479924201965;1.0287039279937744;23.953125;128.62937927246094;-94.82374572753906
802;0.0;0.0;0.0;-0.07320000231266022;-0.7280960083007812;1.1546080112457275;0.0;0.0;0.0
804;0.0;0.0;0.0;-0.16201600432395935;-0.6617279648780823;1.231711983680725;0.0;0.0;0.0
806;0.0;0.0;0.0;-0.21667200326919556;-0.6461119651794434;1.2522079944610596;0.0;0.0;0.0
808;-0.2723039984703064;-0.5441200137138367;1.0599359273910522;-0.29865598678588867;-0.5758399963378906;1.32150399684906;24.86312484741211;140.24937438964844;-98.1137466430664
810;0.0;0.0;0.0;-0.36795198917388916;-0.5397279858589172;1.3781119585037231;0.0;0.0;0.0
812;0.0;0.0;0.0;-0.3718560039997101;-0.5163040161132812;1.3859199285507202;0.0;0.0;0.0
814;0.0;0.0;0.0;-0.41870400309562683;-0.4655520021915436;1.4630240201950073;0.0;0.0;0.0
817;-0.5001999735832214;-0.36453598737716675;1.2788039445877075;-0.44603198766708374;-0.3757599890232086;1.5030399560928345;23.813125610351562;121.97937774658203;-100.2137451171875
819;0.0;0.0;0.0;-0.43432000279426575;-0.3640480041503906;1.5323200225830078;0.0;0.0;0.0
821;0.0;0.0;0.0;-0.4655520021915436;-0.3093920052051544;1.531343936920166;0.0;0.0;0.0
823;0.0;0.0;0.0;-0.43432000279426575;-0.2898719906806946;1.564527988433838;0.0;0.0;0.0
825;-0.5763279795646667;-0.1920280009508133;1.3981199264526367;-0.44993600249290466;-0.24302399158477783;1.5518399477005005;23.3231258392334;83.19937896728516;-100.00374603271484
827;0.0;0.0;0.0;-0.43432000279426575;-0.2205759882926941;1.5772159099578857;0.0;0.0;0.0
829;0.0;0.0;0.0;-0.43432000279426575;-0.21276798844337463;1.5684319734573364;0.0;0.0;0.0
832;0.0;0.0;0.0;-0.4694559872150421;-0.13468798995018005;1.6055200099945068;0.0;0.0;0.0
834;-0.5685200095176697;-0.056120000779628754;1.4322799444198608;-0.4304159879684448;-0.14640000462532043;1.5440319776535034;23.603124618530273;40.21937561035156;-97.76374816894531
836;0.0;0.0;0.0;-0.4304159879684448;-0.11126399785280228;1.5567200183868408;0.0;0.0;0.0
838;0.0;0.0;0.0;-0.4421280026435852;-0.07222399860620499;1.5118240118026733;0.0;0.0;0.0
840;0.0;0.0;0.0;-0.4147999882698059;-0.01756799966096878;1.5079200267791748;0.0;0.0;0.0
842;-0.5524159669876099;0.06441599875688553;1.3925080299377441;-0.39137598872184753;-0.0058559998869895935;1.4952319860458374;19.403125762939453;4.939374923706055;-96.78374481201172
844;0.0;0.0;0.0;-0.35624000430107117;-0.0058559998869895935;1.4874240159988403;0.0;0.0;0.0
846;0.0;0.0;0.0;-0.3025600016117096;0.05660799890756607;1.4308159351348877;0.0;0.0;0.0
849;0.0;0.0;0.0;-0.3025600016117096;0.06441599875688553;1.4103199243545532;0.0;0.0;0.0
851;-0.452131986618042;0.1739719957113266;1.309059977531433;-0.28303998708724976;0.09174399822950363;1.3898239135742188;10.5131254196167;-18.930625915527344;-98.74374389648438
853;0.0;0.0;0.0;-0.25571200251579285;0.11907199770212173;1.3654239177703857;0.0;0.0;0.0
855;0.0;0.0;0.0;-0.16591998934745789;0.16201600432395935;1.3049119710922241;0.0;0.0;0.0
857;0.0;0.0;0.0;-0.19324800372123718;0.18934398889541626;1.3010079860687256;0.0;0.0;0.0
859;-0.34062400460243225;0.2991439998149872;1.1958439350128174;-0.17763200402259827;0.22838398814201355;1.2932000160217285;2.463124990463257;-30.200624465942383;-101.12374877929688
861;0.0;0.0;0.0;-0.14737600088119507;0.28303998708724976;1.231711983680725;0.0;0.0;0.0
863;0.0;0.0;0.0;-0.14640000462532043;0.2635200023651123;1.207311987876892;0.0;0.0;0.0
866;0.0;0.0;0.0;-0.13176000118255615;0.3142719864845276;1.182911992073059;0.0;0.0;0.0
868;-0.2676680088043213;0.4182159900665283;1.075063943862915;-0.1239520013332367;0.3337920010089874;1.1428959369659424;-3.416874885559082;-35.80062484741211;-100.2137451171875
870;0.0;0.0;0.0;-0.057583998888731;0.3728320002555847;1.101904034614563;0.0;0.0;0.0
872;0.0;0.0;0.0;-0.06148799881339073;0.41577598452568054;1.101904034614563;0.0;0.0;0.0
874;0.0;0.0;0.0;-0.07320000231266022;0.4352959990501404;1.0618879795074463;0.0;0.0;0.0
876;-0.187391996383667;0.5428999662399292;0.9645319581031799;-0.049775999039411545;0.4665279984474182;1.0296800136566162;-2.996875047683716;-36.36062240600586;-94.68374633789062
879;0.0;0.0;0.0;-0.03806399926543236;0.4782399833202362;1.0043039321899414;0.0;0.0;0.0
880;0.0;0.0;0.0;-0.006831999868154526;0.4938559830188751;0.9964959621429443;0.0;0.0;0.0
883;0.0;0.0;0.0;-0.0029279999434947968;0.5094720125198364;0.9759999513626099;0.0;0.0;0.0
885;-0.12248799949884415;0.6231759786605835;0.8698599934577942;0.03611199930310249;0.5289919972419739;0.9642879962921143;1.6931250095367432;-35.660621643066406;-87.05374908447266
887;0.0;0.0;0.0;0.024399999529123306;0.521183967590332;0.9437919855117798;0.0;0.0;0.0
889;0.0;0.0;0.0;0.05563199892640114;0.48214399814605713;0.9281759858131409;0.0;0.0;0.0
891;0.0;0.0;0.0;0.04782399907708168;0.5055679678916931;0.9154880046844482;0.0;0.0;0.0
893;-0.0697840005159378;0.6344000101089478;0.7922679781913757;0.06734399497509003;0.48214399814605713;0.8910880088806152;10.79312515258789;-31.390625;-78.8637466430664
895;0.0;0.0;0.0;0.08198399841785431;0.5250880122184753;0.8871839642524719;0.0;0.0;0.0
897;0.0;0.0;0.0;0.05172799900174141;0.5758399963378906;0.8910880088806152;0.0;0.0;0.0
900;0.0;0.0;0.0;0.07515199482440948;0.5407040119171143;0.8588799834251404;0.0;0.0;0.0
902;-0.0348920002579689;0.6629480123519897;0.7420039772987366;0.10247999429702759;0.513375997543335;0.8422879576683044;21.223125457763672;-24.110624313354492;-70.18374633789062
904;0.0;0.0;0.0;0.11711999773979187;0.6187840104103088;0.8832799792289734;0.0;0.0;0.0
906;0.0;0.0;0.0;0.14054399728775024;0.6265919804573059;0.8793759942054749;0.0;0.0;0.0
908;0.0;0.0;0.0;0.14054399728775024;0.6461119651794434;0.8627839684486389;0.0;0.0;0.0
910;0.0026839999482035637;0.7595719695091248;0.7383440136909485;0.09857599437236786;0.6968640089035034;0.8588799834251404;30.183124542236328;-13.890625;-62.133750915527344
912;0.0;0.0;0.0;0.12883199751377106;0.7437120079994202;0.8588799834251404;0.0;0.0;0.0
914;0.0;0.0;0.0;0.14444799721240997;0.7905600070953369;0.8666880130767822;0.0;0.0;0.0
917;0.0;0.0;0.0;0.1327359974384308;0.8217920064926147;0.8793759942054749;0.0;0.0;0.0
919;0.019276000559329987;0.9215880036354065;0.7471280097961426;0.12883199751377106;0.87254399061203;0.9232959747314453;35.08312225341797;-0.31062498688697815;-53.66374969482422
921;0.0;0.0;0.0;0.10150399804115295;0.9271999597549438;0.9515999555587769;0.0;0.0;0.0
923;0.0;0.0;0.0;0.15225599706172943;0.9584319591522217;0.9115839600563049;0.0;0.0;0.0
925;0.0;0.0;0.0;0.14444799721240997;0.9818559885025024;0.9076799750328064;0.0;0.0;0.0
927;0.02635199949145317;1.085312008857727;0.795195996761322;0.13663999736309052;1.0013760328292847;0.9154880046844482;34.87312316894531;14.459375381469727;-42.95375061035156
929;0.0;0.0;0.0;0.12492799758911133;1.0374879837036133;0.9193919897079468;0.0;0.0;0.0
931;0.0;0.0;0.0;0.16787199676036835;1.0374879837036133;0.9476959705352783;0.0;0.0;0.0
934;0.0;0.0;0.0;0.13663999736309052;1.0452959537506104;0.9808799624443054;0.0;0.0;0.0
936;0.018543999642133713;1.1860840320587158;0.8339920043945312;0.1327359974384308;1.0570080280303955;1.0091840028762817;35.223121643066406;32.239376068115234;-30.353750228881836
938;0.0;0.0;0.0;0.08979199826717377;1.1038559675216675;1.0335839986801147;0.0;0.0;0.0
940;0.0;0.0;0.0;0.07905599474906921;1.1116639375686646;1.0247999429702759;0.0;0.0;0.0
942;0.0;0.0;0.0;0.0634399950504303;1.107759952545166;1.073599934577942;0.0;0.0;0.0
944;-0.039772000163793564;1.23854398727417;0.9123159646987915;0.024399999529123306;1.1702239513397217;1.0862879753112793;35.223121643066406;45.53937530517578;-17.82375144958496
946;0.0;0.0;0.0;0.03611199930310249;1.1887680292129517;1.101904034614563;0.0;0.0;0.0
948;0.0;0.0;0.0;-0.0029279999434947968;1.2043839693069458;1.122399926185608;0.0;0.0;0.0
951;0.0;0.0;0.0;0.01659199967980385;1.2160959243774414;1.1712000370025635;0.0;0.0;0.0
953;-0.10052800178527832;1.3395600318908691;1.0074759721755981;0.004879999905824661;1.262943983078003;1.175104022026062;33.9631233215332;50.36937713623047;-5.223750114440918
955;0.0;0.0;0.0;-0.014639999717473984;1.2980799674987793;1.1916959285736084;0.0;0.0;0.0
957;0.0;0.0;0.0;-0.06929600238800049;1.3371199369430542;1.1712000370025635;0.0;0.0;0.0
959;0.0;0.0;0.0;-0.0849120020866394;1.3878719806671143;1.248304009437561;0.0;0.0;0.0
961;-0.17445999383926392;1.4635119438171387;1.0706720352172852;-0.08881600201129913;1.4034879207611084;1.272704005241394;29.203125;50.929378509521484;7.586249828338623
964;0.0;0.0;0.0;-0.09662400186061859;1.4161759614944458;1.2766079902648926;0.0;0.0;0.0
965;0.0;0.0;0.0;-0.11224000155925751;1.4630240201950073;1.2844159603118896;0.0;0.0;0.0
968;0.0;0.0;0.0;-0.17763200402259827;1.4474079608917236;1.2932000160217285;0.0;0.0;0.0
970;-0.24570798873901367;1.5630639791488647;1.142408013343811;-0.16299200057983398;1.4474079608917236;1.2932000160217285;21.433124542236328;51.20937728881836;20.886249542236328
972;0.0;0.0;0.0;-0.1698240041732788;1.4669280052185059;1.3010079860687256;0.0;0.0;0.0
974;0.0;0.0;0.0;-0.17763200402259827;1.4708319902420044;1.3498079776763916;0.0;0.0;0.0
976;0.0;0.0;0.0;-0.20495998859405518;1.474735975265503;1.3293119668960571;0.0;0.0;0.0
978;-0.31207600235939026;1.5918560028076172;1.1902319192886353;-0.2518079876899719;1.4708319902420044;1.3654239177703857;14.923125267028809;48.759376525878906;35.51625061035156
980;0.0;0.0;0.0;-0.26742398738861084;1.4552159309387207;1.3781119585037231;0.0;0.0;0.0
982;0.0;0.0;0.0;-0.2869440019130707;1.4122719764709473;1.3693280220031738;0.0;0.0;0.0
985;0.0;0.0;0.0;-0.2752319872379303;1.4005600214004517;1.3820159435272217;0.0;0.0;0.0
987;-0.3879599869251251;1.5418360233306885;1.2431799173355103;-0.3025600016117096;1.377135992050171;1.3859199285507202;8.483124732971191;37.27937698364258;50.63624954223633
989;0.0;0.0;0.0;-0.27132800221443176;1.3498079776763916;1.3781119585037231;0.0;0.0;0.0
991;0.0;0.0;0.0;-0.26742398738861084;1.295151948928833;1.3781119585037231;0.0;0.0;0.0
993;0.0;0.0;0.0;-0.27132800221443176;1.2834399938583374;1.3693280220031738;0.0;0.0;0.0
995;-0.39698800444602966;1.447651982307434;1.2414720058441162;-0.236191987991333;1.287343978881836;1.3859199285507202;0.7831250429153442;14.879375457763672;65.82625579833984
998;0.0;0.0;0.0;-0.26742398738861084;1.262943983078003;1.3615199327468872;0.0;0.0;0.0
1000;0.0;0.0;0.0;-0.2518079876899719;1.2395199537277222;1.3371199369430542;0.0;0.0;0.0
1002;0.0;0.0;0.0;-0.2635200023651123;1.2121919393539429;1.3537119626998901;0.0;0.0;0.0
1004;-0.38308000564575195;1.3637160062789917;1.219756007194519;-0.25571200251579285;1.1692479848861694;1.3371199369430542;-10.13687515258789;-2.6906251907348633;77.79625701904297
1006;0.0;0.0;0.0;-0.25571200251579285;1.1458239555358887;1.3127199411392212;0.0;0.0;0.0
1008;0.0;0.0;0.0;-0.2479040026664734;1.126304030418396;1.3049119710922241;0.0;0.0;0.0
1010;0.0;0.0;0.0;-0.22838398814201355;1.083359956741333;1.2522079944610596;0.0;0.0;0.0
1012;-0.3713679909706116;1.2492799758911133;1.1619279384613037;-0.2205759882926941;1.036512017250061;1.248304009437561;-25.396875381469727;-13.750625610351562;85.98625183105469
1014;0.0;0.0;0.0;-0.20105600357055664;1.036512017250061;1.223904013633728;0.0;0.0;0.0
1017;0.0;0.0;0.0;-0.19715198874473572;0.9935680031776428;1.175104022026062;0.0;0.0;0.0
1019;0.0;0.0;0.0;-0.1542080044746399;0.9467200040817261;1.1790080070495605;0.0;0.0;0.0
1021;-0.30402398109436035;1.1199599504470825;1.0611560344696045;-0.13176000118255615;0.9076799750328064;1.1389919519424438;-39.676876068115234;-23.200624465942383;93.89625549316406
1023;0.0;0.0;0.0;-0.11614400148391724;0.8217920064926147;1.0775039196014404;0.0;0.0;0.0
1025;0.0;0.0;0.0;-0.06539200246334076;0.8452159762382507;1.0814080238342285;0.0;0.0;0.0
1027;0.0;0.0;0.0;-0.13176000118255615;0.8569279909133911;1.0335839986801147;0.0;0.0;0.0
1029;-0.21740399301052094;0.9637999534606934;0.9408639669418335;-0.06929600238800049;0.8100799918174744;1.0335839986801147;-46.956878662109375;-28.73062515258789;103.76625061035156
1032;0.0;0.0;0.0;-0.04196799919009209;0.7163839936256409;1.0130879878997803;0.0;0.0;0.0
1034;0.0;0.0;0.0;-0.018543999642133713;0.685151994228363;1.0169919729232788;0.0;0.0;0.0
1036;0.0;0.0;0.0;-0.0849120020866394;0.6148799657821655;0.9193919897079468;0.0;0.0;0.0
1038;-0.1844639927148819;0.802515983581543;0.848143994808197;-0.09662400186061859;0.536799967288971;0.8705919981002808;-48.98687744140625;-29.430625915527344;116.36625671386719
1040;0.0;0.0;0.0;-0.07710400223731995;0.4899519979953766;0.8666880130767822;0.0;0.0;0.0
1042;0.0;0.0;0.0;-0.0029279999434947968;0.3689279854297638;0.8305760025978088;0.0;0.0;0.0
1044;0.0;0.0;0.0;-0.053679998964071274;0.3142719864845276;0.8461920022964478;0.0;0.0;0.0
1046;-0.1622599959373474;0.5148400068283081;0.7239480018615723;-0.006831999868154526;0.22448000311851501;0.8305760025978088;-45.766876220703125;-23.900625228881836;127.35625457763672
1049;0.0;0.0;0.0;-0.049775999039411545;0.17372798919677734;0.8461920022964478;0.0;0.0;0.0
1051;0.0;0.0;0.0;-0.0302559994161129;0.04879999905824661;0.8422879576683044;0.0;0.0;0.0
1053;0.0;0.0;0.0;-0.0849120020866394;-0.044895999133586884;0.8422879576683044;0.0;0.0;0.0
1055;-0.17031200230121613;0.18348799645900726;0.7163839936256409;-0.07320000231266022;-0.15030398964881897;0.8588799834251404;-37.7868766784668;-12.140625;135.26625061035156
1057;0.0;0.0;0.0;-0.08100800216197968;-0.21276798844337463;0.8754720091819763;0.0;0.0;0.0
1059;0.0;0.0;0.0;-0.13468798995018005;-0.34940800070762634;0.9076799750328064;0.0;0.0;0.0
1061;0.0;0.0;0.0;-0.15811198949813843;-0.38844799995422363;0.9037759900093079;0.0;0.0;0.0
1063;-0.2496119886636734;-0.18299999833106995;0.7654280066490173;-0.1815359890460968;-0.4899519979953766;0.9193919897079468;-29.806875228881836;-0.9406249523162842;140.2362518310547
1065;0.0;0.0;0.0;-0.20495998859405518;-0.5904799699783325;0.9759999513626099;0.0;0.0;0.0
1068;0.0;0.0;0.0;-0.22448000311851501;-0.6958879828453064;0.9515999555587769;0.0;0.0;0.0
1070;0.0;0.0;0.0;-0.2518079876899719;-0.7778719663619995;1.0169919729232788;0.0;0.0;0.0
1072;-0.35160398483276367;-0.5531479716300964;0.8491199612617493;-0.2635200023651123;-0.8637599945068359;1.0413919687271118;-22.806875228881836;9.139374732971191;139.396240234375
1074;0.0;0.0;0.0;-0.2908479869365692;-0.9223200082778931;1.0823839902877808;0.0;0.0;0.0
1076;0.0;0.0;0.0;-0.24009600281715393;-0.9886879920959473;1.0901919603347778;0.0;0.0;0.0
1078;0.0;0.0;0.0;-0.29475200176239014;-1.0472480058670044;1.1389919519424438;0.0;0.0;0.0
1080;-0.3903999924659729;-0.843995988368988;0.9669719934463501;-0.2518079876899719;-1.0862879753112793;1.134112000465393;-18.326875686645508;10.889374732971191;130.5762481689453
1083;0.0;0.0;0.0;-0.27132800221443176;-1.101904034614563;1.1712000370025635;0.0;0.0;0.0
1085;0.0;0.0;0.0;-0.27132800221443176;-1.1136159896850586;1.1956000328063965;0.0;0.0;0.0
1087;0.0;0.0;0.0;-0.2479040026664734;-1.1448479890823364;1.199504017829895;0.0;0.0;0.0
1089;-0.38429999351501465;-0.9869799613952637;1.0472480058670044;-0.2479040026664734;-1.140944004058838;1.1956000328063965;-15.526874542236328;-1.850624918937683;118.25625610351562
1091;0.0;0.0;0.0;-0.17372798919677734;-1.1760799884796143;1.1916959285736084;0.0;0.0;0.0
1093;0.0;0.0;0.0;-0.15811198949813843;-1.1682720184326172;1.1916959285736084;0.0;0.0;0.0
1095;0.0;0.0;0.0;-0.08881600201129913;-1.246351957321167;1.175104022026062;0.0;0.0;0.0
1097;-0.27498799562454224;-1.0623760223388672;1.067255973815918;-0.08881600201129913;-1.2502559423446655;1.1790080070495605;-17.13687515258789;-22.85062599182129;109.01625061035156
1100;0.0;0.0;0.0;-0.03415999934077263;-1.2941759824752808;1.1633919477462769;0.0;0.0;0.0
1102;0.0;0.0;0.0;0.00878399983048439;-1.3644479513168335;1.126304030418396;0.0;0.0;0.0
1104;0.0;0.0;0.0;0.04782399907708168;-1.4464319944381714;1.1350879669189453;0.0;0.0;0.0
1106;-0.11492399871349335;-1.2312239408493042;1.0152839422225952;0.0634399950504303;-1.4464319944381714;1.1389919519424438;-21.336875915527344;-27.890625;103.90625
1108;0.0;0.0;0.0;0.06734399497509003;-1.4737600088119507;1.182911992073059;0.0;0.0;0.0
1110;0.0;0.0;0.0;0.10150399804115295;-1.6143039464950562;1.150704026222229;0.0;0.0;0.0
1112;0.0;0.0;0.0;0.06734399497509003;-1.645535945892334;1.175104022026062;0.0;0.0;0.0
1114;-0.05563199892640114;-1.4469199180603027;1.046515941619873;0.024399999529123306;-1.6806719303131104;1.248304009437561;-25.6768741607666;-5.700624942779541;95.4362564086914
1117;0.0;0.0;0.0;0.04391999915242195;-1.793887972831726;1.231711983680725;0.0;0.0;0.0
1119;0.0;0.0;0.0;0.028303999453783035;-1.8797760009765625;1.248304009437561;0.0;0.0;0.0
1121;0.0;0.0;0.0;-0.03415999934077263;-1.9266239404678345;1.3332159519195557;0.0;0.0;0.0
1123;-0.12297599762678146;-1.71288001537323;1.1387479305267334;-0.053679998964071274;-1.973471999168396;1.32150399684906;-30.156875610351562;18.2393741607666;80.66625213623047
1125;0.0;0.0;0.0;-0.049775999039411545;-2.020319938659668;1.3615199327468872;0.0;0.0;0.0
1127;0.0;0.0;0.0;-0.11614400148391724;-2.0749759674072266;1.3732320070266724;0.0;0.0;0.0
1129;0.0;0.0;0.0;-0.1395680010318756;-2.0827839374542236;1.3781119585037231;0.0;0.0;0.0
1131;-0.22887200117111206;-1.9105199575424194;1.2424479722976685;-0.1815359890460968;-2.0827839374542236;1.4025119543075562;-30.436874389648438;21.7393741607666;62.88624954223633
1134;0.0;0.0;0.0;-0.15518400073051453;-2.101327896118164;1.4347199201583862;0.0;0.0;0.0
1136;0.0;0.0;0.0;-0.13566400110721588;-2.101327896118164;1.45033597946167;0.0;0.0;0.0
1138;0.0;0.0;0.0;-0.14640000462532043;-2.1247520446777344;1.45033597946167;0.0;0.0;0.0
1140;-0.27718400955200195;-1.9807919263839722;1.2995439767837524;-0.1542080044746399;-2.1637918949127197;1.425935983657837;-25.88687515258789;7.249374866485596;42.79624938964844
1142;0.0;0.0;0.0;-0.1698240041732788;-2.183311939239502;1.3859199285507202;0.0;0.0;0.0
1144;0.0;0.0;0.0;-0.11224000155925751;-2.175503969192505;1.3781119585037231;0.0;0.0;0.0
1146;0.0;0.0;0.0;-0.10833600163459778;-2.183311939239502;1.3537119626998901;0.0;0.0;0.0
1148;-0.2496119886636734;-2.037155866622925;1.2514759302139282;-0.08100800216197968;-2.1637918949127197;1.345903992652893;-18.95687484741211;-21.10062599182129;23.26624870300293
1151;0.0;0.0;0.0;-0.06929600238800049;-2.1413440704345703;1.3088159561157227;0.0;0.0;0.0
1153;0.0;0.0;0.0;-0.03806399926543236;-2.125727891921997;1.2600159645080566;0.0;0.0;0.0
1155;0.0;0.0;0.0;-0.053679998964071274;-2.0788800716400146;1.223904013633728;0.0;0.0;0.0
1157;-0.17494799196720123;-1.9646879434585571;1.1426520347595215;-0.03806399926543236;-2.012511968612671;1.182911992073059;-11.256875038146973;-42.170623779296875;3.036250114440918
1159;0.0;0.0;0.0;-0.053679998964071274;-2.004703998565674;1.1672959327697754;0.0;0.0;0.0
1161;0.0;0.0;0.0;0.004879999905824661;-1.9695680141448975;1.1106879711151123;0.0;0.0;0.0
1163;0.0;0.0;0.0;0.04001599922776222;-1.9110080003738403;1.0862879753112793;0.0;0.0;0.0
1165;-0.11443600058555603;-1.8263399600982666;0.9889319539070129;0.0634399950504303;-1.891487956047058;1.0618879795074463;-4.956874847412109;-52.53062438964844;-16.353750228881836
1168;0.0;0.0;0.0;0.08295999467372894;-1.8368319272994995;0.9964959621429443;0.0;0.0;0.0
1170;0.0;0.0;0.0;0.1327359974384308;-1.7704639434814453;0.9564799666404724;0.0;0.0;0.0
1172;0.0;0.0;0.0;0.1210239976644516;-1.7158079147338867;0.9154880046844482;0.0;0.0;0.0
1174;-0.022935999557375908;-1.641387939453125;0.8417999744415283;0.11711999773979187;-1.6650559902191162;0.9076799750328064;1.0631250143051147;-55.330623626708984;-32.873748779296875
1176;0.0;0.0;0.0;0.12492799758911133;-1.6221119165420532;0.8949919939041138;0.0;0.0;0.0
1178;0.0;0.0;0.0;0.1600639969110489;-1.5635520219802856;0.8666880130767822;0.0;0.0;0.0
1180;0.0;0.0;0.0;0.17958399653434753;-1.5049920082092285;0.8217920064926147;0.0;0.0;0.0
1182;0.03903999924659729;-1.4208120107650757;0.7268759608268738;0.18348799645900726;-1.45033597946167;0.8217920064926147;6.033124923706055;-54.63062286376953;-45.75374984741211
1185;0.0;0.0;0.0;0.21081599593162537;-1.3878719806671143;0.773967981338501;0.0;0.0;0.0
1187;0.0;0.0;0.0;0.230335995554924;-1.3800640106201172;0.749567985534668;0.0;0.0;0.0
1189;0.0;0.0;0.0;0.23814399540424347;-1.3293119668960571;0.7446879744529724;0.0;0.0;0.0
1191;0.1012599989771843;-1.2200000286102295;0.6309840083122253;0.24595199525356293;-1.2590399980545044;0.7290719747543335;7.503125190734863;-50.850624084472656;-54.85375213623047
1193;0.0;0.0;0.0;0.2654719948768616;-1.2356159687042236;0.700767993927002;0.0;0.0;0.0
1195;0.0;0.0;0.0;0.30060797929763794;-1.1770559549331665;0.708575963973999;0.0;0.0;0.0
1197;0.0;0.0;0.0;0.3084160089492798;-1.1926720142364502;0.676367998123169;0.0;0.0;0.0
1199;0.15957599878311157;-1.063107967376709;0.575107991695404;0.3201279938220978;-1.126304030418396;0.6802719831466675;4.073124885559082;-39.02062225341797;-63.11375045776367
1202;0.0;0.0;0.0;0.3396480083465576;-1.101904034614563;0.6685599684715271;0.0;0.0;0.0
1204;0.0;0.0;0.0;0.3201279938220978;-1.0706720352172852;0.6724640130996704;0.0;0.0;0.0
1206;0.0;0.0;0.0;0.3396480083465576;-1.0550559759140015;0.659775972366333;0.0;0.0;0.0
1208;0.19471199810504913;-0.9335439801216125;0.5446079969406128;0.29280000925064087;-1.0003999471664429;0.708575963973999;-2.296875;-15.150625228881836;-71.09375
1210;0.0;0.0;0.0;0.3396480083465576;-0.9730719923973083;0.700767993927002;0.0;0.0;0.0
1212;0.0;0.0;0.0;0.27718400955200195;-0.9535520076751709;0.6968640089035034;0.0;0.0;0.0
1214;0.0;0.0;0.0;0.230335995554924;-0.9184159636497498;0.7212640047073364;0.0;0.0;0.0
1216;0.15079200267791748;-0.8171559572219849;0.5807200074195862;0.19519999623298645;-0.8988959789276123;0.7290719747543335;-8.946874618530273;15.369375228881836;-77.95375061035156
1219;0.0;0.0;0.0;0.1756799966096878;-0.8920639753341675;0.773967981338501;0.0;0.0;0.0
1221;0.0;0.0;0.0;0.19519999623298645;-0.8686400055885315;0.8383839726448059;0.0;0.0;0.0
1223;0.0;0.0;0.0;0.16396799683570862;-0.8686400055885315;0.8344799876213074;0.0;0.0;0.0
1225;0.0453839972615242;-0.7319999933242798;0.6768559813499451;0.13663999736309052;-0.8217920064926147;0.8510719537734985;-13.63687515258789;38.7493782043457;-83.13374328613281
1227;0.0;0.0;0.0;0.09467199444770813;-0.8217920064926147;0.8510719537734985;0.0;0.0;0.0
1229;0.0;0.0;0.0;0.07124799489974976;-0.798367977142334;0.8871839642524719;0.0;0.0;0.0
1231;0.0;0.0;0.0;0.06734399497509003;-0.8061760067939758;0.9320799708366394;0.0;0.0;0.0
1233;-0.046115998178720474;-0.6631919741630554;0.7654280066490173;0.024399999529123306;-0.774944007396698;0.9925919771194458;-12.656874656677246;48.899375915527344;-85.8637466430664
1236;0.0;0.0;0.0;-0.0029279999434947968;-0.7359039783477783;0.9847840070724487;0.0;0.0;0.0
1238;0.0;0.0;0.0;-0.014639999717473984;-0.7515199780464172;1.0091840028762817;0.0;0.0;0.0
1240;0.0;0.0;0.0;-0.057583998888731;-0.6968640089035034;0.9847840070724487;0.0;0.0;0.0
1242;-0.15176799893379211;-0.5880399942398071;0.868395984172821;-0.09662400186061859;-0.6617279648780823;1.0052800178527832;-9.226875305175781;42.739376068115234;-87.75374603271484
1244;0.0;0.0;0.0;-0.08100800216197968;-0.6304959654808044;1.0491999387741089;0.0;0.0;0.0
1246;0.0;0.0;0.0;-0.09272000193595886;-0.6226879954338074;1.0579839944839478;0.0;0.0;0.0
1248;0.0;0.0;0.0;-0.10443200170993805;-0.6031680107116699;1.0696959495544434;0.0;0.0;0.0
1250;-0.2235039919614792;-0.48970797657966614;0.9252479672431946;-0.12004800140857697;-0.5797439813613892;1.0823839902877808;-6.076874732971191;27.339374542236328;-90.27375030517578
1253;0.0;0.0;0.0;-0.09272000193595886;-0.521183967590332;1.0940959453582764;0.0;0.0;0.0
1255;0.0;0.0;0.0;-0.08100800216197968;-0.5641279816627502;1.0169919729232788;0.0;0.0;0.0
1257;0.0;0.0;0.0;-0.0302559994161129;-0.5016639828681946;1.0374879837036133;0.0;0.0;0.0
1259;-0.18397599458694458;-0.4004040062427521;0.9167079925537109;-0.02635199949145317;-0.5016639828681946;1.0335839986801147;-6.916874885559082;8.229374885559082;-92.23374938964844
1261;0.0;0.0;0.0;-0.006831999868154526;-0.49775999784469604;0.9925919771194458;0.0;0.0;0.0
1263;0.0;0.0;0.0;0.020495999604463577;-0.48604798316955566;1.0287039279937744;0.0;0.0;0.0
1265;0.0;0.0;0.0;-0.010735999792814255;-0.45481598377227783;1.0091840028762817;0.0;0.0;0.0
1267;-0.11541199684143066;-0.3369639813899994;0.8786439895629883;-0.006831999868154526;-0.45871999859809875;1.0003999471664429;-7.126874923706055;3.609375;-94.6137466430664
1270;0.0;0.0;0.0;-0.006831999868154526;-0.4421280026435852;1.0091840028762817;0.0;0.0;0.0
1272;0.0;0.0;0.0;0.004879999905824661;-0.43432000279426575;0.9759999513626099;0.0;0.0;0.0
1274;0.0;0.0;0.0;-0.014639999717473984;-0.4108960032463074;0.9808799624443054;0.0;0.0;0.0
1276;-0.12809999287128448;-0.27206000685691833;0.8537560105323792;0.00878399983048439;-0.3484320044517517;0.9603840112686157;-9.226875305175781;7.249374866485596;-98.18374633789062
1278;0.0;0.0;0.0;-0.02635199949145317;-0.32500800490379333;1.0091840028762817;0.0;0.0;0.0
1280;0.0;0.0;0.0;0.04001599922776222;-0.3054879903793335;1.0043039321899414;0.0;0.0;0.0
1282;0.0;0.0;0.0;0.05563199892640114;-0.2664479911327362;0.9808799624443054;0.0;0.0;0.0
1284;-0.10028399527072906;-0.16713999211788177;0.856440007686615;0.04391999915242195;-0.2508319914340973;0.9564799666404724;-9.8568754196167;11.939374923706055;-101.47374725341797
1287;0.0;0.0;0.0;0.05953599885106087;-0.23228800296783447;0.9564799666404724;0.0;0.0;0.0
1289;0.0;0.0;0.0;0.07124799489974976;-0.21667200326919556;0.9681919813156128;0.0;0.0;0.0
1291;0.0;0.0;0.0;0.08295999467372894;-0.17372798919677734;0.9847840070724487;0.0;0.0;0.0
1293;-0.054655998945236206;-0.07051599770784378;0.8452159762382507;0.1210239976644516;-0.16591998934745789;0.9564799666404724;-9.016875267028809;16.349374771118164;-101.89374542236328
1295;0.0;0.0;0.0;0.08979199826717377;-0.1268799901008606;0.9525759816169739;0.0;0.0;0.0
1297;0.0;0.0;0.0;0.08979199826717377;-0.09564799815416336;0.9476959705352783;0.0;0.0;0.0
1299;0.0;0.0;0.0;0.0634399950504303;-0.08003199845552444;0.9925919771194458;0.0;0.0;0.0
1301;-0.03537999838590622;0.03635599836707115;0.835211992263794;0.09467199444770813;-0.02147199958562851;0.9886879920959473;-4.046875;18.659374237060547;-98.8137435913086
1304;0.0;0.0;0.0;0.08686399459838867;0.010735999792814255;0.9886879920959473;0.0;0.0;0.0
1306;0.0;0.0;0.0;0.0936959981918335;0.03415999934077263;0.9759999513626099;0.0;0.0;0.0
1308;0.0;0.0;0.0;0.07905599474906921;0.057583998888731;0.9564799666404724;0.0;0.0;0.0
1310;-0.02635199949145317;0.1651879996061325;0.8425319790840149;0.12492799758911133;0.07710400223731995;0.9525759816169739;-0.6868749856948853;18.2393741607666;-92.72374725341797
1312;0.0;0.0;0.0;0.16396799683570862;0.11614400148391724;0.9808799624443054;0.0;0.0;0.0
1314;0.0;0.0;0.0;0.13663999736309052;0.12004800140857697;0.9847840070724487;0.0;0.0;0.0
1316;0.0;0.0;0.0;0.1210239976644516;0.13176000118255615;1.0130879878997803;0.0;0.0;0.0
1318;0.007075999863445759;0.24619600176811218;0.8588799834251404;0.07905599474906921;0.14737600088119507;1.0208959579467773;1.9731248617172241;28.7393741607666;-88.03374481201172
1321;0.0;0.0;0.0;0.07905599474906921;0.15811198949813843;1.0452959537506104;0.0;0.0;0.0
1323;0.0;0.0;0.0;0.05563199892640114;0.20495998859405518;1.0335839986801147;0.0;0.0;0.0
1325;0.0;0.0;0.0;0.03611199930310249;0.18934398889541626;1.0130879878997803;0.0;0.0;0.0
1327;-0.06954000145196915;0.31622397899627686;0.8979200124740601;0.04001599922776222;0.19324800372123718;1.0579839944839478;4.003125190734863;39.519378662109375;-81.03374481201172
1329;0.0;0.0;0.0;0.01659199967980385;0.29865598678588867;1.0696959495544434;0.0;0.0;0.0
1331;0.0;0.0;0.0;0.028303999453783035;0.2205759882926941;1.0374879837036133;0.0;0.0;0.0
1333;0.0;0.0;0.0;0.03611199930310249;0.10345599800348282;1.0374879837036133;0.0;0.0;0.0
1335;-0.09637999534606934;0.3396480083465576;0.9372040033340454;-0.010735999792814255;0.24009600281715393;1.1302080154418945;8.413125038146973;44.27937698364258;-74.38374328613281
1338;0.0;0.0;0.0;-0.02635199949145317;0.24399998784065247;1.1389919519424438;0.0;0.0;0.0
1340;0.0;0.0;0.0;-0.06929600238800049;0.21276798844337463;1.1302080154418945;0.0;0.0;0.0
1342;0.0;0.0;0.0;-0.15030398964881897;0.21667200326919556;1.1916959285736084;0.0;0.0;0.0
1344;-0.20276398956775665;0.3479439914226532;1.020651936531067;-0.17372798919677734;0.25571200251579285;1.2278079986572266;14.783124923706055;51.62937545776367;-70.74374389648438
1346;0.0;0.0;0.0;-0.16591998934745789;0.2908479869365692;1.272704005241394;0.0;0.0;0.0
1348;0.0;0.0;0.0;-0.19715198874473572;0.30646398663520813;1.2883199453353882;0.0;0.0;0.0
1350;0.0;0.0;0.0;-0.24009600281715393;0.33769598603248596;1.3293119668960571;0.0;0.0;0.0
1352;-0.3315959870815277;0.4450559914112091;1.1589999198913574;-0.2791360020637512;0.4079679846763611;1.3693280220031738;16.813125610351562;52.81937789916992;-71.58374786376953
1355;0.0;0.0;0.0;-0.2908479869365692;0.4167519807815552;1.3537119626998901;0.0;0.0;0.0
1357;0.0;0.0;0.0;-0.3142719864845276;0.447983980178833;1.3654239177703857;0.0;0.0;0.0
1359;0.0;0.0;0.0;-0.31036800146102905;0.4596959948539734;1.3693280220031738;0.0;0.0;0.0
1361;-0.4223639965057373;0.574131965637207;1.234395980834961;-0.2752319872379303;0.5104479789733887;1.3976320028305054;14.153124809265137;38.81937789916992;-69.76374816894531
1363;0.0;0.0;0.0;-0.2869440019130707;0.5260639786720276;1.3898239135742188;0.0;0.0;0.0
1365;0.0;0.0;0.0;-0.27132800221443176;0.5182560086250305;1.3898239135742188;0.0;0.0;0.0
1367;0.0;0.0;0.0;-0.236191987991333;0.5416799783706665;1.3820159435272217;0.0;0.0;0.0
1369;-0.3816159963607788;0.6666079759597778;1.2319560050964355;-0.19715198874473572;0.5690079927444458;1.3176000118255615;12.333125114440918;12.709375381469727;-64.8637466430664
1372;0.0;0.0;0.0;-0.18544000387191772;0.6070719957351685;1.2932000160217285;0.0;0.0;0.0
1374;0.0;0.0;0.0;-0.15811198949813843;0.6304959654808044;1.2648959159851074;0.0;0.0;0.0
1376;0.0;0.0;0.0;-0.12004800140857697;0.6539199948310852;1.2404959201812744;0.0;0.0;0.0
1378;-0.2752319872379303;0.7512759566307068;1.1292319297790527;-0.09272000193595886;0.6617279648780823;1.2160959243774414;13.943124771118164;-9.270625114440918;-56.39374923706055
1380;0.0;0.0;0.0;-0.06148799881339073;0.700767993927002;1.207311987876892;0.0;0.0;0.0
1382;0.0;0.0;0.0;-0.03806399926543236;0.7046719789505005;1.199504017829895;0.0;0.0;0.0
1384;0.0;0.0;0.0;-0.02635199949145317;0.7124800086021423;1.1712000370025635;0.0;0.0;0.0
1387;-0.16396799683570862;0.8242319822311401;1.0670119524002075;0.00878399983048439;0.7163839936256409;1.1712000370025635;16.11312484741211;-17.040624618530273;-47.36375045776367
1389;0.0;0.0;0.0;0.004879999905824661;0.7563999891281128;1.150704026222229;0.0;0.0;0.0
1391;0.0;0.0;0.0;0.04782399907708168;0.7642079591751099;1.182911992073059;0.0;0.0;0.0
1393;0.0;0.0;0.0;0.04391999915242195;0.8032479882240295;1.150704026222229;0.0;0.0;0.0
1395;-0.09198799729347229;0.8879159688949585;1.0145519971847534;0.04391999915242195;0.8071519732475281;1.1058080196380615;14.0131254196167;-13.470624923706055;-38.75374984741211
1397;0.0;0.0;0.0;0.05563199892640114;0.8422879576683044;1.150704026222229;0.0;0.0;0.0
1399;0.0;0.0;0.0;0.07905599474906921;0.8618080019950867;1.1428959369659424;0.0;0.0;0.0
1401;0.0;0.0;0.0;0.07515199482440948;0.8618080019950867;1.158511996269226;0.0;0.0;0.0
1404;-0.0605119988322258;0.9716079831123352;1.0182119607925415;0.07124799489974976;0.9008479714393616;1.158511996269226;8.833125114440918;1.0193750858306885;-31.89375114440918
1406;0.0;0.0;0.0;0.05563199892640114;0.8930400013923645;1.1712000370025635;0.0;0.0;0.0
1408;0.0;0.0;0.0;0.004879999905824661;0.9164639711380005;1.2160959243774414;0.0;0.0;0.0
1410;0.0;0.0;0.0;0.028303999453783035;0.9164639711380005;1.175104022026062;0.0;0.0;0.0
1412;-0.08369199931621552;1.0352920293807983;1.0540800094604492;0.024399999529123306;0.9242720007896423;1.158511996269226;0.8531250357627869;13.409375190734863;-25.52375030517578
1414;0.0;0.0;0.0;-0.006831999868154526;0.9398880004882812;1.1712000370025635;0.0;0.0;0.0
1416;0.0;0.0;0.0;-0.014639999717473984;0.986735999584198;1.1868159770965576;0.0;0.0;0.0
1419;0.0;0.0;0.0;-0.014639999717473984;1.0296800136566162;1.207311987876892;0.0;0.0;0.0
1421;-0.11565599590539932;1.1128839254379272;1.0606679916381836;-0.006831999868154526;1.002351999282837;1.2278079986572266;-4.256875038146973;20.339374542236328;-17.263750076293945
1423;0.0;0.0;0.0;0.03611199930310249;1.017967939376831;1.2112159729003906;0.0;0.0;0.0
1425;0.0;0.0;0.0;0.032207999378442764;1.0452959537506104;1.1712000370025635;0.0;0.0;0.0
1427;0.0;0.0;0.0;0.00878399983048439;1.0335839986801147;1.1428959369659424;0.0;0.0;0.0
1429;-0.10540799796581268;1.1604639291763306;1.0494439601898193;0.004879999905824661;1.0726239681243896;1.1302080154418945;-6.566874980926514;18.099374771118164;-5.573750019073486
1431;0.0;0.0;0.0;0.020495999604463577;1.0687199831008911;1.1672959327697754;0.0;0.0;0.0
1433;0.0;0.0;0.0;0.028303999453783035;1.0687199831008911;1.1712000370025635;0.0;0.0;0.0
1435;0.0;0.0;0.0;0.04782399907708168;1.0648159980773926;1.199504017829895;0.0;0.0;0.0
1438;-0.09686800092458725;1.1921839714050293;1.0399279594421387;0.0009759999811649323;1.0570080280303955;1.1916959285736084;-1.5268750190734863;20.4793758392334;8.706249237060547
1440;0.0;0.0;0.0;-0.018543999642133713;1.0648159980773926;1.1712000370025635;0.0;0.0;0.0
1442;0.0;0.0;0.0;-0.03806399926543236;1.0452959537506104;1.1956000328063965;0.0;0.0;0.0
1444;0.0;0.0;0.0;-0.03806399926543236;1.0413919687271118;1.182911992073059;0.0;0.0;0.0
1446;-0.15371999144554138;1.1746159791946411;1.0555440187454224;-0.049775999039411545;1.0218719244003296;1.207311987876892;2.2531251907348633;23.419374465942383;24.526248931884766
1448;0.0;0.0;0.0;-0.07710400223731995;1.010159969329834;1.2200000286102295;0.0;0.0;0.0
1450;0.0;0.0;0.0;-0.07710400223731995;0.986735999584198;1.248304009437561;0.0;0.0;0.0
1452;0.0;0.0;0.0;-0.10833600163459778;0.9828319549560547;1.2688000202178955;0.0;0.0;0.0
1455;-0.20788799226284027;1.1353319883346558;1.1104439496994019;-0.12004800140857697;1.002351999282837;1.2600159645080566;4.913125038146973;25.939374923706055;38.526248931884766
1457;0.0;0.0;0.0;-0.18934398889541626;0.9672159552574158;1.3127199411392212;0.0;0.0;0.0
1459;0.0;0.0;0.0;-0.19715198874473572;0.9594079852104187;1.3088159561157227;0.0;0.0;0.0
1461;0.0;0.0;0.0;-0.22448000311851501;0.9086560010910034;1.3254079818725586;0.0;0.0;0.0
1463;-0.3079279959201813;1.0479799509048462;1.1670520305633545;-0.22838398814201355;0.6822239756584167;1.2844159603118896;4.563125133514404;24.67937469482422;50.14624786376953
1465;0.0;0.0;0.0;-0.2088640034198761;0.9789279699325562;1.4308159351348877;0.0;0.0;0.0
1467;0.0;0.0;0.0;-0.3718560039997101;0.9633119702339172;1.4064159393310547;0.0;0.0;0.0
1469;0.0;0.0;0.0;-0.24399998784065247;0.9164639711380005;1.3693280220031738;0.0;0.0;0.0
1472;-0.39649999141693115;1.0352920293807983;1.2373239994049072;-0.2635200023651123;0.8032479882240295;1.3254079818725586;3.7231249809265137;10.959375381469727;59.10625076293945
1474;0.0;0.0;0.0;-0.2596159875392914;0.798367977142334;1.3049119710922241;0.0;0.0;0.0
1476;0.0;0.0;0.0;-0.3298879861831665;0.8022719621658325;1.3176000118255615;0.0;0.0;0.0
1478;0.0;0.0;0.0;-0.23228800296783447;0.8413119912147522;1.248304009437561;0.0;0.0;0.0
1480;-0.3938159942626953;0.944767951965332;1.1526559591293335;-0.24399998784065247;0.7827519774436951;1.1916959285736084;-0.19687500596046448;-11.510624885559082;69.8862533569336
1482;0.0;0.0;0.0;-0.16591998934745789;0.7632319927215576;1.2112159729003906;0.0;0.0;0.0
1484;0.0;0.0;0.0;-0.1239520013332367;0.7632319927215576;1.1877919435501099;0.0;0.0;0.0
1486;0.0;0.0;0.0;-0.13078400492668152;0.7554239630699158;1.150704026222229;0.0;0.0;0.0
1489;-0.27425599098205566;0.8832799792289734;1.0416359901428223;-0.13176000118255615;0.7241919636726379;1.101904034614563;1.3431249856948853;-30.620624542236328;78.2862548828125
1491;0.0;0.0;0.0;-0.13566400110721588;0.6812480092048645;1.0287039279937744;0.0;0.0;0.0
1493;0.0;0.0;0.0;-0.09662400186061859;0.6422079801559448;1.0208959579467773;0.0;0.0;0.0
1495;0.0;0.0;0.0;-0.08100800216197968;0.6226879954338074;0.9925919771194458;0.0;0.0;0.0
1497;-0.21691599488258362;0.7927559614181519;0.9040200114250183;-0.0302559994161129;0.6383039951324463;0.9847840070724487;3.583125114440918;-45.740623474121094;89.1362533569336
1499;0.0;0.0;0.0;-0.053679998964071274;0.6187840104103088;0.9720959663391113;0.0;0.0;0.0
1501;0.0;0.0;0.0;-0.006831999868154526;0.5992639660835266;0.9476959705352783;0.0;0.0;0.0
1503;0.0;0.0;0.0;-0.022447999566793442;0.5914559960365295;0.9564799666404724;0.0;0.0;0.0
1506;-0.13127200305461884;0.7241919636726379;0.8288679718971252;-0.014639999717473984;0.587552011013031;0.9320799708366394;1.203125;-43.78062438964844;97.81625366210938
1508;0.0;0.0;0.0;0.020495999604463577;0.513375997543335;0.8793759942054749;0.0;0.0;0.0
1510;0.0;0.0;0.0;0.03611199930310249;0.48604798316955566;0.8588799834251404;0.0;0.0;0.0
1512;0.0;0.0;0.0;0.03611199930310249;0.423583984375;0.8510719537734985;0.0;0.0;0.0
1514;-0.08979199826717377;0.5946279764175415;0.7544479966163635;0.04782399907708168;0.3728320002555847;0.8461920022964478;-8.526874542236328;-31.46062469482422;105.3062515258789
1516;0.0;0.0;0.0;0.07124799489974976;0.31036800146102905;0.8549759984016418;0.0;0.0;0.0
1518;0.0;0.0;0.0;0.06734399497509003;0.24009600281715393;0.8744959831237793;0.0;0.0;0.0
1520;0.0;0.0;0.0;0.04782399907708168;0.1815359890460968;0.8422879576683044;0.0;0.0;0.0
1523;-0.06954000145196915;0.37966400384902954;0.7300480008125305;0.004879999905824661;0.115167997777462;0.8793759942054749;-16.996875762939453;-12.140625;114.0562515258789
1525;0.0;0.0;0.0;-0.022447999566793442;0.02537599951028824;0.8588799834251404;0.0;0.0;0.0
1527;0.0;0.0;0.0;-0.0302559994161129;-0.0605119988322258;0.9027999639511108;0.0;0.0;0.0
1529;0.0;0.0;0.0;-0.08100800216197968;-0.16591998934745789;0.9271999597549438;0.0;0.0;0.0
1531;-0.17445999383926392;0.06831999868154526;0.7661600112915039;-0.10443200170993805;-0.2518079876899719;0.9359839558601379;-23.716875076293945;8.439374923706055;121.89625549316406
1533;0.0;0.0;0.0;-0.13859200477600098;-0.3455039858818054;0.9603840112686157;0.0;0.0;0.0
1535;0.0;0.0;0.0;-0.13176000118255615;-0.44310399889945984;1.0052800178527832;0.0;0.0;0.0
1537;0.0;0.0;0.0;-0.17372798919677734;-0.5524159669876099;1.0374879837036133;0.0;0.0;0.0
1540;-0.25351598858833313;-0.32427600026130676;0.8708359599113464;-0.15811198949813843;-0.6539199948310852;1.0657919645309448;-29.946874618530273;21.389375686645508;125.1862564086914
1542;0.0;0.0;0.0;-0.1815359890460968;-0.7671359777450562;1.0940959453582764;0.0;0.0;0.0
1544;0.0;0.0;0.0;-0.20105600357055664;-0.8530240058898926;1.126304030418396;0.0;0.0;0.0
1546;0.0;0.0;0.0;-0.236191987991333;-0.9428159594535828;1.175104022026062;0.0;0.0;0.0
1548;-0.3235439956188202;-0.7319999933242798;1.0116239786148071;-0.21667200326919556;-1.0716480016708374;1.2112159729003906;-36.526878356933594;28.31937599182129;122.66625213623047
1550;0.0;0.0;0.0;-0.236191987991333;-1.1497279405593872;1.2766079902648926;0.0;0.0;0.0
1552;0.0;0.0;0.0;-0.2908479869365692;-1.2590399980545044;1.2844159603118896;0.0;0.0;0.0
1554;0.0;0.0;0.0;-0.2791360020637512;-1.3019839525222778;1.3293119668960571;0.0;0.0;0.0
1557;-0.39308398962020874;-1.1023919582366943;1.1604639291763306;-0.32207998633384705;-1.4073920249938965;1.3742079734802246;-43.456878662109375;24.329374313354492;115.94625091552734
1559;0.0;0.0;0.0;-0.2635200023651123;-1.5284159183502197;1.4064159393310547;0.0;0.0;0.0
1561;0.0;0.0;0.0;-0.3025600016117096;-1.606495976448059;1.4103199243545532;0.0;0.0;0.0
1563;0.0;0.0;0.0;-0.27132800221443176;-1.735327959060669;1.4308159351348877;0.0;0.0;0.0
1565;-0.4096759855747223;-1.483031988143921;1.2819759845733643;-0.2908479869365692;-1.8563519716262817;1.4591199159622192;-52.696876525878906;19.639375686645508;103.1362533569336
1567;0.0;0.0;0.0;-0.2635200023651123;-1.9031999111175537;1.4913280010223389;0.0;0.0;0.0
1569;0.0;0.0;0.0;-0.26742398738861084;-2.0593600273132324;1.4835200309753418;0.0;0.0;0.0
1572;0.0;0.0;0.0;-0.2752319872379303;-2.1413440704345703;1.5274399518966675;0.0;0.0;0.0
1574;-0.40064799785614014;-1.9117399454116821;1.354200005531311;-0.28303998708724976;-2.2662720680236816;1.499135971069336;-54.516876220703125;16.76937484741211;87.24625396728516
1576;0.0;0.0;0.0;-0.32207998633384705;-2.3638720512390137;1.523535966873169;0.0;0.0;0.0
1578;0.0;0.0;0.0;-0.29865598678588867;-2.492703914642334;1.523535966873169;0.0;0.0;0.0
1580;0.0;0.0;0.0;-0.31036800146102905;-2.6098239421844482;1.5401279926300049;0.0;0.0;0.0
1582;-0.43480798602104187;-2.3480119705200195;1.3990960121154785;-0.33671998977661133;-2.6605758666992188;1.5606240034103394;-44.856876373291016;5.07937479019165;69.74625396728516
1584;0.0;0.0;0.0;-0.3484320044517517;-2.7347519397735596;1.547935962677002;0.0;0.0;0.0
1586;0.0;0.0;0.0;-0.3298879861831665;-2.793311834335327;1.564527988433838;0.0;0.0;0.0
1588;0.0;0.0;0.0;-0.3445279896259308;-2.855775833129883;1.5440319776535034;0.0;0.0;0.0
1591;-0.44773998856544495;-2.6532559394836426;1.4188599586486816;-0.3337920010089874;-2.867487907409668;1.547935962677002;-28.266874313354492;-19.770626068115234;46.22624969482422
1593;0.0;0.0;0.0;-0.2869440019130707;-2.8899359703063965;1.5118240118026733;0.0;0.0;0.0
1595;0.0;0.0;0.0;-0.236191987991333;-2.8938398361206055;1.4630240201950073;0.0;0.0;0.0
1597;0.0;0.0;0.0;-0.2088640034198761;-2.862607955932617;1.4308159351348877;0.0;0.0;0.0
1599;-0.3535560071468353;-2.720111846923828;1.3388279676437378;-0.15030398964881897;-2.7923359870910645;1.4142240285873413;-11.95687484741211;-52.740623474121094;17.24625015258789
1601;0.0;0.0;0.0;-0.13176000118255615;-2.749392032623291;1.3332159519195557;0.0;0.0;0.0
1603;0.0;0.0;0.0;-0.09272000193595886;-2.643983840942383;1.3049119710922241;0.0;0.0;0.0
1606;0.0;0.0;0.0;-0.07320000231266022;-2.581519842147827;1.2395199537277222;0.0;0.0;0.0
1608;-0.2256999909877777;-2.5110039710998535;1.1619279384613037;-0.03415999934077263;-2.5151519775390625;1.1594879627227783;1.203125;-76.33061981201172;-12.783750534057617
1610;0.0;0.0;0.0;0.00878399983048439;-2.4136478900909424;1.1106879711151123;0.0;0.0;0.0
1612;0.0;0.0;0.0;0.05563199892640114;-2.3511838912963867;1.0247999429702759;0.0;0.0;0.0
1614;0.0;0.0;0.0;0.09467199444770813;-2.288719892501831;0.9759999513626099;0.0;0.0;0.0
1616;-0.0663679987192154;-2.223083972930908;0.9284200072288513;0.15615999698638916;-2.2184479236602783;0.9271999597549438;10.933125495910645;-88.72062683105469;-38.75374984741211
1618;0.0;0.0;0.0;0.19129599630832672;-2.1559839248657227;0.8754720091819763;0.0;0.0;0.0
1620;0.0;0.0;0.0;0.20691199600696564;-2.070096015930176;0.8217920064926147;0.0;0.0;0.0
1623;0.0;0.0;0.0;0.2654719948768616;-1.9920159578323364;0.7612800002098083;0.0;0.0;0.0
1625;0.10272400081157684;-1.9358959197998047;0.6988160014152527;0.29280000925064087;-1.898319959640503;0.7124800086021423;20.943124771118164;-88.58061981201172;-58.563751220703125
1627;0.0;0.0;0.0;0.3084160089492798;-1.8016959428787231;0.6558719873428345;0.0;0.0;0.0
1629;0.0;0.0;0.0;0.34355199337005615;-1.6845759153366089;0.6441599726676941;0.0;0.0;0.0
1631;0.0;0.0;0.0;0.34355199337005615;-1.5674560070037842;0.6314719915390015;0.0;0.0;0.0
1633;0.20178799331188202;-1.5447639226913452;0.5275279879570007;0.35526400804519653;-1.4698560237884521;0.5953599810600281;31.723125457763672;-73.95062255859375;-71.8637466430664
1635;0.0;0.0;0.0;0.3669759929180145;-1.360543966293335;0.5826719999313354;0.0;0.0;0.0
1637;0.0;0.0;0.0;0.3201279938220978;-1.2434239387512207;0.5826719999313354;0.0;0.0;0.0
1640;0.0;0.0;0.0;0.3513599932193756;-1.1848639249801636;0.5582720041275024;0.0;0.0;0.0
1642;0.2176479995250702;-1.132159948348999;0.45164400339126587;0.3513599932193756;-1.122399926185608;0.5426560044288635;36.83312225341797;-52.11062240600586;-78.93374633789062
1644;0.0;0.0;0.0;0.3513599932193756;-1.036512017250061;0.5299679636955261;0.0;0.0;0.0
1646;0.0;0.0;0.0;0.34355199337005615;-0.9428159594535828;0.5260639786720276;0.0;0.0;0.0
1648;0.0;0.0;0.0;0.3903999924659729;-0.8803519606590271;0.5260639786720276;0.0;0.0;0.0
1650;0.23985199630260468;-0.8173999786376953;0.4096759855747223;0.3513599932193756;-0.8295999765396118;0.5094720125198364;34.52312469482422;-26.000625610351562;-82.64374542236328
1652;0.0;0.0;0.0;0.37088000774383545;-0.7632319927215576;0.522159993648529;0.0;0.0;0.0
1654;0.0;0.0;0.0;0.3669759929180145;-0.708575963973999;0.5826719999313354;0.0;0.0;0.0
1657;0.0;0.0;0.0;0.3240320086479187;-0.6539199948310852;0.5709599852561951;0.0;0.0;0.0
1659;0.21227999031543732;-0.56632399559021;0.4428599774837494;0.2654719948768616;-0.6148799657821655;0.6070719957351685;30.463125228881836;9.069375038146973;-84.60374450683594
1661;0.0;0.0;0.0;0.2147199958562851;-0.5328959822654724;0.6480640172958374;0.0;0.0;0.0
1663;0.0;0.0;0.0;0.2147199958562851;-0.47433599829673767;0.6802719831466675;0.0;0.0;0.0
1665;0.0;0.0;0.0;0.2030079960823059;-0.44310399889945984;0.7290719747543335;0.0;0.0;0.0
1667;0.0924759954214096;-0.3579480051994324;0.5514400005340576;0.16396799683570862;-0.4001599848270416;0.7534719705581665;24.093124389648438;35.2493782043457;-84.8137435913086
1669;0.0;0.0;0.0;0.1600639969110489;-0.36111998558044434;0.798367977142334;0.0;0.0;0.0
1671;0.0;0.0;0.0;0.11711999773979187;-0.3416000008583069;0.8266719579696655;0.0;0.0;0.0
1674;0.0;0.0;0.0;0.12883199751377106;-0.3416000008583069;0.8500959873199463;0.0;0.0;0.0
1676;0.006587999872863293;-0.2100839912891388;0.6949119567871094;0.0634399950504303;-0.3025600016117096;0.8666880130767822;13.523124694824219;46.0993766784668;-83.90374755859375
1678;0.0;0.0;0.0;0.05172799900174141;-0.27035200595855713;0.8832799792289734;0.0;0.0;0.0
1680;0.0;0.0;0.0;0.024399999529123306;-0.2937760055065155;0.9193919897079468;0.0;0.0;0.0
1682;0.0;0.0;0.0;0.032207999378442764;-0.2547360062599182;0.9398880004882812;0.0;0.0;0.0
1684;-0.09516000002622604;-0.14054399728775024;0.7776280045509338;0.004879999905824661;-0.2664479911327362;0.9398880004882812;1.9031249284744263;51.69937515258789;-83.76374816894531
1687;0.0;0.0;0.0;-0.045871999114751816;-0.22740799188613892;0.9603840112686157;0.0;0.0;0.0
1689;0.0;0.0;0.0;-0.07710400223731995;-0.25863999128341675;0.9759999513626099;0.0;0.0;0.0
1691;0.0;0.0;0.0;-0.0849120020866394;-0.23521599173545837;0.9681919813156128;0.0;0.0;0.0
1693;-0.1827559918165207;-0.10613999515771866;0.839847981929779;-0.0849120020866394;-0.2117919921875;0.9925919771194458;-4.536874771118164;55.759376525878906;-84.4637451171875
1695;0.0;0.0;0.0;-0.09662400186061859;-0.1698240041732788;0.9964959621429443;0.0;0.0;0.0
1697;0.0;0.0;0.0;-0.14737600088119507;-0.13859200477600098;1.0335839986801147;0.0;0.0;0.0
1699;0.0;0.0;0.0;-0.16201600432395935;-0.1268799901008606;1.0657919645309448;0.0;0.0;0.0
1701;-0.24912399053573608;-0.019763998687267303;0.905239999294281;-0.14737600088119507;-0.13468798995018005;1.0579839944839478;-2.226874828338623;58.839378356933594;-85.58374786376953
1703;0.0;0.0;0.0;-0.17763200402259827;-0.09564799815416336;1.101904034614563;0.0;0.0;0.0
1705;0.0;0.0;0.0;-0.20495998859405518;-0.044895999133586884;1.122399926185608;0.0;0.0;0.0
1708;0.0;0.0;0.0;-0.20495998859405518;-0.0019519999623298645;1.146799921989441;0.0;0.0;0.0
1710;-0.31451600790023804;0.10077200084924698;0.9850279688835144;-0.22448000311851501;0.044895999133586884;1.146799921989441;4.913125038146973;50.019378662109375;-83.90374755859375
1712;0.0;0.0;0.0;-0.23228800296783447;0.06539200246334076;1.158511996269226;0.0;0.0;0.0
1714;0.0;0.0;0.0;-0.21276798844337463;0.09662400186061859;1.175104022026062;0.0;0.0;0.0
1716;0.0;0.0;0.0;-0.18544000387191772;0.15908800065517426;1.175104022026062;0.0;0.0;0.0
1718;-0.3386719822883606;0.24717199802398682;1.0452959537506104;-0.20495998859405518;0.20203199982643127;1.2356159687042236;11.143125534057617;33.8493766784668;-82.64374542236328
1720;0.0;0.0;0.0;-0.19324800372123718;0.18641600012779236;1.199504017829895;0.0;0.0;0.0
1722;0.0;0.0;0.0;-0.14737600088119507;0.17470400035381317;1.1546080112457275;0.0;0.0;0.0
1725;0.0;0.0;0.0;-0.15908800065517426;0.2879199981689453;1.1956000328063965;0.0;0.0;0.0
1727;-0.29523998498916626;0.3647799789905548;1.0618879795074463;-0.16591998934745789;0.37380799651145935;1.231711983680725;14.85312557220459;18.869375228881836;-83.83374786376953
1729;0.0;0.0;0.0;-0.16201600432395935;0.3533119857311249;1.1672959327697754;0.0;0.0;0.0
1731;0.0;0.0;0.0;-0.13176000118255615;0.4079679846763611;1.1302080154418945;0.0;0.0;0.0
1733;0.0;0.0;0.0;-0.1239520013332367;0.45871999859809875;1.150704026222229;0.0;0.0;0.0
1735;-0.2537599802017212;0.5414360165596008;1.032364010810852;-0.12004800140857697;0.5094720125198364;1.150704026222229;19.333126068115234;10.539375305175781;-81.73374938964844
1737;0.0;0.0;0.0;-0.08100800216197968;0.5407040119171143;1.1145919561386108;0.0;0.0;0.0
1739;0.0;0.0;0.0;-0.03415999934077263;0.5836479663848877;1.126304030418396;0.0;0.0;0.0
1742;0.0;0.0;0.0;-0.03806399926543236;0.6304959654808044;1.126304030418396;0.0;0.0;0.0
1744;-0.177387997508049;0.7310239672660828;0.9872239828109741;-0.03806399926543236;0.685151994228363;1.1058080196380615;28.013124465942383;12.149374961853027;-76.76374816894531
1746;0.0;0.0;0.0;-0.010735999792814255;0.7603039741516113;1.097999930381775;0.0;0.0;0.0
1748;0.0;0.0;0.0;-0.03806399926543236;0.7681120038032532;1.0940959453582764;0.0;0.0;0.0
1750;0.0;0.0;0.0;0.0009759999811649323;0.822767972946167;1.0657919645309448;0.0;0.0;0.0
1752;-0.1378600001335144;0.920367956161499;0.9589200019836426;0.00878399983048439;0.8657119870185852;1.0696959495544434;40.40312194824219;16.419374465942383;-65.42374420166016
1755;0.0;0.0;0.0;0.01659199967980385;0.9281759858131409;1.0618879795074463;0.0;0.0;0.0
1756;0.0;0.0;0.0;0.04001599922776222;0.9515999555587769;1.073599934577942;0.0;0.0;0.0
1759;0.0;0.0;0.0;0.024399999529123306;1.002351999282837;1.0657919645309448;0.0;0.0;0.0
1761;-0.09027999639511108;1.0897040367126465;0.9364719986915588;0.04782399907708168;1.0335839986801147;1.0570080280303955;54.68312454223633;21.03937530517578;-50.373748779296875
1763;0.0;0.0;0.0;0.0634399950504303;1.0882400274276733;1.0775039196014404;0.0;0.0;0.0
1765;0.0;0.0;0.0;0.05172799900174141;1.1546080112457275;1.101904034614563;0.0;0.0;0.0
1767;0.0;0.0;0.0;0.020495999604463577;1.2209759950637817;1.122399926185608;0.0;0.0;0.0
1769;-0.08857199549674988;1.2817319631576538;0.9735599756240845;-0.014639999717473984;1.248304009437561;1.146799921989441;68.54312133789062;32.589378356933594;-34.69375228881836
1771;0.0;0.0;0.0;-0.03415999934077263;1.3068640232086182;1.1712000370025635;0.0;0.0;0.0
1774;0.0;0.0;0.0;-0.06539200246334076;1.3420000076293945;1.175104022026062;0.0;0.0;0.0
1776;0.0;0.0;0.0;-0.10443200170993805;1.3888479471206665;1.2034080028533936;0.0;0.0;0.0
1778;-0.17909599840641022;1.4774199724197388;1.0528600215911865;-0.10833600163459778;1.4474079608917236;1.223904013633728;77.64311981201172;42.179378509521484;-17.9637508392334
1780;0.0;0.0;0.0;-0.1239520013332367;1.4864479303359985;1.2356159687042236;0.0;0.0;0.0
1782;0.0;0.0;0.0;-0.13176000118255615;1.5098719596862793;1.2639199495315552;0.0;0.0;0.0
1784;0.0;0.0;0.0;-0.12785600125789642;1.521583914756775;1.2805119752883911;0.0;0.0;0.0
1786;-0.2449759989976883;1.624795913696289;1.1241079568862915;-0.14347200095653534;1.5371999740600586;1.2932000160217285;81.84312438964844;40.8493766784668;0.23624998331069946
1789;0.0;0.0;0.0;-0.1395680010318756;1.5606240034103394;1.2844159603118896;0.0;0.0;0.0
1791;0.0;0.0;0.0;-0.1395680010318756;1.5840479135513306;1.32150399684906;0.0;0.0;0.0
1793;0.0;0.0;0.0;-0.14347200095653534;1.6074719429016113;1.3088159561157227;0.0;0.0;0.0
1795;-0.2635200023651123;1.7201999425888062;1.1670520305633545;-0.16591998934745789;1.6347999572753906;1.3293119668960571;83.38312530517578;32.44937515258789;19.90625
1797;0.0;0.0;0.0;-0.17372798919677734;1.6494399309158325;1.3332159519195557;0.0;0.0;0.0
1799;0.0;0.0;0.0;-0.16201600432395935;1.6689599752426147;1.3537119626998901;0.0;0.0;0.0
1801;0.0;0.0;0.0;-0.1815359890460968;1.6611520051956177;1.3537119626998901;0.0;0.0;0.0
1803;-0.28133198618888855;1.7851039171218872;1.2092639207839966;-0.15518400073051453;1.6689599752426147;1.345903992652893;80.09312438964844;19.569374084472656;39.57624816894531
1806;0.0;0.0;0.0;-0.15518400073051453;1.6728639602661133;1.3127199411392212;0.0;0.0;0.0
1808;0.0;0.0;0.0;-0.14347200095653534;1.6728639602661133;1.3176000118255615;0.0;0.0;0.0
1810;0.0;0.0;0.0;-0.11224000155925751;1.6689599752426147;1.3254079818725586;0.0;0.0;0.0
1812;-0.2518079876899719;1.8034039735794067;1.1921839714050293;-0.13566400110721588;1.6767679452896118;1.3127199411392212;68.12312316894531;4.099374771118164;60.01625061035156
1814;0.0;0.0;0.0;-0.1239520013332367;1.6894559860229492;1.3293119668960571;0.0;0.0;0.0
1816;0.0;0.0;0.0;-0.1239520013332367;1.6894559860229492;1.3332159519195557;0.0;0.0;0.0
1818;0.0;0.0;0.0;-0.11224000155925751;1.6465119123458862;1.3537119626998901;0.0;0.0;0.0
1820;-0.25522398948669434;1.7848600149154663;1.2014559507369995;-0.17372798919677734;1.6074719429016113;1.3371199369430542;47.823123931884766;3.539374828338623;76.5362548828125
1823;0.0;0.0;0.0;-0.22838398814201355;1.5918560028076172;1.3615199327468872;0.0;0.0;0.0
1825;0.0;0.0;0.0;-0.19715198874473572;1.5098719596862793;1.3537119626998901;0.0;0.0;0.0
1827;0.0;0.0;0.0;-0.21667200326919556;1.4708319902420044;1.3498079776763916;0.0;0.0;0.0
1829;-0.32964399456977844;1.65749192237854;1.2121919393539429;-0.22838398814201355;1.4278879165649414;1.3254079818725586;19.193124771118164;5.219375133514404;88.64625549316406
1831;0.0;0.0;0.0;-0.23228800296783447;1.3888479471206665;1.3332159519195557;0.0;0.0;0.0
1833;0.0;0.0;0.0;-0.25571200251579285;1.2834399938583374;1.297104001045227;0.0;0.0;0.0
1835;0.0;0.0;0.0;-0.2479040026664734;1.197551965713501;1.2883199453353882;0.0;0.0;0.0
1837;-0.34891998767852783;1.4032440185546875;1.1716879606246948;-0.26742398738861084;1.1350879669189453;1.2805119752883911;-6.986875057220459;1.0893750190734863;97.95625305175781
1840;0.0;0.0;0.0;-0.28303998708724976;1.0648159980773926;1.2688000202178955;0.0;0.0;0.0
1842;0.0;0.0;0.0;-0.27132800221443176;0.9828319549560547;1.2404959201812744;0.0;0.0;0.0
1844;0.0;0.0;0.0;-0.32207998633384705;0.9515999555587769;1.256111979484558;0.0;0.0;0.0
1846;-0.40406399965286255;1.1289880275726318;1.122399926185608;-0.31036800146102905;0.8891359567642212;1.2444000244140625;-24.4168758392334;-8.430624961853027;106.91625213623047
1848;0.0;0.0;0.0;-0.32207998633384705;0.8500959873199463;1.2404959201812744;0.0;0.0;0.0
1850;0.0;0.0;0.0;-0.3142719864845276;0.7720159888267517;1.2278079986572266;0.0;0.0;0.0
1852;0.0;0.0;0.0;-0.31036800146102905;0.709551990032196;1.175104022026062;0.0;0.0;0.0
1854;-0.4445679783821106;0.9106079936027527;1.0884839296340942;-0.34062400460243225;0.6588000059127808;1.182911992073059;-36.66687774658203;-21.310625076293945;114.0562515258789
1857;0.0;0.0;0.0;-0.3181760013103485;0.5885279774665833;1.1633919477462769;0.0;0.0;0.0
1859;0.0;0.0;0.0;-0.3298879861831665;0.5651040077209473;1.150704026222229;0.0;0.0;0.0
1861;0.0;0.0;0.0;-0.30646398663520813;0.4714079797267914;1.1302080154418945;0.0;0.0;0.0
1863;-0.44066399335861206;0.6714879870414734;1.0172359943389893;-0.3142719864845276;0.4167519807815552;1.1106879711151123;-44.50687789916992;-33.420623779296875;119.44625091552734
1865;0.0;0.0;0.0;-0.26742398738861084;0.39235198497772217;1.0814080238342285;0.0;0.0;0.0
1867;0.0;0.0;0.0;-0.2596159875392914;0.29865598678588867;1.0413919687271118;0.0;0.0;0.0
1869;0.0;0.0;0.0;-0.236191987991333;0.24399998784065247;1.0043039321899414;0.0;0.0;0.0
1871;-0.3928399980068207;0.44652000069618225;0.9106079936027527;-0.236191987991333;0.236191987991333;0.9681919813156128;-45.62687683105469;-47.420623779296875;124.27625274658203
1874;0.0;0.0;0.0;-0.20105600357055664;0.13859200477600098;0.8949919939041138;0.0;0.0;0.0
1876;0.0;0.0;0.0;-0.18544000387191772;0.07612799853086472;0.8793759942054749;0.0;0.0;0.0
1878;0.0;0.0;0.0;-0.1424959897994995;0.040991999208927155;0.8549759984016418;0.0;0.0;0.0
1880;-0.29523998498916626;0.2176479995250702;0.7603039741516113;-0.11614400148391724;-0.029279999434947968;0.8178879618644714;-39.32687759399414;-57.71062469482422;129.38624572753906
1882;0.0;0.0;0.0;-0.09662400186061859;-0.18544000387191772;0.757375955581665;0.0;0.0;0.0
1884;0.0;0.0;0.0;-0.018543999642133713;-0.15030398964881897;0.7895839810371399;0.0;0.0;0.0
1886;0.0;0.0;0.0;-0.12785600125789642;-0.09564799815416336;0.7856799960136414;0.0;0.0;0.0
1888;-0.19154000282287598;-0.02537599951028824;0.6439160108566284;-0.014639999717473984;-0.36111998558044434;0.708575963973999;-24.906875610351562;-56.03062438964844;135.05624389648438
1891;0.0;0.0;0.0;0.01659199967980385;-0.19324800372123718;0.7778719663619995;0.0;0.0;0.0
1893;0.0;0.0;0.0;0.028303999453783035;-0.3572160005569458;0.7212640047073364;0.0;0.0;0.0
1895;0.0;0.0;0.0;0.04001599922776222;-0.41967999935150146;0.7046719789505005;0.0;0.0;0.0
1897;-0.1134599968791008;-0.21154800057411194;0.6102439761161804;0.0009759999811649323;-0.5250880122184753;0.6636799573898315;-11.746874809265137;-47.28062438964844;141.00624084472656
1899;0.0;0.0;0.0;0.0009759999811649323;-0.5407040119171143;0.7163839936256409;0.0;0.0;0.0
1901;0.0;0.0;0.0;0.08295999467372894;-0.6265919804573059;0.708575963973999;0.0;0.0;0.0
1903;0.0;0.0;0.0;0.05172799900174141;-0.6812480092048645;0.725167989730835;0.0;0.0;0.0
1905;-0.08661999553442001;-0.4853159785270691;0.5877959728240967;0.04391999915242195;-0.7515199780464172;0.7612800002098083;-0.8968749642372131;-25.30062484741211;142.4762420654297
1908;0.0;0.0;0.0;0.0009759999811649323;-0.8217920064926147;0.8139839768409729;0.0;0.0;0.0
1910;0.0;0.0;0.0;-0.0029279999434947968;-0.8686400055885315;0.8383839726448059;0.0;0.0;0.0
1912;0.0;0.0;0.0;-0.057583998888731;-0.9506239891052246;0.8793759942054749;0.0;0.0;0.0
1914;-0.1471319943666458;-0.7512759566307068;0.7144320011138916;-0.08100800216197968;-0.9740479588508606;0.9359839558601379;6.313125133514404;4.169374942779541;138.13624572753906
1916;0.0;0.0;0.0;-0.11614400148391724;-1.0003999471664429;0.9681919813156128;0.0;0.0;0.0
1918;0.0;0.0;0.0;-0.13566400110721588;-1.0316319465637207;1.0491999387741089;0.0;0.0;0.0
1920;0.0;0.0;0.0;-0.17763200402259827;-1.051151990890503;1.0618879795074463;0.0;0.0;0.0
1922;-0.2640079855918884;-0.8979200124740601;0.895967960357666;-0.17372798919677734;-1.0277279615402222;1.1058080196380615;7.013124942779541;19.9893741607666;128.4762420654297
1925;0.0;0.0;0.0;-0.17763200402259827;-1.0823839902877808;1.1302080154418945;0.0;0.0;0.0
1927;0.0;0.0;0.0;-0.18544000387191772;-1.10971200466156;1.126304030418396;0.0;0.0;0.0
1929;0.0;0.0;0.0;-0.11224000155925751;-1.156559944152832;1.1350879669189453;0.0;0.0;0.0
1931;-0.27425599098205566;-0.9869799613952637;0.9928359985351562;-0.11614400148391724;-1.1838879585266113;1.122399926185608;1.2731249332427979;12.359375;117.83625030517578
1933;0.0;0.0;0.0;-0.10833600163459778;-1.2190239429473877;1.1633919477462769;0.0;0.0;0.0
1935;0.0;0.0;0.0;-0.07710400223731995;-1.2307360172271729;1.158511996269226;0.0;0.0;0.0
1937;0.0;0.0;0.0;-0.057583998888731;-1.246351957321167;1.146799921989441;0.0;0.0;0.0
1939;-0.20617999136447906;-1.0984879732131958;1.0111359357833862;-0.08881600201129913;-1.2932000160217285;1.146799921989441;-3.556874990463257;-0.8006249666213989;107.33625030517578
1942;0.0;0.0;0.0;-0.03806399926543236;-1.3322399854660034;1.150704026222229;0.0;0.0;0.0
1944;0.0;0.0;0.0;0.0009759999811649323;-1.3556640148162842;1.1546080112457275;0.0;0.0;0.0
1946;0.0;0.0;0.0;-0.014639999717473984;-1.4103199243545532;1.1302080154418945;0.0;0.0;0.0
1948;-0.14883999526500702;-1.235859990119934;1.016503930091858;-0.018543999642133713;-1.4571679830551147;1.122399926185608;-12.866874694824219;-8.010624885559082;95.36625671386719
1950;0.0;0.0;0.0;0.00878399983048439;-1.5001119375228882;1.122399926185608;0.0;0.0;0.0
1952;0.0;0.0;0.0;0.04001599922776222;-1.5664799213409424;1.097999930381775;0.0;0.0;0.0
1954;0.0;0.0;0.0;0.03611199930310249;-1.6250399351119995;1.1184959411621094;0.0;0.0;0.0
1956;-0.08588799834251404;-1.4339879751205444;0.9947879910469055;0.032207999378442764;-1.6757919788360596;1.1302080154418945;-23.856874465942383;3.7493748664855957;82.41625213623047
1959;0.0;0.0;0.0;0.00878399983048439;-1.7148319482803345;1.1672959327697754;0.0;0.0;0.0
1961;0.0;0.0;0.0;-0.006831999868154526;-1.7968159914016724;1.1877919435501099;0.0;0.0;0.0
1963;0.0;0.0;0.0;-0.022447999566793442;-1.8280479907989502;1.2365919351577759;0.0;0.0;0.0
1965;-0.1210239976644516;-1.6387039422988892;1.0662800073623657;-0.03415999934077263;-1.8944159746170044;1.2522079944610596;-29.316875457763672;26.919374465942383;68.97625732421875
1967;0.0;0.0;0.0;-0.08100800216197968;-1.8944159746170044;1.2766079902648926;0.0;0.0;0.0
1969;0.0;0.0;0.0;-0.0849120020866394;-1.9256479740142822;1.3371199369430542;0.0;0.0;0.0
1971;0.0;0.0;0.0;-0.11224000155925751;-2.0544800758361816;1.3166239261627197;0.0;0.0;0.0
1973;-0.21667200326919556;-1.8175560235977173;1.1782759428024292;-0.1542080044746399;-2.0544800758361816;1.3576159477233887;-31.766874313354492;33.079376220703125;54.90625
1976;0.0;0.0;0.0;-0.13176000118255615;-2.0427680015563965;1.4142240285873413;0.0;0.0;0.0
1978;0.0;0.0;0.0;-0.1239520013332367;-2.1247520446777344;1.3859199285507202;0.0;0.0;0.0
1980;0.0;0.0;0.0;-0.13566400110721588;-2.167695999145508;1.3937280178070068;0.0;0.0;0.0
1982;-0.2525399923324585;-1.9837199449539185;1.2609919309616089;-0.13859200477600098;-2.175503969192505;1.4064159393310547;-32.46687698364258;19.499374389648438;37.966251373291016
1984;0.0;0.0;0.0;-0.1239520013332367;-2.1881918907165527;1.4064159393310547;0.0;0.0;0.0
1986;0.0;0.0;0.0;-0.15811198949813843;-2.2350399494171143;1.4142240285873413;0.0;0.0;0.0
1988;0.0;0.0;0.0;-0.17372798919677734;-2.2506558895111084;1.425935983657837;0.0;0.0;0.0
1990;-0.28011199831962585;-2.093764066696167;1.2783160209655762;-0.1698240041732788;-2.281888008117676;1.4386240243911743;-30.36687469482422;-0.24062499403953552;17.386249542236328
1993;0.0;0.0;0.0;-0.23228800296783447;-2.289695978164673;1.4181280136108398;0.0;0.0;0.0
1995;0.0;0.0;0.0;-0.19324800372123718;-2.293599843978882;1.3976320028305054;0.0;0.0;0.0
1997;0.0;0.0;0.0;-0.20495998859405518;-2.29750394821167;1.3254079818725586;0.0;0.0;0.0
1999;-0.31158798933029175;-2.1435399055480957;1.238055944442749;-0.18544000387191772;-2.289695978164673;1.2766079902648926;-32.5368766784668;-26.420625686645508;-8.233750343322754
2001;0.0;0.0;0.0;-0.10833600163459778;-2.300431966781616;1.2278079986572266;0.0;0.0;0.0
2003;0.0;0.0;0.0;-0.11224000155925751;-2.273103952407837;1.1916959285736084;0.0;0.0;0.0
2005;0.0;0.0;0.0;-0.0302559994161129;-2.2457759380340576;1.122399926185608;0.0;0.0;0.0
2007;-0.21276798844337463;-2.118896007537842;1.0450519323349;-0.02635199949145317;-2.18721604347229;1.073599934577942;-32.74687576293945;-45.88062286376953;-37.07374954223633
2010;0.0;0.0;0.0;-0.02635199949145317;-2.1286559104919434;1.0247999429702759;0.0;0.0;0.0
2012;0.0;0.0;0.0;0.03611199930310249;-2.089616060256958;0.9642879962921143;0.0;0.0;0.0
2014;0.0;0.0;0.0;0.07515199482440948;-2.00763201713562;0.9076799750328064;0.0;0.0;0.0
2016;-0.08857199549674988;-1.9371159076690674;0.8359439969062805;0.11711999773979187;-1.949072003364563;0.8461920022964478;-26.236875534057617;-56.660621643066406;-62.48374938964844
2018;0.0;0.0;0.0;0.1483519971370697;-1.9139360189437866;0.7651839852333069;0.0;0.0;0.0
2020;0.0;0.0;0.0;0.230335995554924;-1.867087960243225;0.6968640089035034;0.0;0.0;0.0
2022;0.0;0.0;0.0;0.2810879945755005;-1.7772959470748901;0.6519680023193359;0.0;0.0;0.0
2024;0.10247999429702759;-1.7223960161209106;0.5892599821090698;0.35526400804519653;-1.7499679327011108;0.5914559960365295;-14.336874961853027;-65.13062286376953;-79.70375061035156
2027;0.0;0.0;0.0;0.38259199261665344;-1.6914079189300537;0.5709599852561951;0.0;0.0;0.0
2029;0.0;0.0;0.0;0.4177280068397522;-1.6562719345092773;0.522159993648529;0.0;0.0;0.0
2031;0.0;0.0;0.0;0.4635999798774719;-1.574288010597229;0.48507198691368103;0.0;0.0;0.0
2033;0.29646000266075134;-1.4976719617843628;0.4065040051937103;0.4870239794254303;-1.523535966873169;0.4567679762840271;0.6431249976158142;-56.45062255859375;-90.41374969482422
2035;0.0;0.0;0.0;0.4714079797267914;-1.4181280136108398;0.4167519807815552;0.0;0.0;0.0
2037;0.0;0.0;0.0;0.4635999798774719;-1.3986079692840576;0.42455998063087463;0.0;0.0;0.0
2039;0.0;0.0;0.0;0.48311999440193176;-1.336143970489502;0.4089439809322357;0.0;0.0;0.0
2041;0.3584359884262085;-1.25245201587677;0.3140279948711395;0.4753119945526123;-1.2502559423446655;0.4411519765853882;11.983124732971191;-22.71062469482422;-99.4437484741211
2044;0.0;0.0;0.0;0.4714079797267914;-1.1760799884796143;0.44896000623703003;0.0;0.0;0.0
2046;0.0;0.0;0.0;0.46750399470329285;-1.1136159896850586;0.4567679762840271;0.0;0.0;0.0
2048;0.0;0.0;0.0;0.42846399545669556;-1.0316319465637207;0.4694559872150421;0.0;0.0;0.0
2050;0.3398919999599457;-0.9838079810142517;0.34355199337005615;0.45579198002815247;-0.9886879920959473;0.5094720125198364;18.0731258392334;27.059375762939453;-107.98374938964844
2052;0.0;0.0;0.0;0.374783992767334;-0.9106079936027527;0.5670560002326965;0.0;0.0;0.0
2054;0.0;0.0;0.0;0.3630719780921936;-0.8325279951095581;0.6031680107116699;0.0;0.0;0.0
2056;0.0;0.0;0.0;0.30451199412345886;-0.7856799960136414;0.6314719915390015;0.0;0.0;0.0
2058;0.23375199735164642;-0.7156519889831543;0.4682359993457794;0.2576639950275421;-0.7115039825439453;0.7212640047073364;23.393125534057617;78.5093765258789;-111.27375030517578
2061;0.0;0.0;0.0;0.20691199600696564;-0.6880800127983093;0.7778719663619995;0.0;0.0;0.0
2063;0.0;0.0;0.0;0.16787199676036835;-0.6256160140037537;0.8139839768409729;0.0;0.0;0.0
2065;0.0;0.0;0.0;0.0634399950504303;-0.5943840146064758;0.8871839642524719;0.0;0.0;0.0
2067;0.027327999472618103;-0.509227991104126;0.6922279596328735;0.05953599885106087;-0.563152015209198;0.9154880046844482;30.25312614440918;114.34938049316406;-108.54374694824219
2069;0.0;0.0;0.0;-0.03806399926543236;-0.536799967288971;1.0091840028762817;0.0;0.0;0.0
2071;0.0;0.0;0.0;-0.07710400223731995;-0.5172799825668335;1.0696959495544434;0.0;0.0;0.0
2073;0.0;0.0;0.0;-0.11224000155925751;-0.5016639828681946;1.1302080154418945;0.0;0.0;0.0
2075;-0.1908079981803894;-0.3903999924659729;0.9518439769744873;-0.17372798919677734;-0.4665279984474182;1.2034080028533936;35.36312484741211;125.82937622070312;-104.20375061035156
2078;0.0;0.0;0.0;-0.21276798844337463;-0.49775999784469604;1.2766079902648926;0.0;0.0;0.0
2080;0.0;0.0;0.0;-0.2635200023651123;-0.411871999502182;1.3576159477233887;0.0;0.0;0.0
2082;0.0;0.0;0.0;-0.31036800146102905;-0.411871999502182;1.4142240285873413;0.0;0.0;0.0
2084;-0.38381198048591614;-0.2991439998149872;1.2102400064468384;-0.3757599890232086;-0.40406399965286255;1.4542399644851685;35.36312484741211;121.20938110351562;-103.7137451171875
2086;0.0;0.0;0.0;-0.39528000354766846;-0.34940800070762634;1.506943941116333;0.0;0.0;0.0
2088;0.0;0.0;0.0;-0.4811680018901825;-0.3337920010089874;1.572335958480835;0.0;0.0;0.0
2090;0.0;0.0;0.0;-0.5084959864616394;-0.31036800146102905;1.5928319692611694;0.0;0.0;0.0
2092;-0.5799880027770996;-0.1925159990787506;1.4200799465179443;-0.5123999714851379;-0.2752319872379303;1.6338239908218384;29.903125762939453;101.32937622070312;-106.16374969482422
2095;0.0;0.0;0.0;-0.5280159711837769;-0.25571200251579285;1.6582239866256714;0.0;0.0;0.0
2097;0.0;0.0;0.0;-0.5436319708824158;-0.22448000311851501;1.686527967453003;0.0;0.0;0.0
2099;0.0;0.0;0.0;-0.5397279858589172;-0.1698240041732788;1.6904319524765015;0.0;0.0;0.0
2101;-0.663923978805542;-0.0785679966211319;1.5413479804992676;-0.5475360155105591;-0.13078400492668152;1.7236160039901733;22.973125457763672;71.43937683105469;-111.27375030517578
2103;0.0;0.0;0.0;-0.5787680149078369;-0.09467199444770813;1.735327959060669;0.0;0.0;0.0
2105;0.0;0.0;0.0;-0.5709599852561951;-0.028303999453783035;1.7480159997940063;0.0;0.0;0.0
2107;0.0;0.0;0.0;-0.5934079885482788;0.045871999114751816;1.7519199848175049;0.0;0.0;0.0
2109;-0.6936919689178467;0.10223599523305893;1.5999079942703247;-0.5934079885482788;0.053679998964071274;1.7480159997940063;17.443124771118164;38.04937744140625;-116.66374969482422
2112;0.0;0.0;0.0;-0.5816959738731384;0.07710400223731995;1.6953120231628418;0.0;0.0;0.0
2114;0.0;0.0;0.0;-0.5123999714851379;0.13566400110721588;1.6943359375;0.0;0.0;0.0
2116;0.0;0.0;0.0;-0.46164798736572266;0.19422399997711182;1.6582239866256714;0.0;0.0;0.0
2118;-0.6439160108566284;0.27254799008369446;1.5450079441070557;-0.4772639870643616;0.2332639992237091;1.6338239908218384;13.523124694824219;-2.130625009536743;-118.76374816894531
2120;0.0;0.0;0.0;-0.41870400309562683;0.2791360020637512;1.596735954284668;0.0;0.0;0.0
2122;0.0;0.0;0.0;-0.40699198842048645;0.3455039858818054;1.547935962677002;0.0;0.0;0.0
2124;0.0;0.0;0.0;-0.36795198917388916;0.34940800070762634;1.5030399560928345;0.0;0.0;0.0
2126;-0.5248439908027649;0.46506398916244507;1.4037319421768188;-0.32207998633384705;0.40406399965286255;1.4347199201583862;13.033124923706055;-38.53062438964844;-117.3637466430664
2129;0.0;0.0;0.0;-0.26742398738861084;0.4665279984474182;1.4025119543075562;0.0;0.0;0.0
2131;0.0;0.0;0.0;-0.20105600357055664;0.5172799825668335;1.3498079776763916;0.0;0.0;0.0
2133;0.0;0.0;0.0;-0.15030398964881897;0.6070719957351685;1.3176000118255615;0.0;0.0;0.0
2135;-0.3274479806423187;0.6695359945297241;1.2265880107879639;-0.1239520013332367;0.6539199948310852;1.2600159645080566;13.033124923706055;-61.63062286376953;-116.03374481201172
2137;0.0;0.0;0.0;-0.03806399926543236;0.5494880080223083;1.1633919477462769;0.0;0.0;0.0
2139;0.0;0.0;0.0;-0.014639999717473984;0.732975959777832;1.1916959285736084;0.0;0.0;0.0
2141;0.0;0.0;0.0;0.04782399907708168;0.7759199738502502;1.1302080154418945;0.0;0.0;0.0
2144;-0.140299990773201;0.8361879587173462;1.0416359901428223;0.04391999915242195;0.8539999723434448;1.1058080196380615;14.0131254196167;-66.67062377929688;-110.43374633789062
2146;0.0;0.0;0.0;0.07515199482440948;0.8344799876213074;1.0579839944839478;0.0;0.0;0.0
2148;0.0;0.0;0.0;0.10150399804115295;0.912559986114502;1.0091840028762817;0.0;0.0;0.0
2150;0.0;0.0;0.0;0.1210239976644516;0.9945439696311951;1.0130879878997803;0.0;0.0;0.0
2152;-0.007807999849319458;1.0474920272827148;0.8996279835700989;0.20691199600696564;1.0062559843063354;0.9925919771194458;16.88312530517578;-54.350624084472656;-99.8637466430664
2154;0.0;0.0;0.0;0.23423999547958374;1.0491999387741089;0.9720959663391113;0.0;0.0;0.0
2156;0.0;0.0;0.0;0.22643199563026428;1.099951982498169;0.9476959705352783;0.0;0.0;0.0
2158;0.0;0.0;0.0;0.2030079960823059;1.1194720268249512;0.9681919813156128;0.0;0.0;0.0
2160;0.09003599733114243;1.2221959829330444;0.8317959904670715;0.19519999623298645;1.189743995666504;0.9359839558601379;25.983125686645508;-25.720624923706055;-88.10374450683594
2163;0.0;0.0;0.0;0.1756799966096878;1.2248799800872803;0.9476959705352783;0.0;0.0;0.0
2165;0.0;0.0;0.0;0.1600639969110489;1.287343978881836;0.9476959705352783;0.0;0.0;0.0
2167;0.0;0.0;0.0;0.12883199751377106;1.3146719932556152;0.9808799624443054;0.0;0.0;0.0
2169;0.024643998593091965;1.405683994293213;0.8349679708480835;0.08686399459838867;1.3615199327468872;1.0091840028762817;42.08312225341797;2.8393750190734863;-70.1137466430664
2171;0.0;0.0;0.0;0.04001599922776222;1.4034879207611084;1.0374879837036133;0.0;0.0;0.0
2173;0.0;0.0;0.0;0.024399999529123306;1.4347199201583862;1.0696959495544434;0.0;0.0;0.0
2175;0.0;0.0;0.0;-0.006831999868154526;1.4776639938354492;1.0862879753112793;0.0;0.0;0.0
2178;-0.09198799729347229;1.5703840255737305;0.9264679551124573;-0.010735999792814255;1.5284159183502197;1.1302080154418945;59.233123779296875;18.379375457763672;-48.69375228881836
2180;0.0;0.0;0.0;-0.09272000193595886;1.5713599920272827;1.1546080112457275;0.0;0.0;0.0
2182;0.0;0.0;0.0;-0.10833600163459778;1.6338239908218384;1.175104022026062;0.0;0.0;0.0
2184;0.0;0.0;0.0;-0.13566400110721588;1.637727975845337;1.2112159729003906;0.0;0.0;0.0
2186;-0.2076440006494522;1.7382559776306152;1.0438319444656372;-0.1542080044746399;1.6845759153366089;1.207311987876892;70.5731201171875;24.959375381469727;-28.603750228881836
2188;0.0;0.0;0.0;-0.15811198949813843;1.7158079147338867;1.256111979484558;0.0;0.0;0.0
2190;0.0;0.0;0.0;-0.1542080044746399;1.7509440183639526;1.2639199495315552;0.0;0.0;0.0
2192;0.0;0.0;0.0;-0.20105600357055664;1.786080002784729;1.272704005241394;0.0;0.0;0.0
2195;-0.30231598019599915;1.8851439952850342;1.126304030418396;-0.236191987991333;1.8134080171585083;1.297104001045227;77.15312194824219;19.28937530517578;-6.693749904632568
2197;0.0;0.0;0.0;-0.26742398738861084;1.8368319272994995;1.3371199369430542;0.0;0.0;0.0
2199;0.0;0.0;0.0;-0.28303998708724976;1.8446400165557861;1.345903992652893;0.0;0.0;0.0
2201;0.0;0.0;0.0;-0.3328160047531128;1.8134080171585083;1.345903992652893;0.0;0.0;0.0
2203;-0.4001599848270416;1.9546840190887451;1.1931599378585815;-0.32500800490379333;1.8134080171585083;1.3537119626998901;77.08312225341797;1.9993749856948853;14.0962495803833
2205;0.0;0.0;0.0;-0.3181760013103485;1.810479998588562;1.3371199369430542;0.0;0.0;0.0
2207;0.0;0.0;0.0;-0.29475200176239014;1.7831519842147827;1.2844159603118896;0.0;0.0;0.0
2209;0.0;0.0;0.0;-0.2791360020637512;1.7792479991912842;1.2844159603118896;0.0;0.0;0.0
2212;-0.41162797808647156;1.9195479154586792;1.1614400148391724;-0.2596159875392914;1.7519199848175049;1.2404959201812744;65.18312072753906;-25.5106258392334;31.24625015258789
2214;0.0;0.0;0.0;-0.21667200326919556;1.7558239698410034;1.2034080028533936;0.0;0.0;0.0
2216;0.0;0.0;0.0;-0.20495998859405518;1.7363039255142212;1.182911992073059;0.0;0.0;0.0
2218;0.0;0.0;0.0;-0.19324800372123718;1.7363039255142212;1.182911992073059;0.0;0.0;0.0
2220;-0.3213479816913605;1.8695279359817505;1.063107967376709;-0.17763200402259827;1.720687985420227;1.1428959369659424;44.883121490478516;-41.61062240600586;42.306251525878906
2222;0.0;0.0;0.0;-0.15811198949813843;1.71288001537323;1.101904034614563;0.0;0.0;0.0
2224;0.0;0.0;0.0;-0.13176000118255615;1.677743911743164;1.0452959537506104;0.0;0.0;0.0
2226;0.0;0.0;0.0;-0.1239520013332367;1.6894559860229492;1.0247999429702759;0.0;0.0;0.0
2229;-0.24814799427986145;1.8214600086212158;0.9362279772758484;-0.07320000231266022;1.6387039422988892;0.9437919855117798;18.91312599182129;-46.30062484741211;51.26625061035156
2231;0.0;0.0;0.0;-0.045871999114751816;1.6191840171813965;0.9193919897079468;0.0;0.0;0.0
2233;0.0;0.0;0.0;0.0009759999811649323;1.564527988433838;0.8910880088806152;0.0;0.0;0.0
2235;0.0;0.0;0.0;0.0634399950504303;1.53329598903656;0.8344799876213074;0.0;0.0;0.0
2237;-0.11321599781513214;1.694823980331421;0.7517639994621277;0.0634399950504303;1.4708319902420044;0.7895839810371399;-3.2068748474121094;-44.69062423706055;64.07625579833984
2239;0.0;0.0;0.0;0.08686399459838867;1.4044640064239502;0.7729920148849487;0.0;0.0;0.0
2241;0.0;0.0;0.0;0.06734399497509003;1.3615199327468872;0.7407839894294739;0.0;0.0;0.0
2243;0.0;0.0;0.0;0.0907679945230484;1.3302879333496094;0.732975959777832;0.0;0.0;0.0
2246;-0.04318799823522568;1.4840079545974731;0.6236639618873596;0.04001599922776222;1.256111979484558;0.7290719747543335;-13.496874809265137;-29.57062530517578;79.12625122070312
2248;0.0;0.0;0.0;0.032207999378442764;1.197551965713501;0.732975959777832;0.0;0.0;0.0
2250;0.0;0.0;0.0;0.01268799975514412;1.1624159812927246;0.7163839936256409;0.0;0.0;0.0
2252;0.0;0.0;0.0;0.00878399983048439;1.1311839818954468;0.7124800086021423;0.0;0.0;0.0
2254;-0.09882000088691711;1.30295991897583;0.5980439782142639;-0.014639999717473984;1.1038559675216675;0.725167989730835;-19.586875915527344;-11.720624923706055;92.2862548828125
2256;0.0;0.0;0.0;-0.006831999868154526;1.0648159980773926;0.7368800044059753;0.0;0.0;0.0
2258;0.0;0.0;0.0;-0.06539200246334076;1.002351999282837;0.7290719747543335;0.0;0.0;0.0
2260;0.0;0.0;0.0;-0.06148799881339073;0.9750239849090576;0.6919839978218079;0.0;0.0;0.0
2263;-0.16616399586200714;1.1331360340118408;0.5973119735717773;-0.06539200246334076;0.9359839558601379;0.708575963973999;-25.95687484741211;-1.5706249475479126;103.90625
2265;0.0;0.0;0.0;-0.08100800216197968;0.8344799876213074;0.7124800086021423;0.0;0.0;0.0
2267;0.0;0.0;0.0;-0.10833600163459778;0.7681120038032532;0.7046719789505005;0.0;0.0;0.0
2269;0.0;0.0;0.0;-0.11614400148391724;0.725167989730835;0.708575963973999;0.0;0.0;0.0
2271;-0.2227720022201538;0.9076799750328064;0.5758399963378906;-0.1239520013332367;0.6822239756584167;0.7124800086021423;-30.086875915527344;3.609375;114.61625671386719
2274;0.0;0.0;0.0;-0.15811198949813843;0.6002399921417236;0.708575963973999;0.0;0.0;0.0
2275;0.0;0.0;0.0;-0.16201600432395935;0.5533919930458069;0.6802719831466675;0.0;0.0;0.0
2277;0.0;0.0;0.0;-0.1698240041732788;0.4909279942512512;0.6802719831466675;0.0;0.0;0.0
2280;-0.264739990234375;0.6609959602355957;0.5660799741744995;-0.1512800008058548;0.4323679804801941;0.7124800086021423;-29.526874542236328;9.489375114440918;123.15625762939453
2282;0.0;0.0;0.0;-0.17372798919677734;0.35819199681282043;0.725167989730835;0.0;0.0;0.0
2284;0.0;0.0;0.0;-0.2088640034198761;0.33086398243904114;0.7212640047073364;0.0;0.0;0.0
2286;0.0;0.0;0.0;-0.24009600281715393;0.24887999892234802;0.732975959777832;0.0;0.0;0.0
2288;-0.3264719843864441;0.44944798946380615;0.6007279753684998;-0.236191987991333;0.26449599862098694;0.7651839852333069;-26.306875228881836;15.2993745803833;129.7362518310547
2290;0.0;0.0;0.0;-0.23228800296783447;0.16591998934745789;0.7856799960136414;0.0;0.0;0.0
2292;0.0;0.0;0.0;-0.26742398738861084;0.15811198949813843;0.8061760067939758;0.0;0.0;0.0
2294;0.0;0.0;0.0;-0.236191987991333;0.13078400492668152;0.8266719579696655;0.0;0.0;0.0
2297;-0.36331599950790405;0.29280000925064087;0.6627039909362793;-0.2635200023651123;0.09564799815416336;0.8139839768409729;-24.4168758392334;15.509374618530273;132.6062469482422
2299;0.0;0.0;0.0;-0.2635200023651123;0.04879999905824661;0.8100799918174744;0.0;0.0;0.0
2301;0.0;0.0;0.0;-0.24399998784065247;0.044895999133586884;0.8266719579696655;0.0;0.0;0.0
2303;0.0;0.0;0.0;-0.2518079876899719;-0.0019519999623298645;0.8383839726448059;0.0;0.0;0.0
2305;-0.3689279854297638;0.1617719978094101;0.6973519921302795;-0.24399998784065247;-0.044895999133586884;0.8422879576683044;-23.156875610351562;14.459375381469727;133.79624938964844
2307;0.0;0.0;0.0;-0.23228800296783447;-0.05953599885106087;0.8266719579696655;0.0;0.0;0.0
2309;0.0;0.0;0.0;-0.24009600281715393;-0.06734399497509003;0.8705919981002808;0.0;0.0;0.0
2311;0.0;0.0;0.0;-0.2518079876899719;-0.1180959939956665;0.8871839642524719;0.0;0.0;0.0
2314;-0.3567279875278473;0.0302559994161129;0.7256559729576111;-0.23228800296783447;-0.26254400610923767;0.8666880130767822;-18.95687484741211;13.479374885559082;136.1062469482422
2316;0.0;0.0;0.0;-0.236191987991333;-0.23131199181079865;0.8998720049858093;0.0;0.0;0.0
2318;0.0;0.0;0.0;-0.35624000430107117;-0.2000799924135208;0.8988959789276123;0.0;0.0;0.0
2320;0.0;0.0;0.0;-0.24009600281715393;-0.4421280026435852;0.8510719537734985;0.0;0.0;0.0
2322;-0.38600799441337585;-0.1542080044746399;0.7517639994621277;-0.236191987991333;-0.3172000050544739;0.9476959705352783;-13.3568754196167;3.9593749046325684;139.81625366210938
2324;0.0;0.0;0.0;-0.21276798844337463;-0.45481598377227783;0.8793759942054749;0.0;0.0;0.0
2326;0.0;0.0;0.0;-0.2088640034198761;-0.5524159669876099;0.8266719579696655;0.0;0.0;0.0
2328;0.0;0.0;0.0;-0.22838398814201355;-0.6265919804573059;0.8266719579696655;0.0;0.0;0.0
2331;-0.3228119909763336;-0.399183988571167;0.7202879786491394;-0.15811198949813843;-0.6226879954338074;0.8266719579696655;-13.496874809265137;-2.970625162124634;142.40625
2333;0.0;0.0;0.0;-0.0849120020866394;-0.6656320095062256;0.8383839726448059;0.0;0.0;0.0
2335;0.0;0.0;0.0;-0.04196799919009209;-0.7163839936256409;0.8510719537734985;0.0;0.0;0.0
2337;0.0;0.0;0.0;-0.07320000231266022;-0.700767993927002;0.8754720091819763;0.0;0.0;0.0
2339;-0.20349599421024323;-0.5558319687843323;0.7288280129432678;-0.11224000155925751;-0.7280960083007812;0.8793759942054749;-11.256875038146973;6.82937479019165;136.9462432861328
2341;0.0;0.0;0.0;-0.06929600238800049;-0.7700639963150024;0.8744959831237793;0.0;0.0;0.0
2343;0.0;0.0;0.0;-0.0849120020866394;-0.8012959957122803;0.8988959789276123;0.0;0.0;0.0
2345;0.0;0.0;0.0;-0.0849120020866394;-0.8793759942054749;0.9193919897079468;0.0;0.0;0.0
2348;-0.21032799780368805;-0.6922279596328735;0.7759199738502502;-0.06929600238800049;-0.961359977722168;0.9320799708366394;-13.076874732971191;12.219374656677246;135.05624389648438
2350;0.0;0.0;0.0;-0.06148799881339073;-1.0394400358200073;0.9193919897079468;0.0;0.0;0.0
2352;0.0;0.0;0.0;-0.03415999934077263;-1.1331360340118408;0.9398880004882812;0.0;0.0;0.0
2354;0.0;0.0;0.0;-0.049775999039411545;-1.1760799884796143;0.9720959663391113;0.0;0.0;0.0
2356;-0.16079600155353546;-0.9862479567527771;0.8298439979553223;-0.014639999717473984;-1.2697759866714478;1.0169919729232788;-17.766874313354492;22.719375610351562;134.56625366210938
2358;0.0;0.0;0.0;-0.09272000193595886;-1.352735996246338;1.097999930381775;0.0;0.0;0.0
2360;0.0;0.0;0.0;-0.0849120020866394;-1.4347199201583862;1.134112000465393;0.0;0.0;0.0
2363;0.0;0.0;0.0;-0.16201600432395935;-1.5167039632797241;1.207311987876892;0.0;0.0;0.0
2365;-0.2222839891910553;-1.2988120317459106;1.0003999471664429;-0.15030398964881897;-1.5830719470977783;1.256111979484558;-24.13687515258789;56.5993766784668;125.11625671386719
2367;0.0;0.0;0.0;-0.20495998859405518;-1.6650559902191162;1.3332159519195557;0.0;0.0;0.0
2369;0.0;0.0;0.0;-0.22838398814201355;-1.735327959060669;1.3976320028305054;0.0;0.0;0.0
2371;0.0;0.0;0.0;-0.2869440019130707;-1.8173120021820068;1.45033597946167;0.0;0.0;0.0
2373;-0.3694159984588623;-1.611132025718689;1.2609919309616089;-0.3298879861831665;-1.930527925491333;1.5528159141540527;-34.84687805175781;82.56937408447266;108.59625244140625
2375;0.0;0.0;0.0;-0.39235198497772217;-1.9920159578323364;1.5938079357147217;0.0;0.0;0.0
2377;0.0;0.0;0.0;-0.4391999840736389;-1.949072003364563;1.6875039339065552;0.0;0.0;0.0
2380;0.0;0.0;0.0;-0.41577598452568054;-2.1520800590515137;1.6757919788360596;0.0;0.0;0.0
2382;-0.5394839644432068;-1.8883159160614014;1.525488018989563;-0.5485119819641113;-2.167695999145508;1.8016959428787231;-46.81687545776367;82.56937408447266;88.50625610351562
2384;0.0;0.0;0.0;-0.4938559830188751;-2.183311939239502;1.849519968032837;0.0;0.0;0.0
2386;0.0;0.0;0.0;-0.5485119819641113;-2.273103952407837;1.8221919536590576;0.0;0.0;0.0
2388;0.0;0.0;0.0;-0.536799967288971;-2.362895965576172;1.8417119979858398;0.0;0.0;0.0
