Timestamp(ms);LG-Accel x(g);LG-Accel y(g);LG-Accel z(g);HG-Accel x(g);HG-Accel y(g);HG-Accel z(g);Gyro x(dps);Gyro y(dps);Gyro z(dps)
54;0.0;0.0;0.0;-0.01268799975514412;-0.07027199864387512;1.3556640148162842;0.0;0.0;0.0
56;0.0;0.0;0.0;-0.004879999905824661;-0.07417599856853485;1.3068640232086182;0.0;0.0;0.0
58;0.0;0.0;0.0;0.03806399926543236;-0.07807999849319458;1.2990559339523315;0.0;0.0;0.0
60;0.0;0.0;0.0;0.049775999039411545;-0.054655998945236206;1.270751953125;0.0;0.0;0.0
62;0.0;0.0;0.0;0.10052800178527832;-0.08979199826717377;1.2502559423446655;0.0;0.0;0.0
64;0.0;0.0;0.0;0.1454239934682846;-0.10735999792814255;1.2278079986572266;0.0;0.0;0.0
67;0.0;0.0;0.0;0.18836799263954163;-0.09564799815416336;1.158511996269226;0.0;0.0;0.0
69;0.0;0.0;0.0;0.20788799226284027;-0.09174399822950363;1.1184959411621094;0.0;0.0;0.0
71;0.05660799890756607;0.037331998348236084;1.0404160022735596;0.20788799226284027;-0.13078400492668152;1.1058080196380615;0.0;0.0;0.0
73;0.0;0.0;0.0;0.23521599173545837;-0.115167997777462;1.0618879795074463;0.0;0.0;0.0
75;0.0;0.0;0.0;0.26254400610923767;-0.0878399983048439;1.0247999429702759;0.0;0.0;0.0
77;0.0;0.0;0.0;0.27425599098205566;-0.08003199845552444;0.9642879962921143;0.0;0.0;0.0
79;0.14469200372695923;0.039772000163793564;0.8781560063362122;0.3211039900779724;-0.0878399983048439;0.9154880046844482;0.0;0.0;0.0
81;0.0;0.0;0.0;0.4050399959087372;-0.09174399822950363;0.8832799792289734;0.0;0.0;0.0
84;0.0;0.0;0.0;0.4440799951553345;-0.10735999792814255;0.8217920064926147;0.0;0.0;0.0
86;0.0;0.0;0.0;0.46750399470329285;-0.06441599875688553;0.8061760067939758;0.0;0.0;0.0
88;0.31500399112701416;0.05660799890756607;0.7161399722099304;0.5026400089263916;-0.0605119988322258;0.7856799960136414;0.0;0.0;0.0
90;0.0;0.0;0.0;0.4909279942512512;-0.01756799966096878;0.7407839894294739;0.0;0.0;0.0
92;0.0;0.0;0.0;0.5182560086250305;0.009759999811649323;0.732975959777832;0.0;0.0;0.0
94;0.0;0.0;0.0;0.537775993347168;0.08393599838018417;0.7046719789505005;0.0;0.0;0.0
96;0.39869600534439087;0.14908400177955627;0.6095119714736938;0.537775993347168;0.08003199845552444;0.6968640089035034;0.0;0.0;0.0
98;0.0;0.0;0.0;0.5075199604034424;0.115167997777462;0.6724640130996704;0.0;0.0;0.0
101;0.0;0.0;0.0;0.5582720041275024;0.13859200477600098;0.6441599726676941;0.0;0.0;0.0
103;0.0;0.0;0.0;0.5582720041275024;0.18544000387191772;0.6158559918403625;0.0;0.0;0.0
105;0.4265120029449463;0.29304400086402893;0.5219159722328186;0.5660799741744995;0.25571200251579285;0.6070719957351685;0.0;0.0;0.0
107;0.0;0.0;0.0;0.5426560044288635;0.3142719864845276;0.587552011013031;0.0;0.0;0.0
109;0.0;0.0;0.0;0.4684799909591675;0.36111998558044434;0.5543680191040039;0.0;0.0;0.0
111;0.0;0.0;0.0;0.5075199604034424;0.3962559998035431;0.562175989151001;0.0;0.0;0.0
113;0.39186400175094604;0.4962959885597229;0.4445679783821106;0.4958080053329468;0.47043198347091675;0.5543680191040039;9.961874961853027;-4.528125286102295;-40.04875183105469
116;0.0;0.0;0.0;0.5075199604034424;0.5250880122184753;0.5387519598007202;0.0;0.0;0.0
118;0.0;0.0;0.0;0.5309439897537231;0.5914559960365295;0.5504639744758606;0.0;0.0;0.0
120;0.0;0.0;0.0;0.5465599894523621;0.6383039951324463;0.5465599894523621;0.0;0.0;0.0
122;0.4108960032463074;0.7083320021629333;0.4274879992008209;0.5426560044288635;0.6031680107116699;0.5055679678916931;36.49187469482422;25.781875610351562;-30.668750762939453
124;0.0;0.0;0.0;0.5582720041275024;0.7398079633712769;0.6031680107116699;0.0;0.0;0.0
126;0.0;0.0;0.0;0.48019200563430786;0.7593280076980591;0.5826719999313354;0.0;0.0;0.0
128;0.0;0.0;0.0;0.472383975982666;0.6773439645767212;0.5543680191040039;0.0;0.0;0.0
130;0.3869839906692505;0.8374080061912537;0.4470079839229584;0.49190399050712585;0.7163839936256409;0.5953599810600281;64.7718734741211;55.951873779296875;-13.098750114440918
133;0.0;0.0;0.0;0.4635999798774719;0.7124800086021423;0.586575984954834;0.0;0.0;0.0
135;0.0;0.0;0.0;0.4440799951553345;0.798367977142334;0.6236639618873596;0.0;0.0;0.0
137;0.0;0.0;0.0;0.45188799500465393;0.8022719621658325;0.6236639618873596;0.0;0.0;0.0
139;0.3411119878292084;0.8908439874649048;0.493367999792099;0.42846399545669556;0.8178879618644714;0.6636799573898315;91.37187194824219;71.421875;12.03125
141;0.0;0.0;0.0;0.4167519807815552;0.8335039615631104;0.7163839936256409;0.0;0.0;0.0
143;0.0;0.0;0.0;0.4167519807815552;0.8569279909133911;0.7690879702568054;0.0;0.0;0.0
145;0.0;0.0;0.0;0.32793599367141724;0.87254399061203;0.8139839768409729;0.0;0.0;0.0
147;0.2681559920310974;0.982587993144989;0.6329360008239746;0.284991979598999;0.87254399061203;0.8510719537734985;110.62187194824219;91.4418716430664;34.6412467956543
150;0.0;0.0;0.0;0.2420479953289032;0.895967960357666;0.9076799750328064;0.0;0.0;0.0
152;0.0;0.0;0.0;0.17958399653434753;0.8842560052871704;0.9681919813156128;0.0;0.0;0.0
154;0.0;0.0;0.0;0.0907679945230484;0.895967960357666;1.0247999429702759;0.0;0.0;0.0
156;0.054655998945236206;1.0245559215545654;0.8335039615631104;0.04782399907708168;0.8920639753341675;1.0657919645309448;112.65187072753906;118.53187561035156;50.3912467956543
158;0.0;0.0;0.0;0.00878399983048439;0.8803519606590271;1.0862879753112793;0.0;0.0;0.0
160;0.0;0.0;0.0;-0.07320000231266022;0.8608319759368896;1.150704026222229;0.0;0.0;0.0
162;0.0;0.0;0.0;-0.10052800178527832;0.7866559624671936;1.2034080028533936;0.0;0.0;0.0
164;-0.18470799922943115;0.9716079831123352;1.0228480100631714;-0.1698240041732788;0.7905600070953369;1.2600159645080566;102.08187103271484;138.1318817138672;57.811248779296875
166;0.0;0.0;0.0;-0.19324800372123718;0.7671359777450562;1.297104001045227;0.0;0.0;0.0
169;0.0;0.0;0.0;-0.24009600281715393;0.7437120079994202;1.3859199285507202;0.0;0.0;0.0
171;0.0;0.0;0.0;-0.2791360020637512;0.6968640089035034;1.4220319986343384;0.0;0.0;0.0
173;-0.3577039837837219;0.8666880130767822;1.229759931564331;-0.34062400460243225;0.700767993927002;1.499135971069336;86.75187683105469;144.36187744140625;59.00124740600586
175;0.0;0.0;0.0;-0.3835679888725281;0.6890559792518616;1.531343936920166;0.0;0.0;0.0
177;0.0;0.0;0.0;-0.4421280026435852;0.6695359945297241;1.588927984237671;0.0;0.0;0.0
179;0.0;0.0;0.0;-0.5045920014381409;0.6773439645767212;1.6543200016021729;0.0;0.0;0.0
181;-0.5524159669876099;0.8188639879226685;1.44569993019104;-0.5202080011367798;0.6734399795532227;1.6660319566726685;66.45187377929688;132.53187561035156;56.551246643066406
184;0.0;0.0;0.0;-0.569983959197998;0.6617279648780823;1.6748160123825073;0.0;0.0;0.0
186;0.0;0.0;0.0;-0.5426560044288635;0.6578239798545837;1.6992160081863403;0.0;0.0;0.0
188;0.0;0.0;0.0;-0.5856000185012817;0.610975980758667;1.6953120231628418;0.0;0.0;0.0
190;-0.6890559792518616;0.7651839852333069;1.5506199598312378;-0.5738880038261414;0.5563200116157532;1.7148319482803345;41.951873779296875;97.3218765258789;53.26124954223633
192;0.0;0.0;0.0;-0.5582720041275024;0.5407040119171143;1.686527967453003;0.0;0.0;0.0
194;0.0;0.0;0.0;-0.5924319624900818;0.513375997543335;1.6787199974060059;0.0;0.0;0.0
196;0.0;0.0;0.0;-0.5660799741744995;0.4626239836215973;1.6504160165786743;0.0;0.0;0.0
198;-0.7034519910812378;0.6417199969291687;1.5298799276351929;-0.5660799741744995;0.41967999935150146;1.6172319650650024;19.551876068115234;54.06187438964844;48.991249084472656
201;0.0;0.0;0.0;-0.5543680191040039;0.4079679846763611;1.6016160249710083;0.0;0.0;0.0
203;0.0;0.0;0.0;-0.5651040077209473;0.3728320002555847;1.5528159141540527;0.0;0.0;0.0
205;0.0;0.0;0.0;-0.5816959738731384;0.33769598603248596;1.5489119291305542;0.0;0.0;0.0
207;-0.6917399764060974;0.5048359632492065;1.4293519258499146;-0.569983959197998;0.3181760013103485;1.5001119375228882;2.121875047683716;12.831875801086426;44.721248626708984
209;0.0;0.0;0.0;-0.5192319750785828;0.30646398663520813;1.45033597946167;0.0;0.0;0.0
211;0.0;0.0;0.0;-0.48799997568130493;0.25571200251579285;1.3820159435272217;0.0;0.0;0.0
213;0.0;0.0;0.0;-0.4840959906578064;0.2205759882926941;1.2844159603118896;0.0;0.0;0.0
215;-0.6165879964828491;0.38478800654411316;1.2341519594192505;-0.4138239920139313;0.19324800372123718;1.256111979484558;-12.928125381469727;-26.858125686645508;42.76124954223633
218;0.0;0.0;0.0;-0.38259199261665344;0.13859200477600098;1.182911992073059;0.0;0.0;0.0
220;0.0;0.0;0.0;-0.3054879903793335;0.09174399822950363;1.1106879711151123;0.0;0.0;0.0
222;0.0;0.0;0.0;-0.25863999128341675;0.0605119988322258;1.0208959579467773;0.0;0.0;0.0
224;-0.4399319887161255;0.22301599383354187;0.9745360016822815;-0.20398399233818054;-0.009759999811649323;0.9720959663391113;-20.768123626708984;-51.91812515258789;43.811248779296875
226;0.0;0.0;0.0;-0.2117919921875;-0.0878399983048439;0.9076799750328064;0.0;0.0;0.0
228;0.0;0.0;0.0;-0.16103999316692352;-0.10345599800348282;0.8988959789276123;0.0;0.0;0.0
230;0.0;0.0;0.0;-0.11907199770212173;-0.13859200477600098;0.8344799876213074;0.0;0.0;0.0
232;-0.2874319851398468;0.01903199963271618;0.750544011592865;-0.09955199807882309;-0.19715198874473572;0.8022719621658325;-16.91812515258789;-55.41812515258789;50.0412483215332
235;0.0;0.0;0.0;-0.07320000231266022;-0.2088640034198761;0.7856799960136414;0.0;0.0;0.0
237;0.0;0.0;0.0;-0.03415999934077263;-0.24009600281715393;0.7456640005111694;0.0;0.0;0.0
239;0.0;0.0;0.0;0.020495999604463577;-0.29865598678588867;0.725167989730835;0.0;0.0;0.0
241;-0.1361519992351532;-0.11834000051021576;0.6175639629364014;0.07905599474906921;-0.29475200176239014;0.7212640047073364;-4.948124885559082;-48.138126373291016;59.21125030517578
243;0.0;0.0;0.0;0.15225599706172943;-0.32598400115966797;0.6968640089035034;0.0;0.0;0.0
245;0.0;0.0;0.0;0.1756799966096878;-0.36502400040626526;0.6929599642753601;0.0;0.0;0.0
247;0.0;0.0;0.0;0.19519999623298645;-0.36111998558044434;0.7163839936256409;0.0;0.0;0.0
249;0.051239997148513794;-0.22496800124645233;0.5694959759712219;0.24985599517822266;-0.3845439851284027;0.7368800044059753;10.52187442779541;-35.67812728881836;72.9312515258789
252;0.0;0.0;0.0;0.25863999128341675;-0.411871999502182;0.7456640005111694;0.0;0.0;0.0
254;0.0;0.0;0.0;0.28596800565719604;-0.45481598377227783;0.7407839894294739;0.0;0.0;0.0
256;0.0;0.0;0.0;0.2898719906806946;-0.4509119987487793;0.798367977142334;0.0;0.0;0.0
258;0.15030398964881897;-0.2984119951725006;0.6451359987258911;0.27425599098205566;-0.45481598377227783;0.8832799792289734;19.621875762939453;-12.158124923706055;88.0512466430664
260;0.0;0.0;0.0;0.2820639908313751;-0.6383039951324463;0.8588799834251404;0.0;0.0;0.0
262;0.0;0.0;0.0;0.20788799226284027;-0.6070719957351685;0.9281759858131409;0.0;0.0;0.0
264;0.0;0.0;0.0;0.20788799226284027;-0.6226879954338074;0.9603840112686157;0.0;0.0;0.0
266;0.11907199770212173;-0.4684799909591675;0.7895839810371399;0.20788799226284027;-0.7124800086021423;1.0335839986801147;15.211874961853027;17.731876373291016;101.00125122070312
269;0.0;0.0;0.0;0.20788799226284027;-0.8022719621658325;1.0696959495544434;0.0;0.0;0.0
271;0.0;0.0;0.0;0.18055999279022217;-0.8803519606590271;1.126304030418396;0.0;0.0;0.0
273;0.0;0.0;0.0;0.13761599361896515;-0.9232959747314453;1.1956000328063965;0.0;0.0;0.0
275;0.048555999994277954;-0.7307800054550171;1.0113799571990967;0.07612799853086472;-1.0247999429702759;1.2404959201812744;1.981874942779541;49.30187225341797;106.04125213623047
277;0.0;0.0;0.0;0.04879999905824661;-1.1536319255828857;1.32150399684906;0.0;0.0;0.0
279;0.0;0.0;0.0;0.02537599951028824;-1.2356159687042236;1.345903992652893;0.0;0.0;0.0
281;0.0;0.0;0.0;0.0019519999623298645;-1.3488320112228394;1.4220319986343384;0.0;0.0;0.0
283;-0.10052800178527832;-1.1050759553909302;1.2309799194335938;-0.04879999905824661;-1.4308159351348877;1.4708319902420044;-14.608125686645508;68.06187438964844;105.69124603271484
286;0.0;0.0;0.0;-0.11907199770212173;-1.4698560237884521;1.5206079483032227;0.0;0.0;0.0
288;0.0;0.0;0.0;-0.13078400492668152;-1.5518399477005005;1.5694079399108887;0.0;0.0;0.0
290;0.0;0.0;0.0;-0.1571359932422638;-1.6103999614715576;1.6221119165420532;0.0;0.0;0.0
292;-0.2564440071582794;-1.4242279529571533;1.4405759572982788;-0.2391199916601181;-1.7158079147338867;1.6748160123825073;-27.34812355041504;63.37187194824219;99.1812515258789
294;0.0;0.0;0.0;-0.26254400610923767;-1.7548480033874512;1.6748160123825073;0.0;0.0;0.0
296;0.0;0.0;0.0;-0.30158400535583496;-1.8875839710235596;1.7031199932098389;0.0;0.0;0.0
298;0.0;0.0;0.0;-0.3630719780921936;-1.9500479698181152;1.7031199932098389;0.0;0.0;0.0
300;-0.4387120008468628;-1.7453320026397705;1.55159592628479;-0.4294399917125702;-2.0476479530334473;1.7148319482803345;-38.19812774658203;36.701873779296875;87.49124908447266
303;0.0;0.0;0.0;-0.4538399875164032;-2.102303981781006;1.718735933303833;0.0;0.0;0.0
305;0.0;0.0;0.0;-0.48507198691368103;-2.1452479362487793;1.7392319440841675;0.0;0.0;0.0
307;0.0;0.0;0.0;-0.5163040161132812;-2.1842880249023438;1.735327959060669;0.0;0.0;0.0
309;-0.5970680117607117;-2.0015320777893066;1.5969799757003784;-0.5280159711837769;-2.19599986076355;1.735327959060669;-46.10812759399414;3.801874876022339;65.02124786376953
311;0.0;0.0;0.0;-0.5475360155105591;-2.203808069229126;1.7314239740371704;0.0;0.0;0.0
313;0.0;0.0;0.0;-0.5084959864616394;-2.199903964996338;1.7148319482803345;0.0;0.0;0.0
315;0.0;0.0;0.0;-0.48897600173950195;-2.1803839206695557;1.686527967453003;0.0;0.0;0.0
317;-0.6466000080108643;-2.05325984954834;1.5667239427566528;-0.5006880164146423;-2.1647679805755615;1.6338239908218384;-54.99812698364258;-32.52812576293945;33.94124984741211
320;0.0;0.0;0.0;-0.4382239878177643;-2.1413440704345703;1.5762399435043335;0.0;0.0;0.0
322;0.0;0.0;0.0;-0.4030880033969879;-2.121824026107788;1.5079200267791748;0.0;0.0;0.0
324;0.0;0.0;0.0;-0.35624000430107117;-2.0788800716400146;1.4425280094146729;0.0;0.0;0.0
326;-0.5216720104217529;-1.9773759841918945;1.3710359334945679;-0.30646398663520813;-2.0476479530334473;1.3615199327468872;-59.75812530517578;-80.96812438964844;3.911250114440918
328;0.0;0.0;0.0;-0.26742398738861084;-2.0007998943328857;1.2883199453353882;0.0;0.0;0.0
330;0.0;0.0;0.0;-0.21276798844337463;-1.9578559398651123;1.2200000286102295;0.0;0.0;0.0
332;0.0;0.0;0.0;-0.12785600125789642;-1.8797760009765625;1.134112000465393;0.0;0.0;0.0
334;-0.3123199939727783;-1.8034039735794067;1.0867760181427002;-0.03415999934077263;-1.8641599416732788;1.0657919645309448;-59.26812744140625;-122.828125;-22.478750228881836
337;0.0;0.0;0.0;0.04391999915242195;-1.793887972831726;0.9720959663391113;0.0;0.0;0.0
339;0.0;0.0;0.0;0.10150399804115295;-1.7470399141311646;0.8793759942054749;0.0;0.0;0.0
341;0.0;0.0;0.0;0.1483519971370697;-1.7197120189666748;0.798367977142334;0.0;0.0;0.0
343;-0.02659599855542183;-1.6094239950180054;0.7517639994621277;0.2576639950275421;-1.6025919914245605;0.6919839978218079;-61.368125915527344;-147.7481231689453;-41.938751220703125
345;0.0;0.0;0.0;0.34355199337005615;-1.5635520219802856;0.6636799573898315;0.0;0.0;0.0
347;0.0;0.0;0.0;0.42846399545669556;-1.4893759489059448;0.6031680107116699;0.0;0.0;0.0
349;0.0;0.0;0.0;0.5260639786720276;-1.4308159351348877;0.5465599894523621;0.0;0.0;0.0
351;0.3047559857368469;-1.3593239784240723;0.4882439970970154;0.5807200074195862;-1.360543966293335;0.5143519639968872;-61.7181282043457;-143.4081268310547;-59.99875259399414
354;0.0;0.0;0.0;0.6158559918403625;-1.3176000118255615;0.46164798736572266;0.0;0.0;0.0
356;0.0;0.0;0.0;0.6353759765625;-1.2395199537277222;0.4206559956073761;0.0;0.0;0.0
358;0.0;0.0;0.0;0.6656320095062256;-1.1848639249801636;0.39235198497772217;0.0;0.0;0.0
360;0.5287479758262634;-1.097756028175354;0.31036800146102905;0.7280960083007812;-1.1067839860916138;0.3513599932193756;-64.58812713623047;-116.59812927246094;-74.76875305175781
362;0.0;0.0;0.0;0.7788479924201965;-1.0716480016708374;0.3230559825897217;0.0;0.0;0.0
364;0.0;0.0;0.0;0.7827519774436951;-0.9896639585494995;0.29475200176239014;0.0;0.0;0.0
366;0.0;0.0;0.0;0.8374080061912537;-0.9428159594535828;0.2791360020637512;0.0;0.0;0.0
369;0.6839320063591003;-0.8647359609603882;0.18226799368858337;0.8256959915161133;-0.9115839600563049;0.2664479911327362;-64.51812744140625;-72.35812377929688;-82.1187515258789
371;0.0;0.0;0.0;0.8422879576683044;-0.8686400055885315;0.25863999128341675;0.0;0.0;0.0
373;0.0;0.0;0.0;0.8188639879226685;-0.8335039615631104;0.2869440019130707;0.0;0.0;0.0
375;0.0;0.0;0.0;0.7759199738502502;-0.8100799918174744;0.3113439977169037;0.0;0.0;0.0
377;0.6910079717636108;-0.7010120153427124;0.17299599945545197;0.7407839894294739;-0.7671359777450562;0.3513599932193756;-55.138126373291016;-16.14812469482422;-79.17874908447266
379;0.0;0.0;0.0;0.6783199906349182;-0.7437120079994202;0.39235198497772217;0.0;0.0;0.0
381;0.0;0.0;0.0;0.6666079759597778;-0.7124800086021423;0.3962559998035431;0.0;0.0;0.0
383;0.0;0.0;0.0;0.6051200032234192;-0.700767993927002;0.4411519765853882;0.0;0.0;0.0
385;0.5372880101203918;-0.5814520120620728;0.2791360020637512;0.5816959738731384;-0.6539199948310852;0.4567679762840271;-41.48812484741211;27.461875915527344;-67.13875579833984
388;0.0;0.0;0.0;0.6041439771652222;-0.6344000101089478;0.5055679678916931;0.0;0.0;0.0
390;0.0;0.0;0.0;0.561199963092804;-0.5602239966392517;0.562175989151001;0.0;0.0;0.0
392;0.0;0.0;0.0;0.561199963092804;-0.5602239966392517;0.6236639618873596;0.0;0.0;0.0
394;0.4579879939556122;-0.46701598167419434;0.4450559914112091;0.4987359941005707;-0.5250880122184753;0.7368800044059753;-25.038124084472656;55.46187210083008;-56.778751373291016
396;0.0;0.0;0.0;0.4440799951553345;-0.5055679678916931;0.773967981338501;0.0;0.0;0.0
398;0.0;0.0;0.0;0.3240320086479187;-0.44310399889945984;0.8344799876213074;0.0;0.0;0.0
400;0.0;0.0;0.0;0.21081599593162537;-0.40406399965286255;0.8793759942054749;0.0;0.0;0.0
402;0.1949559897184372;-0.3118319809436798;0.7034519910812378;0.14054399728775024;-0.38844799995422363;0.9037759900093079;-16.358123779296875;77.58187103271484;-55.72875213623047
405;0.0;0.0;0.0;0.07515199482440948;-0.34940800070762634;0.9515999555587769;0.0;0.0;0.0
407;0.0;0.0;0.0;0.07124799489974976;-0.3455039858818054;0.9886879920959473;0.0;0.0;0.0
409;0.0;0.0;0.0;0.08686399459838867;-0.3298879861831665;1.0052800178527832;0.0;0.0;0.0
411;-0.0453839972615242;-0.2134999930858612;0.8549759984016418;0.028303999453783035;-0.32207998633384705;1.0208959579467773;-18.948123931884766;83.0418701171875;-55.72875213623047
413;0.0;0.0;0.0;0.01659199967980385;-0.3533119857311249;1.0452959537506104;0.0;0.0;0.0
415;0.0;0.0;0.0;-0.010735999792814255;-0.4079679846763611;1.0531039237976074;0.0;0.0;0.0
417;0.0;0.0;0.0;-0.06929600238800049;-0.4352959990501404;1.0823839902877808;0.0;0.0;0.0
419;-0.13590799272060394;-0.264739990234375;0.9308599829673767;-0.10833600163459778;-0.41577598452568054;1.122399926185608;-17.128124237060547;78.84187316894531;-57.26875305175781
422;0.0;0.0;0.0;-0.16201600432395935;-0.36502400040626526;1.1790080070495605;0.0;0.0;0.0
424;0.0;0.0;0.0;-0.24399998784065247;-0.37673598527908325;1.2444000244140625;0.0;0.0;0.0
426;0.0;0.0;0.0;-0.2869440019130707;-0.33769598603248596;1.2844159603118896;0.0;0.0;0.0
428;-0.3442839980125427;-0.21667200326919556;1.093851923942566;-0.35624000430107117;-0.2479040026664734;1.3332159519195557;-13.698124885559082;81.08187103271484;-64.96875
430;0.0;0.0;0.0;-0.39528000354766846;-0.19324800372123718;1.3781119585037231;0.0;0.0;0.0
432;0.0;0.0;0.0;-0.4304159879684448;-0.15030398964881897;1.3976320028305054;0.0;0.0;0.0
434;0.0;0.0;0.0;-0.4538399875164032;-0.09955199807882309;1.4347199201583862;0.0;0.0;0.0
436;-0.537775993347168;-0.007075999863445759;1.2590399980545044;-0.4304159879684448;-0.05270399898290634;1.4386240243911743;-18.52812385559082;74.22187042236328;-76.58875274658203
439;0.0;0.0;0.0;-0.4294399917125702;-0.0605119988322258;1.4591199159622192;0.0;0.0;0.0
441;0.0;0.0;0.0;-0.39820799231529236;-0.040991999208927155;1.4874240159988403;0.0;0.0;0.0
443;0.0;0.0;0.0;-0.3513599932193756;-0.0019519999623298645;1.4630240201950073;0.0;0.0;0.0
445;-0.5106920003890991;0.10394399613142014;1.3146719932556152;-0.32793599367141724;0.013663999736309052;1.4347199201583862;-23.638124465942383;43.07187271118164;-84.5687484741211
447;0.0;0.0;0.0;-0.31329599022865295;0.07222399860620499;1.4386240243911743;0.0;0.0;0.0
449;0.0;0.0;0.0;-0.34355199337005615;0.08003199845552444;1.4103199243545532;0.0;0.0;0.0
451;0.0;0.0;0.0;-0.2820639908313751;0.1268799901008606;1.3898239135742188;0.0;0.0;0.0
454;-0.41919198632240295;0.22326000034809113;1.268555998802185;-0.21959999203681946;0.15030398964881897;1.3537119626998901;-22.09812355041504;-0.46812501549720764;-85.82875061035156
456;0.0;0.0;0.0;-0.18544000387191772;0.17372798919677734;1.3293119668960571;0.0;0.0;0.0
458;0.0;0.0;0.0;-0.16591998934745789;0.22838398814201355;1.2766079902648926;0.0;0.0;0.0
460;0.0;0.0;0.0;-0.08881600201129913;0.25571200251579285;1.223904013633728;0.0;0.0;0.0
462;-0.26742398738861084;0.35404399037361145;1.1392359733581543;-0.06929600238800049;0.2518079876899719;1.1633919477462769;-21.608123779296875;-37.49812698364258;-88.90875244140625
464;0.0;0.0;0.0;-0.04196799919009209;0.3025600016117096;1.1184959411621094;0.0;0.0;0.0
466;0.0;0.0;0.0;0.03611199930310249;0.3455039858818054;1.0531039237976074;0.0;0.0;0.0
468;0.0;0.0;0.0;0.14054399728775024;0.37673598527908325;0.9925919771194458;0.0;0.0;0.0
470;-0.07441999763250351;0.48263198137283325;0.9320799708366394;0.15225599706172943;0.47043198347091675;0.9642879962921143;-20.48812484741211;-48.208126068115234;-92.05875396728516
473;0.0;0.0;0.0;0.22252799570560455;0.5016639828681946;0.9115839600563049;0.0;0.0;0.0
475;0.0;0.0;0.0;0.2576639950275421;0.5641279816627502;0.8910880088806152;0.0;0.0;0.0
477;0.0;0.0;0.0;0.3396480083465576;0.4899519979953766;0.7778719663619995;0.0;0.0;0.0
479;0.16421200335025787;0.631227970123291;0.7417600154876709;0.4167519807815552;0.5172799825668335;0.8305760025978088;-11.178125381469727;-31.89812469482422;-89.18875122070312
481;0.0;0.0;0.0;0.4177280068397522;0.5953599810600281;0.8178879618644714;0.0;0.0;0.0
483;0.0;0.0;0.0;0.4177280068397522;0.6773439645767212;0.8178879618644714;0.0;0.0;0.0
485;0.0;0.0;0.0;0.447983980178833;0.6578239798545837;0.7817760109901428;0.0;0.0;0.0
488;0.3079279959201813;0.7683559656143188;0.6746599674224854;0.3786879777908325;0.6812480092048645;0.749567985534668;11.221875190734863;-2.4281251430511475;-75.18875122070312
490;0.0;0.0;0.0;0.3903999924659729;0.7515199780464172;0.7778719663619995;0.0;0.0;0.0
492;0.0;0.0;0.0;0.374783992767334;0.8061760067939758;0.7778719663619995;0.0;0.0;0.0
494;0.0;0.0;0.0;0.3357439935207367;0.7671359777450562;0.773967981338501;0.0;0.0;0.0
496;0.24717199802398682;0.8954799771308899;0.6546519994735718;0.28889599442481995;0.8022719621658325;0.8344799876213074;37.33187484741211;26.691875457763672;-56.14875030517578
498;0.0;0.0;0.0;0.2654719948768616;0.7827519774436951;0.8627839684486389;0.0;0.0;0.0
500;0.0;0.0;0.0;0.2420479953289032;0.8764479756355286;0.9037759900093079;0.0;0.0;0.0
502;0.0;0.0;0.0;0.15225599706172943;0.8842560052871704;0.9564799666404724;0.0;0.0;0.0
505;0.09955199807882309;0.9830759763717651;0.7861679792404175;0.1327359974384308;0.8764479756355286;1.0052800178527832;60.711875915527344;62.041873931884766;-42.848751068115234
507;0.0;0.0;0.0;0.10638399422168732;0.9115839600563049;1.0531039237976074;0.0;0.0;0.0
509;0.0;0.0;0.0;0.020495999604463577;0.9506239891052246;1.0775039196014404;0.0;0.0;0.0
511;0.0;0.0;0.0;-0.014639999717473984;0.9935680031776428;1.1428959369659424;0.0;0.0;0.0
513;-0.0849120020866394;1.087507963180542;0.9674599766731262;-0.07320000231266022;1.0287039279937744;1.2121919393539429;73.87187194824219;91.86187744140625;-34.028751373291016
515;0.0;0.0;0.0;-0.13176000118255615;1.0794559717178345;1.256111979484558;0.0;0.0;0.0
517;0.0;0.0;0.0;-0.1512800008058548;1.1575360298156738;1.3049119710922241;0.0;0.0;0.0
519;0.0;0.0;0.0;-0.23228800296783447;1.2082879543304443;1.3781119585037231;0.0;0.0;0.0
522;-0.29060399532318115;1.2717279195785522;1.1797399520874023;-0.2752319872379303;1.2512320280075073;1.4220319986343384;81.36187744140625;105.58187103271484;-27.868749618530273
524;0.0;0.0;0.0;-0.32598400115966797;1.3019839525222778;1.4542399644851685;0.0;0.0;0.0
526;0.0;0.0;0.0;-0.3601439893245697;1.3722559213638306;1.5323200225830078;0.0;0.0;0.0
528;0.0;0.0;0.0;-0.3601439893245697;1.411296010017395;1.5567200183868408;0.0;0.0;0.0
530;-0.464819997549057;1.4805920124053955;1.360055923461914;-0.35233598947525024;1.4386240243911743;1.5567200183868408;80.45187377929688;97.3218765258789;-20.658750534057617
532;0.0;0.0;0.0;-0.39528000354766846;1.465951919555664;1.5606240034103394;0.0;0.0;0.0
534;0.0;0.0;0.0;-0.40699198842048645;1.4893759489059448;1.5518399477005005;0.0;0.0;0.0
536;0.0;0.0;0.0;-0.42260798811912537;1.4932799339294434;1.6016160249710083;0.0;0.0;0.0
539;-0.5287479758262634;1.6108880043029785;1.4283759593963623;-0.4108960032463074;1.5518399477005005;1.564527988433838;74.78187561035156;69.18187713623047;-11.208749771118164
541;0.0;0.0;0.0;-0.3718560039997101;1.5674560070037842;1.5684319734573364;0.0;0.0;0.0
543;0.0;0.0;0.0;-0.37966400384902954;1.6182079315185547;1.5157279968261719;0.0;0.0;0.0
545;0.0;0.0;0.0;-0.4108960032463074;1.6143039464950562;1.499135971069336;0.0;0.0;0.0
547;-0.5172799825668335;1.7265440225601196;1.384455919265747;-0.39137598872184753;1.6182079315185547;1.4591199159622192;66.80187225341797;34.671875;0.9712499976158142
549;0.0;0.0;0.0;-0.36795198917388916;1.6260160207748413;1.4825439453125;0.0;0.0;0.0
551;0.0;0.0;0.0;-0.31036800146102905;1.6689599752426147;1.4103199243545532;0.0;0.0;0.0
553;0.0;0.0;0.0;-0.35624000430107117;1.6689599752426147;1.4220319986343384;0.0;0.0;0.0
556;-0.4672600030899048;1.7809559106826782;1.2966159582138062;-0.3298879861831665;1.7040959596633911;1.3781119585037231;57.84187316894531;12.271875381469727;13.571249961853027
558;0.0;0.0;0.0;-0.3328160047531128;1.7119039297103882;1.3293119668960571;0.0;0.0;0.0
560;0.0;0.0;0.0;-0.3142719864845276;1.7079999446868896;1.3498079776763916;0.0;0.0;0.0
562;0.0;0.0;0.0;-0.30646398663520813;1.6845759153366089;1.3127199411392212;0.0;0.0;0.0
564;-0.4306599795818329;1.8368319272994995;1.2019439935684204;-0.2635200023651123;1.7079999446868896;1.3176000118255615;45.59187316894531;2.9618749618530273;28.62125015258789
566;0.0;0.0;0.0;-0.26742398738861084;1.6923840045928955;1.297104001045227;0.0;0.0;0.0
568;0.0;0.0;0.0;-0.26742398738861084;1.6767679452896118;1.2600159645080566;0.0;0.0;0.0
570;0.0;0.0;0.0;-0.2596159875392914;1.6221119165420532;1.2278079986572266;0.0;0.0;0.0
573;-0.3940599858760834;1.7887639999389648;1.1375279426574707;-0.24399998784065247;1.598688006401062;1.2444000244140625;29.771875381469727;-0.048124998807907104;43.811248779296875
575;0.0;0.0;0.0;-0.236191987991333;1.5401279926300049;1.2034080028533936;0.0;0.0;0.0
577;0.0;0.0;0.0;-0.2479040026664734;1.5284159183502197;1.207311987876892;0.0;0.0;0.0
579;0.0;0.0;0.0;-0.21667200326919556;1.4893759489059448;1.1956000328063965;0.0;0.0;0.0
581;-0.35867998003959656;1.6555399894714355;1.073356032371521;-0.22448000311851501;1.465951919555664;1.1672959327697754;13.951874732971191;-1.7981250286102295;58.02124786376953
583;0.0;0.0;0.0;-0.24009600281715393;1.4386240243911743;1.1546080112457275;0.0;0.0;0.0
585;0.0;0.0;0.0;-0.24009600281715393;1.4034879207611084;1.122399926185608;0.0;0.0;0.0
587;0.0;0.0;0.0;-0.24009600281715393;1.3917759656906128;1.1350879669189453;0.0;0.0;0.0
590;-0.3542879819869995;1.5389080047607422;1.0147960186004639;-0.2205759882926941;1.3644479513168335;1.1145919561386108;0.44187501072883606;-7.678124904632568;70.76124572753906
592;0.0;0.0;0.0;-0.19324800372123718;1.32150399684906;1.0775039196014404;0.0;0.0;0.0
594;0.0;0.0;0.0;-0.18934398889541626;1.2863680124282837;1.0579839944839478;0.0;0.0;0.0
596;0.0;0.0;0.0;-0.15811198949813843;1.2278079986572266;0.9886879920959473;0.0;0.0;0.0
598;-0.3042680025100708;1.4066599607467651;0.9142679572105408;-0.15811198949813843;1.2004799842834473;0.9847840070724487;-10.968125343322754;-19.018125534057617;82.87124633789062
600;0.0;0.0;0.0;-0.11614400148391724;1.1536319255828857;0.9232959747314453;0.0;0.0;0.0
602;0.0;0.0;0.0;-0.10443200170993805;1.0794559717178345;0.9115839600563049;0.0;0.0;0.0
604;0.0;0.0;0.0;-0.09662400186061859;1.044319987297058;0.8510719537734985;0.0;0.0;0.0
607;-0.21398799121379852;1.221951961517334;0.7639639973640442;-0.049775999039411545;0.9896639585494995;0.8383839726448059;-17.198123931884766;-27.41812515258789;95.0512466430664
609;0.0;0.0;0.0;-0.006831999868154526;0.9555040001869202;0.7690879702568054;0.0;0.0;0.0
611;0.0;0.0;0.0;0.01268799975514412;0.9242720007896423;0.773967981338501;0.0;0.0;0.0
613;0.0;0.0;0.0;0.004879999905824661;0.8735199570655823;0.7534719705581665;0.0;0.0;0.0
615;-0.12590399384498596;1.0391960144042969;0.6400119662284851;0.0009759999811649323;0.8149600028991699;0.7407839894294739;-17.61812400817871;-24.268125534057617;107.37124633789062
617;0.0;0.0;0.0;0.004879999905824661;0.7798239588737488;0.7446879744529724;0.0;0.0;0.0
619;0.0;0.0;0.0;-0.0029279999434947968;0.7681120038032532;0.7290719747543335;0.0;0.0;0.0
621;0.0;0.0;0.0;-0.0029279999434947968;0.725167989730835;0.7456640005111694;0.0;0.0;0.0
624;-0.12248799949884415;0.8857199549674988;0.6097559928894043;-0.04196799919009209;0.6822239756584167;0.757375955581665;-18.73812484741211;-4.248125076293945;116.0512466430664
626;0.0;0.0;0.0;-0.045871999114751816;0.6617279648780823;0.7534719705581665;0.0;0.0;0.0
628;0.0;0.0;0.0;-0.06929600238800049;0.6031680107116699;0.7856799960136414;0.0;0.0;0.0
630;0.0;0.0;0.0;-0.09662400186061859;0.536799967288971;0.8266719579696655;0.0;0.0;0.0
632;-0.19056399166584015;0.7378559708595276;0.6651439666748047;-0.1395680010318756;0.536799967288971;0.8383839726448059;-23.00812530517578;24.171875;119.9012451171875
634;0.0;0.0;0.0;-0.1395680010318756;0.5016639828681946;0.8588799834251404;0.0;0.0;0.0
636;0.0;0.0;0.0;-0.17372798919677734;0.45481598377227783;0.9037759900093079;0.0;0.0;0.0
639;0.0;0.0;0.0;-0.20105600357055664;0.43139198422431946;0.9359839558601379;0.0;0.0;0.0
641;-0.2945079803466797;0.582427978515625;0.7664039731025696;-0.21667200326919556;0.3455039858818054;0.9564799666404724;-26.088125228881836;40.97187423706055;122.91124725341797
643;0.0;0.0;0.0;-0.24009600281715393;0.2908479869365692;0.9476959705352783;0.0;0.0;0.0
645;0.0;0.0;0.0;-0.28303998708724976;0.20105600357055664;0.9603840112686157;0.0;0.0;0.0
647;0.0;0.0;0.0;-0.29475200176239014;0.07612799853086472;0.9642879962921143;0.0;0.0;0.0
649;-0.37551599740982056;0.3455039858818054;0.8413119912147522;-0.2635200023651123;0.2518079876899719;1.1145919561386108;-24.548124313354492;36.91187286376953;127.1812515258789
651;0.0;0.0;0.0;-0.4538399875164032;-0.009759999811649323;0.9603840112686157;0.0;0.0;0.0
653;0.0;0.0;0.0;-0.34062400460243225;0.037087999284267426;1.0775039196014404;0.0;0.0;0.0
656;0.0;0.0;0.0;-0.3640480041503906;0.02537599951028824;1.1350879669189453;0.0;0.0;0.0
658;-0.4958080053329468;0.1664080023765564;0.9376919865608215;-0.4421280026435852;-0.12297599762678146;1.0326080322265625;-21.9581241607666;21.861875534057617;130.26124572753906
660;0.0;0.0;0.0;-0.4577440023422241;-0.19324800372123718;1.0091840028762817;0.0;0.0;0.0
662;0.0;0.0;0.0;-0.4304159879684448;-0.1815359890460968;1.0169919729232788;0.0;0.0;0.0
664;0.0;0.0;0.0;-0.39137598872184753;-0.19324800372123718;1.0491999387741089;0.0;0.0;0.0
666;-0.5438759922981262;-0.05514399707317352;0.8945040106773376;-0.40699198842048645;-0.2869440019130707;1.0287039279937744;-22.09812355041504;7.301875114440918;131.4512481689453
668;0.0;0.0;0.0;-0.3484320044517517;-0.32207998633384705;1.0247999429702759;0.0;0.0;0.0
670;0.0;0.0;0.0;-0.4147999882698059;-0.3845439851284027;1.0169919729232788;0.0;0.0;0.0
673;0.0;0.0;0.0;-0.3835679888725281;-0.48214399814605713;1.0169919729232788;0.0;0.0;0.0
675;-0.5197200179100037;-0.26498398184776306;0.8844999670982361;-0.41870400309562683;-0.521183967590332;1.0169919729232788;-16.428123474121094;4.291874885559082;131.80125427246094
677;0.0;0.0;0.0;-0.3757599890232086;-0.6148799657821655;1.0374879837036133;0.0;0.0;0.0
679;0.0;0.0;0.0;-0.35624000430107117;-0.6383039951324463;1.0531039237976074;0.0;0.0;0.0
681;0.0;0.0;0.0;-0.399183988571167;-0.685151994228363;1.0531039237976074;0.0;0.0;0.0
683;-0.522159993648529;-0.5094720125198364;0.9174399971961975;-0.3757599890232086;-0.7280960083007812;1.073599934577942;-2.568125009536743;2.471874952316284;135.93124389648438
685;0.0;0.0;0.0;-0.399183988571167;-0.7632319927215576;1.097999930381775;0.0;0.0;0.0
687;0.0;0.0;0.0;-0.32598400115966797;-0.7905600070953369;1.1058080196380615;0.0;0.0;0.0
690;0.0;0.0;0.0;-0.3328160047531128;-0.8335039615631104;1.146799921989441;0.0;0.0;0.0
692;-0.46042799949645996;-0.6602640151977539;0.9886879920959473;-0.2596159875392914;-0.8764479756355286;1.1712000370025635;10.241874694824219;-8.308124542236328;143.63125610351562
694;0.0;0.0;0.0;-0.19715198874473572;-0.8842560052871704;1.199504017829895;0.0;0.0;0.0
696;0.0;0.0;0.0;-0.24399998784065247;-0.8920639753341675;1.231711983680725;0.0;0.0;0.0
698;0.0;0.0;0.0;-0.16591998934745789;-0.9584319591522217;1.199504017829895;0.0;0.0;0.0
700;-0.3484320044517517;-0.7876319885253906;1.073356032371521;-0.23228800296783447;-0.9896639585494995;1.2639199495315552;12.901874542236328;-14.888124465942383;147.97125244140625
702;0.0;0.0;0.0;-0.17372798919677734;-1.0326080322265625;1.272704005241394;0.0;0.0;0.0
704;0.0;0.0;0.0;-0.16299200057983398;-1.0677440166473389;1.32150399684906;0.0;0.0;0.0
707;0.0;0.0;0.0;-0.18544000387191772;-1.044319987297058;1.3937280178070068;0.0;0.0;0.0
709;-0.30158400535583496;-0.9472079873085022;1.193403959274292;-0.1815359890460968;-1.2746559381484985;1.3498079776763916;1.771875023841858;-6.278125286102295;144.26124572753906
711;0.0;0.0;0.0;-0.2635200023651123;-1.2278079986572266;1.425935983657837;0.0;0.0;0.0
713;0.0;0.0;0.0;-0.2205759882926941;-1.231711983680725;1.4708319902420044;0.0;0.0;0.0
715;0.0;0.0;0.0;-0.25571200251579285;-1.3176000118255615;1.5030399560928345;0.0;0.0;0.0
717;-0.3618519902229309;-1.1358200311660767;1.3285800218582153;-0.2869440019130707;-1.4034879207611084;1.5079200267791748;-22.308124542236328;14.091875076293945;132.01124572753906
719;0.0;0.0;0.0;-0.2869440019130707;-1.4698560237884521;1.5401279926300049;0.0;0.0;0.0
721;0.0;0.0;0.0;-0.28303998708724976;-1.5284159183502197;1.6221119165420532;0.0;0.0;0.0
724;0.0;0.0;0.0;-0.3416000008583069;-1.5323200225830078;1.66212797164917;0.0;0.0;0.0
726;-0.4387120008468628;-1.3717679977416992;1.4686359167099;-0.36795198917388916;-1.606495976448059;1.6904319524765015;-46.52812576293945;32.57187271118164;113.95124816894531
728;0.0;0.0;0.0;-0.35624000430107117;-1.6260160207748413;1.710927963256836;0.0;0.0;0.0
730;0.0;0.0;0.0;-0.3718560039997101;-1.7470399141311646;1.7314239740371704;0.0;0.0;0.0
732;0.0;0.0;0.0;-0.37966400384902954;-1.7977919578552246;1.759727954864502;0.0;0.0;0.0
734;-0.4967840015888214;-1.5991759300231934;1.5942959785461426;-0.3835679888725281;-1.8797760009765625;1.7724159955978394;-64.79812622070312;24.451875686645508;98.97124481201172
736;0.0;0.0;0.0;-0.4382239878177643;-1.9500479698181152;1.8241440057754517;0.0;0.0;0.0
738;0.0;0.0;0.0;-0.4577440023422241;-2.028127908706665;1.8046239614486694;0.0;0.0;0.0
741;0.0;0.0;0.0;-0.47336000204086304;-2.0515520572662354;1.7714399099349976;0.0;0.0;0.0
743;-0.5702279806137085;-1.8673319816589355;1.6440719366073608;-0.5319200158119202;-2.117919921875;1.767535924911499;-76.06812286376953;-2.708125114440918;84.1312484741211
745;0.0;0.0;0.0;-0.48897600173950195;-2.19599986076355;1.7958400249481201;0.0;0.0;0.0
747;0.0;0.0;0.0;-0.5123999714851379;-2.281888008117676;1.7880319356918335;0.0;0.0;0.0
749;0.0;0.0;0.0;-0.5202080011367798;-2.293599843978882;1.7519199848175049;0.0;0.0;0.0
751;-0.6285439729690552;-2.105475902557373;1.6235759258270264;-0.5045920014381409;-2.3716800212860107;1.718735933303833;-80.19812774658203;-33.08812713623047;63.901248931884766
753;0.0;0.0;0.0;-0.5006880164146423;-2.3638720512390137;1.6543200016021729;0.0;0.0;0.0
755;0.0;0.0;0.0;-0.44993600249290466;-2.395103931427002;1.572335958480835;0.0;0.0;0.0
758;0.0;0.0;0.0;-0.4421280026435852;-2.4692800045013428;1.5567200183868408;0.0;0.0;0.0
760;-0.59170001745224;-2.2716400623321533;1.4688799381256104;-0.3718560039997101;-2.504415988922119;1.499135971069336;-79.49812316894531;-70.74812316894531;39.75124740600586
762;0.0;0.0;0.0;-0.3142719864845276;-2.496608018875122;1.4386240243911743;0.0;0.0;0.0
764;0.0;0.0;0.0;-0.3025600016117096;-2.496608018875122;1.4064159393310547;0.0;0.0;0.0
766;0.0;0.0;0.0;-0.27132800221443176;-2.47708797454834;1.3254079818725586;0.0;0.0;0.0
768;-0.4323679804801941;-2.345815896987915;1.2473279237747192;-0.23228800296783447;-2.4497599601745605;1.2444000244140625;-70.11812591552734;-107.35812377929688;11.051250457763672
770;0.0;0.0;0.0;-0.1815359890460968;-2.4302399158477783;1.158511996269226;0.0;0.0;0.0
772;0.0;0.0;0.0;-0.09662400186061859;-2.379487991333008;1.0618879795074463;0.0;0.0;0.0
775;0.0;0.0;0.0;-0.045871999114751816;-2.3482558727264404;1.0052800178527832;0.0;0.0;0.0
777;-0.22252799570560455;-2.248703956604004;0.9423279762268066;0.08295999467372894;-2.3443520069122314;0.8988959789276123;-61.228126525878906;-136.54812622070312;-20.658750534057617
779;0.0;0.0;0.0;0.1483519971370697;-2.3043360710144043;0.7934879660606384;0.0;0.0;0.0
781;0.0;0.0;0.0;0.22643199563026428;-2.2613918781280518;0.7163839936256409;0.0;0.0;0.0
783;0.0;0.0;0.0;0.3240320086479187;-2.18721604347229;0.6197599768638611;0.0;0.0;0.0
785;0.10809199512004852;-2.102059841156006;0.5960919857025146;0.3630719780921936;-2.1364638805389404;0.5670560002326965;-46.80812454223633;-145.43812561035156;-49.218753814697266
787;0.0;0.0;0.0;0.44017598032951355;-2.0427680015563965;0.4811680018901825;0.0;0.0;0.0
789;0.0;0.0;0.0;0.5065439939498901;-1.9412639141082764;0.4411519765853882;0.0;0.0;0.0
792;0.0;0.0;0.0;0.5924319624900818;-1.8748959302902222;0.36795198917388916;0.0;0.0;0.0
794;0.3940599858760834;-1.8151159286499023;0.3111000061035156;0.6500160098075867;-1.761680006980896;0.30743998289108276;-26.018123626708984;-136.828125;-68.60874938964844
796;0.0;0.0;0.0;0.6773439645767212;-1.7119039297103882;0.27035200595855713;0.0;0.0;0.0
798;0.0;0.0;0.0;0.7241919636726379;-1.645535945892334;0.21374399960041046;0.0;0.0;0.0
800;0.0;0.0;0.0;0.8178879618644714;-1.5323200225830078;0.2176479995250702;0.0;0.0;0.0
802;0.6287879943847656;-1.4952319860458374;0.12175599485635757;0.8647359609603882;-1.50108802318573;0.18934398889541626;-6.068124771118164;-105.04812622070312;-80.01875305175781
804;0.0;0.0;0.0;0.8764479756355286;-1.4034879207611084;0.1727519929409027;0.0;0.0;0.0
806;0.0;0.0;0.0;0.8998720049858093;-1.3722559213638306;0.19324800372123718;0.0;0.0;0.0
809;0.0;0.0;0.0;0.9223200082778931;-1.2863680124282837;0.20983999967575073;0.0;0.0;0.0
811;0.7695760130882263;-1.2158520221710205;0.07539600133895874;0.888159990310669;-1.2121919393539429;0.22643199563026428;9.26187515258789;-49.888126373291016;-85.12875366210938
813;0.0;0.0;0.0;0.8569279909133911;-1.1458239555358887;0.23814399540424347;0.0;0.0;0.0
815;0.0;0.0;0.0;0.8256959915161133;-1.0677440166473389;0.2791360020637512;0.0;0.0;0.0
817;0.0;0.0;0.0;0.7905600070953369;-1.0287039279937744;0.33183997869491577;0.0;0.0;0.0
819;0.7002800107002258;-0.9362279772758484;0.1768999993801117;0.7124800086021423;-0.9311040043830872;0.3835679888725281;17.521875381469727;21.72187614440918;-86.87875366210938
822;0.0;0.0;0.0;0.6509919762611389;-0.8920639753341675;0.44896000623703003;0.0;0.0;0.0
823;0.0;0.0;0.0;0.6041439771652222;-0.8764479756355286;0.5299679636955261;0.0;0.0;0.0
826;0.0;0.0;0.0;0.5533919930458069;-0.8374080061912537;0.6031680107116699;0.0;0.0;0.0
828;0.4823879897594452;-0.7337079644203186;0.407723993062973;0.447983980178833;-0.8452159762382507;0.6968640089035034;22.49187660217285;86.05187225341797;-85.54875183105469
830;0.0;0.0;0.0;0.3903999924659729;-0.8217920064926147;0.7778719663619995;0.0;0.0;0.0
832;0.0;0.0;0.0;0.33183997869491577;-0.8295999765396118;0.8871839642524719;0.0;0.0;0.0
834;0.0;0.0;0.0;0.20691199600696564;-0.7788479924201965;0.9642879962921143;0.0;0.0;0.0
836;0.17714399099349976;-0.6583119630813599;0.7388319969177246;0.1327359974384308;-0.7515199780464172;1.0335839986801147;25.2918758392334;123.85187530517578;-83.4487533569336
838;0.0;0.0;0.0;0.028303999453783035;-0.7046719789505005;1.126304030418396;0.0;0.0;0.0
841;0.0;0.0;0.0;-0.014639999717473984;-0.685151994228363;1.2160959243774414;0.0;0.0;0.0
843;0.0;0.0;0.0;-0.10052800178527832;-0.6695359945297241;1.272704005241394;0.0;0.0;0.0
845;-0.15615999698638916;-0.5609560012817383;1.0648159980773926;-0.1698240041732788;-0.6226879954338074;1.3293119668960571;19.76187515258789;135.12188720703125;-85.96875
847;0.0;0.0;0.0;-0.21276798844337463;-0.5953599810600281;1.3615199327468872;0.0;0.0;0.0
849;0.0;0.0;0.0;-0.2518079876899719;-0.610975980758667;1.4025119543075562;0.0;0.0;0.0
851;0.0;0.0;0.0;-0.3025600016117096;-0.6148799657821655;1.4464319944381714;0.0;0.0;0.0
853;-0.38649600744247437;-0.47384798526763916;1.2746559381484985;-0.3640480041503906;-0.6070719957351685;1.4952319860458374;11.221875190734863;121.54187774658203;-88.76875305175781
856;0.0;0.0;0.0;-0.4108960032463074;-0.6031680107116699;1.547935962677002;0.0;0.0;0.0
858;0.0;0.0;0.0;-0.48507198691368103;-0.6422079801559448;1.588927984237671;0.0;0.0;0.0
860;0.0;0.0;0.0;-0.5514400005340576;-0.6773439645767212;1.6094239950180054;0.0;0.0;0.0
862;-0.6051200032234192;-0.5150839686393738;1.4459439516067505;-0.6168320178985596;-0.7046719789505005;1.6504160165786743;6.741875171661377;90.81187438964844;-92.96875
864;0.0;0.0;0.0;-0.659775972366333;-0.7241919636726379;1.6709120273590088;0.0;0.0;0.0
866;0.0;0.0;0.0;-0.6519680023193359;-0.700767993927002;1.686527967453003;0.0;0.0;0.0
868;0.0;0.0;0.0;-0.6910079717636108;-0.7046719789505005;1.6904319524765015;0.0;0.0;0.0
870;-0.7881199717521667;-0.5633959770202637;1.527683973312378;-0.7144320011138916;-0.6695359945297241;1.6465119123458862;-0.8181250095367432;45.521873474121094;-103.95875549316406
873;0.0;0.0;0.0;-0.7612800002098083;-0.6812480092048645;1.6416319608688354;0.0;0.0;0.0
875;0.0;0.0;0.0;-0.7222399711608887;-0.6656320095062256;1.6299200057983398;0.0;0.0;0.0
877;0.0;0.0;0.0;-0.7456640005111694;-0.6734399795532227;1.5850239992141724;0.0;0.0;0.0
879;-0.8496080040931702;-0.52947998046875;1.4859600067138672;-0.7378559708595276;-0.610975980758667;1.5440319776535034;-11.66812515258789;0.16187499463558197;-123.3487548828125
881;0.0;0.0;0.0;-0.659775972366333;-0.6539199948310852;1.5118240118026733;0.0;0.0;0.0
883;0.0;0.0;0.0;-0.6324479579925537;-0.5641279816627502;1.4786399602890015;0.0;0.0;0.0
885;0.0;0.0;0.0;-0.5592479705810547;-0.5446079969406128;1.3986079692840576;0.0;0.0;0.0
887;-0.737123966217041;-0.44773998856544495;1.3351680040359497;-0.5045920014381409;-0.5446079969406128;1.3898239135742188;-20.2081241607666;-37.42812728881836;-144.7687530517578
890;0.0;0.0;0.0;-0.4147999882698059;-0.4274879992008209;1.3371199369430542;0.0;0.0;0.0
892;0.0;0.0;0.0;-0.35233598947525024;-0.3962559998035431;1.272704005241394;0.0;0.0;0.0
894;0.0;0.0;0.0;-0.3484320044517517;-0.31036800146102905;1.1916959285736084;0.0;0.0;0.0
896;-0.5080080032348633;-0.24887999892234802;1.1370400190353394;-0.3142719864845276;-0.236191987991333;1.1106879711151123;-23.98812484741211;-69.83812713623047;-161.07875061035156
898;0.0;0.0;0.0;-0.2205759882926941;-0.16591998934745789;1.0579839944839478;0.0;0.0;0.0
900;0.0;0.0;0.0;-0.17372798919677734;-0.0878399983048439;0.9847840070724487;0.0;0.0;0.0
902;0.0;0.0;0.0;-0.06539200246334076;-0.040991999208927155;0.9232959747314453;0.0;0.0;0.0
904;-0.26791200041770935;0.020983999595046043;0.8732759952545166;0.0009759999811649323;-0.02147199958562851;0.8871839642524719;-22.448123931884766;-87.19812774658203;-169.05874633789062
907;0.0;0.0;0.0;0.07905599474906921;0.04879999905824661;0.8305760025978088;0.0;0.0;0.0
909;0.0;0.0;0.0;0.12883199751377106;0.11907199770212173;0.7895839810371399;0.0;0.0;0.0
911;0.0;0.0;0.0;0.16396799683570862;0.22838398814201355;0.749567985534668;0.0;0.0;0.0
913;-0.01439599972218275;0.26669198274612427;0.6622160077095032;0.2030079960823059;0.2518079876899719;0.7212640047073364;-12.088125228881836;-78.3081283569336;-167.5887451171875
915;0.0;0.0;0.0;0.2693759799003601;0.32598400115966797;0.6929599642753601;0.0;0.0;0.0
917;0.0;0.0;0.0;0.30451199412345886;0.3806400001049042;0.6519680023193359;0.0;0.0;0.0
919;0.0;0.0;0.0;0.35526400804519653;0.41577598452568054;0.6275680065155029;0.0;0.0;0.0
921;0.18422000110149384;0.5001999735832214;0.5360679626464844;0.3669759929180145;0.45481598377227783;0.6148799657821655;3.801874876022339;-57.93812561035156;-154.56875610351562
923;0.0;0.0;0.0;0.3786879777908325;0.5172799825668335;0.6070719957351685;0.0;0.0;0.0
926;0.0;0.0;0.0;0.32793599367141724;0.5797439813613892;0.6353759765625;0.0;0.0;0.0
928;0.0;0.0;0.0;0.30451199412345886;0.6383039951324463;0.659775972366333;0.0;0.0;0.0
930;0.21325600147247314;0.7173599600791931;0.5172799825668335;0.2537599802017212;0.6734399795532227;0.684175968170166;21.931875228881836;-22.86812400817871;-134.8987579345703
932;0.0;0.0;0.0;0.2576639950275421;0.7319999933242798;0.700767993927002;0.0;0.0;0.0
934;0.0;0.0;0.0;0.24595199525356293;0.7554239630699158;0.749567985534668;0.0;0.0;0.0
936;0.0;0.0;0.0;0.22643199563026428;0.7788479924201965;0.7651839852333069;0.0;0.0;0.0
938;0.1134599968791008;0.8759599924087524;0.6175639629364014;0.2030079960823059;0.798367977142334;0.8344799876213074;32.50187301635742;12.691875457763672;-117.60874938964844
941;0.0;0.0;0.0;0.14444799721240997;0.8452159762382507;0.8383839726448059;0.0;0.0;0.0
943;0.0;0.0;0.0;0.0936959981918335;0.8530240058898926;0.9076799750328064;0.0;0.0;0.0
945;0.0;0.0;0.0;0.03611199930310249;0.9076799750328064;0.9154880046844482;0.0;0.0;0.0
947;-0.03367199748754501;1.0021079778671265;0.765671968460083;-0.006831999868154526;1.0208959579467773;0.9847840070724487;33.83187484741211;39.64187240600586;-107.52875518798828
949;0.0;0.0;0.0;-0.057583998888731;0.9232959747314453;0.9476959705352783;0.0;0.0;0.0
951;0.0;0.0;0.0;0.00878399983048439;0.8413119912147522;0.9154880046844482;0.0;0.0;0.0
953;0.0;0.0;0.0;-0.02635199949145317;1.083359956741333;1.0940959453582764;0.0;0.0;0.0
955;-0.1332239955663681;1.1184959411621094;0.8696159720420837;0.01659199967980385;1.1145919561386108;1.0823839902877808;33.34187316894531;52.73187255859375;-100.3187484741211
958;0.0;0.0;0.0;-0.09662400186061859;1.134112000465393;1.0823839902877808;0.0;0.0;0.0
960;0.0;0.0;0.0;-0.13176000118255615;1.126304030418396;1.0413919687271118;0.0;0.0;0.0
962;0.0;0.0;0.0;-0.1512800008058548;1.2278079986572266;1.097999930381775;0.0;0.0;0.0
964;-0.23838800191879272;1.3017399311065674;0.9506239891052246;-0.11614400148391724;1.2824640274047852;1.1106879711151123;35.58187484741211;51.33187484741211;-89.39875030517578
966;0.0;0.0;0.0;-0.13859200477600098;1.2863680124282837;1.1350879669189453;0.0;0.0;0.0
968;0.0;0.0;0.0;-0.12785600125789642;1.3254079818725586;1.1428959369659424;0.0;0.0;0.0
970;0.0;0.0;0.0;-0.1815359890460968;1.360543966293335;1.1672959327697754;0.0;0.0;0.0
972;-0.2827959954738617;1.4569239616394043;1.0106480121612549;-0.24399998784065247;1.3956799507141113;1.1546080112457275;39.22187423706055;42.16187286376953;-77.98875427246094
975;0.0;0.0;0.0;-0.26742398738861084;1.4464319944381714;1.146799921989441;0.0;0.0;0.0
977;0.0;0.0;0.0;-0.2869440019130707;1.4698560237884521;1.207311987876892;0.0;0.0;0.0
979;0.0;0.0;0.0;-0.30646398663520813;1.5127999782562256;1.1877919435501099;0.0;0.0;0.0
981;-0.3972319960594177;1.6118639707565308;1.0540800094604492;-0.2869440019130707;1.5791679620742798;1.2121919393539429;39.99187469482422;36.21187210083008;-66.01875305175781
983;0.0;0.0;0.0;-0.3142719864845276;1.5674560070037842;1.223904013633728;0.0;0.0;0.0
985;0.0;0.0;0.0;-0.35233598947525024;1.6338239908218384;1.248304009437561;0.0;0.0;0.0
987;0.0;0.0;0.0;-0.3484320044517517;1.6728639602661133;1.231711983680725;0.0;0.0;0.0
989;-0.44944798946380615;1.7570439577102661;1.104099988937378;-0.3445279896259308;1.7236160039901733;1.256111979484558;37.19187545776367;28.441875457763672;-54.118751525878906
992;0.0;0.0;0.0;-0.39528000354766846;1.743135929107666;1.2522079944610596;0.0;0.0;0.0
994;0.0;0.0;0.0;-0.36795198917388916;1.7470399141311646;1.2688000202178955;0.0;0.0;0.0
996;0.0;0.0;0.0;-0.3211039900779724;1.793887972831726;1.2688000202178955;0.0;0.0;0.0
998;-0.47921597957611084;1.8848999738693237;1.1189839839935303;-0.3484320044517517;1.8016959428787231;1.2356159687042236;31.031875610351562;16.191875457763672;-40.74875259399414
1000;0.0;0.0;0.0;-0.35233598947525024;1.8368319272994995;1.2444000244140625;0.0;0.0;0.0
1002;0.0;0.0;0.0;-0.3328160047531128;1.8641599416732788;1.1956000328063965;0.0;0.0;0.0
1004;0.0;0.0;0.0;-0.3142719864845276;1.8368319272994995;1.175104022026062;0.0;0.0;0.0
1006;-0.4345639944076538;1.9629799127578735;1.0721359252929688;-0.2479040026664734;1.8446400165557861;1.1389919519424438;22.911876678466797;-2.078125;-25.068750381469727
1009;0.0;0.0;0.0;-0.18934398889541626;1.8524479866027832;1.126304030418396;0.0;0.0;0.0
1011;0.0;0.0;0.0;-0.17372798919677734;1.8524479866027832;1.0814080238342285;0.0;0.0;0.0
1013;0.0;0.0;0.0;-0.11614400148391724;1.8992959260940552;1.0657919645309448;0.0;0.0;0.0
1015;-0.29401999711990356;1.9954320192337036;0.9464759826660156;-0.07710400223731995;1.8641599416732788;1.0247999429702759;17.801876068115234;-18.52812385559082;-6.378749847412109
1017;0.0;0.0;0.0;-0.08100800216197968;1.8797760009765625;0.9642879962921143;0.0;0.0;0.0
1019;0.0;0.0;0.0;-0.0849120020866394;1.8953919410705566;0.9398880004882812;0.0;0.0;0.0
1021;0.0;0.0;0.0;-0.010735999792814255;1.8641599416732788;0.9398880004882812;0.0;0.0;0.0
1023;-0.1664080023765564;2.0139758586883545;0.8210600018501282;0.07124799489974976;1.8953919410705566;0.9193919897079468;17.31187629699707;-23.00812530517578;16.091249465942383
1026;0.0;0.0;0.0;0.10247999429702759;1.883679986000061;0.9154880046844482;0.0;0.0;0.0
1028;0.0;0.0;0.0;0.12883199751377106;1.875872015953064;0.9154880046844482;0.0;0.0;0.0
1030;0.0;0.0;0.0;0.15225599706172943;1.8368319272994995;0.8910880088806152;0.0;0.0;0.0
1032;-0.0017079999670386314;1.9925040006637573;0.7842159867286682;0.13663999736309052;1.832927942276001;0.9037759900093079;14.651874542236328;-16.638124465942383;41.151248931884766
1034;0.0;0.0;0.0;0.13663999736309052;1.8016959428787231;0.8705919981002808;0.0;0.0;0.0
1036;0.0;0.0;0.0;0.15225599706172943;1.7704639434814453;0.8744959831237793;0.0;0.0;0.0
1038;0.0;0.0;0.0;0.1210239976644516;1.7509440183639526;0.8949919939041138;0.0;0.0;0.0
1040;0.015615999698638916;1.8973439931869507;0.7534719705581665;0.0936959981918335;1.7040959596633911;0.9076799750328064;6.4618754386901855;-0.2581250071525574;65.72124481201172
1043;0.0;0.0;0.0;0.09759999811649323;1.6650559902191162;0.9115839600563049;0.0;0.0;0.0
1045;0.0;0.0;0.0;0.08295999467372894;1.606495976448059;0.9115839600563049;0.0;0.0;0.0
1047;0.0;0.0;0.0;0.04391999915242195;1.6025919914245605;0.9681919813156128;0.0;0.0;0.0
1049;-0.04806799814105034;1.7563120126724243;0.8069080114364624;0.00878399983048439;1.5440319776535034;0.9847840070724487;-5.29812479019165;25.151874542236328;84.9012451171875
1051;0.0;0.0;0.0;-0.0302559994161129;1.4776639938354492;1.0413919687271118;0.0;0.0;0.0
1053;0.0;0.0;0.0;-0.0849120020866394;1.3956799507141113;1.0814080238342285;0.0;0.0;0.0
1055;0.0;0.0;0.0;-0.1512800008058548;1.313696026802063;1.122399926185608;0.0;0.0;0.0
1057;-0.20203199982643127;1.53329598903656;0.95306396484375;-0.16591998934745789;1.2746559381484985;1.175104022026062;-23.00812530517578;50.421875;96.52124786376953
1060;0.0;0.0;0.0;-0.236191987991333;1.2200000286102295;1.2034080028533936;0.0;0.0;0.0
1062;0.0;0.0;0.0;-0.28303998708724976;1.1302080154418945;1.2404959201812744;0.0;0.0;0.0
1064;0.0;0.0;0.0;-0.3757599890232086;1.075551986694336;1.2844159603118896;0.0;0.0;0.0
1066;-0.4240719974040985;1.266603946685791;1.1162999868392944;-0.43432000279426575;0.9935680031776428;1.3088159561157227;-45.478126525878906;65.40187072753906;99.95124816894531
1068;0.0;0.0;0.0;-0.4577440023422241;0.8920639753341675;1.3293119668960571;0.0;0.0;0.0
1070;0.0;0.0;0.0;-0.47336000204086304;0.8061760067939758;1.3654239177703857;0.0;0.0;0.0
1072;0.0;0.0;0.0;-0.4928799867630005;0.7319999933242798;1.3537119626998901;0.0;0.0;0.0
1074;-0.5821840167045593;0.9630680084228516;1.2129240036010742;-0.4577440023422241;0.6812480092048645;1.3576159477233887;-62.69812774658203;58.33187484741211;100.02124786376953
1077;0.0;0.0;0.0;-0.4655520021915436;0.6031680107116699;1.370303988456726;0.0;0.0;0.0
1079;0.0;0.0;0.0;-0.46164798736572266;0.5328959822654724;1.4064159393310547;0.0;0.0;0.0
1081;0.0;0.0;0.0;-0.43432000279426575;0.48214399814605713;1.3937280178070068;0.0;0.0;0.0
1083;-0.5731559991836548;0.6861279606819153;1.2436679601669312;-0.44603198766708374;0.4274879992008209;1.3498079776763916;-66.68812561035156;29.56187629699707;104.29125213623047
1085;0.0;0.0;0.0;-0.4030880033969879;0.4079679846763611;1.3537119626998901;0.0;0.0;0.0
1087;0.0;0.0;0.0;-0.399183988571167;0.3337920010089874;1.3293119668960571;0.0;0.0;0.0
1089;0.0;0.0;0.0;-0.399183988571167;0.15811198949813843;1.2688000202178955;0.0;0.0;0.0
1091;-0.5045920014381409;0.42089998722076416;1.1702239513397217;-0.24009600281715393;0.08003199845552444;1.231711983680725;-60.17812728881836;-9.148124694824219;111.64125061035156
1094;0.0;0.0;0.0;-0.2791360020637512;0.38844799995422363;1.3254079818725586;0.0;0.0;0.0
1096;0.0;0.0;0.0;-0.2635200023651123;0.0058559998869895935;1.1058080196380615;0.0;0.0;0.0
1098;0.0;0.0;0.0;-0.17763200402259827;0.05660799890756607;1.146799921989441;0.0;0.0;0.0
1100;-0.3311080038547516;0.2518079876899719;1.0662800073623657;-0.045871999114751816;0.009759999811649323;1.1145919561386108;-48.90812683105469;-43.23812484741211;117.24124908447266
1102;0.0;0.0;0.0;-0.09272000193595886;-0.07222399860620499;0.9886879920959473;0.0;0.0;0.0
1104;0.0;0.0;0.0;-0.0849120020866394;-0.1424959897994995;0.9320799708366394;0.0;0.0;0.0
1106;0.0;0.0;0.0;0.01268799975514412;-0.2205759882926941;0.8666880130767822;0.0;0.0;0.0
1108;-0.16909199953079224;-0.005123999901115894;0.8115440011024475;0.07515199482440948;-0.24399998784065247;0.8461920022964478;-41.55812454223633;-53.66812515258789;123.19124603271484
1111;0.0;0.0;0.0;0.14444799721240997;-0.3689279854297638;0.822767972946167;0.0;0.0;0.0
1113;0.0;0.0;0.0;0.1210239976644516;-0.4001599848270416;0.7612800002098083;0.0;0.0;0.0
1115;0.0;0.0;0.0;0.10247999429702759;-0.44310399889945984;0.773967981338501;0.0;0.0;0.0
1117;-0.0056119998916983604;-0.27254799008369446;0.6700239777565002;0.07905599474906921;-0.5289919972419739;0.7934879660606384;-26.228124618530273;-26.36812400817871;125.57125091552734
1119;0.0;0.0;0.0;0.03611199930310249;-0.587552011013031;0.8139839768409729;0.0;0.0;0.0
1121;0.0;0.0;0.0;-0.006831999868154526;-0.5836479663848877;0.8793759942054749;0.0;0.0;0.0
1123;0.0;0.0;0.0;-0.06539200246334076;-0.6422079801559448;0.9037759900093079;0.0;0.0;0.0
1125;-0.13859200477600098;-0.4567679762840271;0.7468839883804321;-0.12785600125789642;-0.6929599642753601;0.9681919813156128;-6.978124618530273;17.38187599182129;127.32125091552734
1128;0.0;0.0;0.0;-0.16201600432395935;-0.7554239630699158;1.0130879878997803;0.0;0.0;0.0
1130;0.0;0.0;0.0;-0.1815359890460968;-0.7944639921188354;1.0491999387741089;0.0;0.0;0.0
1132;0.0;0.0;0.0;-0.2205759882926941;-0.9037759900093079;1.0862879753112793;0.0;0.0;0.0
1134;-0.3230559825897217;-0.6773439645767212;0.9157319664955139;-0.2908479869365692;-0.9428159594535828;1.1546080112457275;7.441875457763672;42.09187316894531;128.37124633789062
1136;0.0;0.0;0.0;-0.29475200176239014;-1.0130879878997803;1.1877919435501099;0.0;0.0;0.0
1138;0.0;0.0;0.0;-0.3142719864845276;-1.044319987297058;1.248304009437561;0.0;0.0;0.0
1140;0.0;0.0;0.0;-0.39528000354766846;-1.0482239723205566;1.2805119752883911;0.0;0.0;0.0
1142;-0.46701598167419434;-0.8913319706916809;1.10971200466156;-0.4030880033969879;-1.0950720310211182;1.345903992652893;22.771875381469727;49.44187545776367;125.78125
1145;0.0;0.0;0.0;-0.48507198691368103;-1.0872639417648315;1.4064159393310547;0.0;0.0;0.0
1147;0.0;0.0;0.0;-0.47336000204086304;-1.0794559717178345;1.4220319986343384;0.0;0.0;0.0
1149;0.0;0.0;0.0;-0.5241119861602783;-1.0872639417648315;1.4835200309753418;0.0;0.0;0.0
1151;-0.6095119714736938;-0.9459879994392395;1.28929603099823;-0.48507198691368103;-1.1067839860916138;1.4464319944381714;35.9318733215332;31.24187469482422;121.23124694824219
1153;0.0;0.0;0.0;-0.48507198691368103;-1.1458239555358887;1.5030399560928345;0.0;0.0;0.0
1155;0.0;0.0;0.0;-0.47336000204086304;-1.1692479848861694;1.5118240118026733;0.0;0.0;0.0
1157;0.0;0.0;0.0;-0.4108960032463074;-1.1536319255828857;1.5118240118026733;0.0;0.0;0.0
1159;-0.5777919888496399;-1.00381600856781;1.3727439641952515;-0.44993600249290466;-1.0872639417648315;1.5274399518966675;43.28187561035156;-4.808125019073486;114.02124786376953
1162;0.0;0.0;0.0;-0.3601439893245697;-1.270751953125;1.4181280136108398;0.0;0.0;0.0
1164;0.0;0.0;0.0;-0.35233598947525024;-1.173151969909668;1.4591199159622192;0.0;0.0;0.0
1166;0.0;0.0;0.0;-0.3025600016117096;-1.165343999862671;1.4786399602890015;0.0;0.0;0.0
1168;-0.4631119966506958;-1.0706720352172852;1.3234559297561646;-0.25571200251579285;-1.2746559381484985;1.3820159435272217;42.021873474121094;-40.228126525878906;105.69124603271484
1170;0.0;0.0;0.0;-0.2205759882926941;-1.2980799674987793;1.3088159561157227;0.0;0.0;0.0
1172;0.0;0.0;0.0;-0.1698240041732788;-1.3254079818725586;1.2639199495315552;0.0;0.0;0.0
1174;0.0;0.0;0.0;-0.12785600125789642;-1.352735996246338;1.231711983680725;0.0;0.0;0.0
1176;-0.27669599652290344;-1.1729079484939575;1.166808009147644;0.0009759999811649323;-1.3019839525222778;1.2688000202178955;34.60187530517578;-57.238128662109375;99.60124969482422
1179;0.0;0.0;0.0;0.04391999915242195;-1.3371199369430542;1.231711983680725;0.0;0.0;0.0
1181;0.0;0.0;0.0;0.028303999453783035;-1.3488320112228394;1.2639199495315552;0.0;0.0;0.0
1183;0.0;0.0;0.0;0.05953599885106087;-1.3878719806671143;1.272704005241394;0.0;0.0;0.0
1185;-0.07954400032758713;-1.2168279886245728;1.1319159269332886;0.06734399497509003;-1.4151999950408936;1.32150399684906;26.76187515258789;-39.808128356933594;88.89125061035156
1187;0.0;0.0;0.0;0.05172799900174141;-1.4347199201583862;1.3371199369430542;0.0;0.0;0.0
1189;0.0;0.0;0.0;-0.0029279999434947968;-1.4893759489059448;1.3576159477233887;0.0;0.0;0.0
1191;0.0;0.0;0.0;-0.006831999868154526;-1.5791679620742798;1.3127199411392212;0.0;0.0;0.0
1193;-0.10369999706745148;-1.3781119585037231;1.1992599964141846;-0.06148799881339073;-1.653343915939331;1.3049119710922241;6.95187520980835;-20.768125534057617;76.22124481201172
1196;0.0;0.0;0.0;-0.057583998888731;-1.6923840045928955;1.3254079818725586;0.0;0.0;0.0
1198;0.0;0.0;0.0;-0.06929600238800049;-1.7470399141311646;1.3742079734802246;0.0;0.0;0.0
1200;0.0;0.0;0.0;-0.07710400223731995;-1.825119972229004;1.345903992652893;0.0;0.0;0.0
1202;-0.1861719936132431;-1.616987943649292;1.2117040157318115;-0.13176000118255615;-1.8368319272994995;1.3449280261993408;-13.208125114440918;-6.69812536239624;61.66124725341797
1204;0.0;0.0;0.0;-0.18934398889541626;-1.8797760009765625;1.4181280136108398;0.0;0.0;0.0
1206;0.0;0.0;0.0;-0.14737600088119507;-1.9031999111175537;1.5157279968261719;0.0;0.0;0.0
1208;0.0;0.0;0.0;-0.15908800065517426;-1.9344319105148315;1.5274399518966675;0.0;0.0;0.0
1210;-0.28767600655555725;-1.7655839920043945;1.3505399227142334;-0.17763200402259827;-1.9500479698181152;1.5606240034103394;-30.078125;0.9318750500679016;35.901248931884766
1213;0.0;0.0;0.0;-0.21276798844337463;-1.9968959093093872;1.5196319818496704;0.0;0.0;0.0
1215;0.0;0.0;0.0;-0.22448000311851501;-1.9773759841918945;1.5118240118026733;0.0;0.0;0.0
1217;0.0;0.0;0.0;-0.236191987991333;-1.9890879392623901;1.4913280010223389;0.0;0.0;0.0
1219;-0.3408679962158203;-1.8485440015792847;1.3700599670410156;-0.17763200402259827;-1.9968959093093872;1.4913280010223389;-49.60812759399414;-12.92812442779541;11.68125057220459
1221;0.0;0.0;0.0;-0.17763200402259827;-1.9842079877853394;1.4425280094146729;0.0;0.0;0.0
1223;0.0;0.0;0.0;-0.1698240041732788;-2.003727912902832;1.4142240285873413;0.0;0.0;0.0
1225;0.0;0.0;0.0;-0.17763200402259827;-1.9998239278793335;1.4025119543075562;0.0;0.0;0.0
1227;-0.3050000071525574;-1.8626959323883057;1.2788039445877075;-0.16201600432395935;-2.0271520614624023;1.3010079860687256;-55.558128356933594;-44.2181282043457;-8.4087495803833
1230;0.0;0.0;0.0;-0.14737600088119507;-2.003727912902832;1.2600159645080566;0.0;0.0;0.0
1232;0.0;0.0;0.0;-0.12785600125789642;-1.995919942855835;1.2200000286102295;0.0;0.0;0.0
1234;0.0;0.0;0.0;-0.10443200170993805;-2.015439987182617;1.1672959327697754;0.0;0.0;0.0
1236;-0.24643999338150024;-1.8646479845046997;1.0892159938812256;-0.045871999114751816;-1.9764000177383423;1.0862879753112793;-54.78812789916992;-75.43812561035156;-28.708749771118164
1238;0.0;0.0;0.0;-0.022447999566793442;-1.9461439847946167;1.0052800178527832;0.0;0.0;0.0
1240;0.0;0.0;0.0;0.03611199930310249;-1.8992959260940552;0.9154880046844482;0.0;0.0;0.0
1242;0.0;0.0;0.0;0.14444799721240997;-1.8680639266967773;0.8549759984016418;0.0;0.0;0.0
1245;-0.07344400137662888;-1.776319980621338;0.8076399564743042;0.187391996383667;-1.8446400165557861;0.757375955581665;-52.75812530517578;-100.63813018798828;-50.758750915527344
1247;0.0;0.0;0.0;0.2576639950275421;-1.7782719135284424;0.676367998123169;0.0;0.0;0.0
1249;0.0;0.0;0.0;0.3201279938220978;-1.7509440183639526;0.6031680107116699;0.0;0.0;0.0
1251;0.0;0.0;0.0;0.374783992767334;-1.7001919746398926;0.562175989151001;0.0;0.0;0.0
1253;0.18836799263954163;-1.6016160249710083;0.4987359941005707;0.447983980178833;-1.653343915939331;0.4655520021915436;-45.12812805175781;-109.59812927246094;-68.74874877929688
1255;0.0;0.0;0.0;0.49483197927474976;-1.637727975845337;0.39235198497772217;0.0;0.0;0.0
1257;0.0;0.0;0.0;0.545583963394165;-1.5869759321212769;0.3230559825897217;0.0;0.0;0.0
1259;0.0;0.0;0.0;0.5924319624900818;-1.555743932723999;0.26254400610923767;0.0;0.0;0.0
1262;0.42919600009918213;-1.4466760158538818;0.2176479995250702;0.6509919762611389;-1.5127999782562256;0.23814399540424347;-31.338125228881836;-100.77812957763672;-78.75875091552734
1264;0.0;0.0;0.0;0.6968640089035034;-1.4854719638824463;0.20203199982643127;0.0;0.0;0.0
1266;0.0;0.0;0.0;0.700767993927002;-1.4698560237884521;0.14054399728775024;0.0;0.0;0.0
1268;0.0;0.0;0.0;0.774944007396698;-1.3839679956436157;0.14444799721240997;0.0;0.0;0.0
1270;0.602679967880249;-1.2995439767837524;0.049775999039411545;0.8022719621658325;-1.3332159519195557;0.12004800140857697;-14.118124961853027;-67.52812957763672;-84.49874877929688
1272;0.0;0.0;0.0;0.8061760067939758;-1.2551360130310059;0.12492799758911133;0.0;0.0;0.0
1274;0.0;0.0;0.0;0.8139839768409729;-1.2082879543304443;0.11224000155925751;0.0;0.0;0.0
1276;0.0;0.0;0.0;0.8295999765396118;-1.1497279405593872;0.13663999736309052;0.0;0.0;0.0
1279;0.6819800138473511;-1.0721359252929688;0.011467999778687954;0.8022719621658325;-1.0599359273910522;0.14932799339294434;1.071874976158142;-10.828125;-86.66875457763672
1281;0.0;0.0;0.0;0.7866559624671936;-1.0404160022735596;0.16103999316692352;0.0;0.0;0.0
1283;0.0;0.0;0.0;0.7359039783477783;-0.9818559885025024;0.205935999751091;0.0;0.0;0.0
1285;0.0;0.0;0.0;0.685151994228363;-0.9506239891052246;0.24985599517822266;0.0;0.0;0.0
1287;0.6046319603919983;-0.8625400066375732;0.09174399822950363;0.611952006816864;-0.9193919897079468;0.28303998708724976;13.951874732971191;54.69187545776367;-84.14875030517578
1289;0.0;0.0;0.0;0.545583963394165;-0.8842560052871704;0.3640480041503906;0.0;0.0;0.0
1291;0.0;0.0;0.0;0.4596959948539734;-0.8452159762382507;0.4450559914112091;0.0;0.0;0.0
1293;0.0;0.0;0.0;0.39430397748947144;-0.8061760067939758;0.5016639828681946;0.0;0.0;0.0
1296;0.34599199891090393;-0.7068679928779602;0.3113439977169037;0.32793599367141724;-0.7280960083007812;0.5670560002326965;23.5418758392334;111.60187530517578;-80.08875274658203
1298;0.0;0.0;0.0;0.2654719948768616;-0.6968640089035034;0.6519680023193359;0.0;0.0;0.0
1300;0.0;0.0;0.0;0.22643199563026428;-0.6890559792518616;0.7046719789505005;0.0;0.0;0.0
1302;0.0;0.0;0.0;0.17958399653434753;-0.6695359945297241;0.8100799918174744;0.0;0.0;0.0
1304;0.1000399962067604;-0.5558319687843323;0.5941399931907654;0.07807999849319458;-0.6461119651794434;0.8793759942054749;27.81187629699707;149.89187622070312;-77.35874938964844
1306;0.0;0.0;0.0;0.03611199930310249;-0.6422079801559448;0.9281759858131409;0.0;0.0;0.0
1308;0.0;0.0;0.0;-0.006831999868154526;-0.5914559960365295;0.9964959621429443;0.0;0.0;0.0
1310;0.0;0.0;0.0;-0.07710400223731995;-0.5680319666862488;1.0696959495544434;0.0;0.0;0.0
1313;-0.13834799826145172;-0.45457199215888977;0.8681519627571106;-0.11224000155925751;-0.5289919972419739;1.126304030418396;28.301876068115234;162.421875;-74.83875274658203
1315;0.0;0.0;0.0;-0.20495998859405518;-0.49775999784469604;1.182911992073059;0.0;0.0;0.0
1317;0.0;0.0;0.0;-0.24399998784065247;-0.4899519979953766;1.2200000286102295;0.0;0.0;0.0
1319;0.0;0.0;0.0;-0.29475200176239014;-0.4665279984474182;1.2688000202178955;0.0;0.0;0.0
1321;-0.370635986328125;-0.3567279875278473;1.0784800052642822;-0.3298879861831665;-0.5055679678916931;1.3254079818725586;27.111875534057617;149.89187622070312;-70.28874969482422
1323;0.0;0.0;0.0;-0.4147999882698059;-0.4782399833202362;1.3615199327468872;0.0;0.0;0.0
1325;0.0;0.0;0.0;-0.4577440023422241;-0.4938559830188751;1.425935983657837;0.0;0.0;0.0
1327;0.0;0.0;0.0;-0.5280159711837769;-0.47433599829673767;1.425935983657837;0.0;0.0;0.0
1330;-0.5802319645881653;-0.3508719801902771;1.262943983078003;-0.5738880038261414;-0.47433599829673767;1.5118240118026733;23.5418758392334;124.55187225341797;-69.93875122070312
1332;0.0;0.0;0.0;-0.6558719873428345;-0.4782399833202362;1.5440319776535034;0.0;0.0;0.0
1334;0.0;0.0;0.0;-0.6675840020179749;-0.4899519979953766;1.5928319692611694;0.0;0.0;0.0
1336;0.0;0.0;0.0;-0.7105280160903931;-0.45481598377227783;1.637727975845337;0.0;0.0;0.0
1338;-0.8017839789390564;-0.33550000190734863;1.4469199180603027;-0.7456640005111694;-0.41967999935150146;1.6670079231262207;11.501874923706055;100.12187194824219;-82.53874969482422
1340;0.0;0.0;0.0;-0.7964159846305847;-0.3806400001049042;1.7070239782333374;0.0;0.0;0.0
1342;0.0;0.0;0.0;-0.8159359693527222;-0.40406399965286255;1.6904319524765015;0.0;0.0;0.0
1344;0.0;0.0;0.0;-0.7964159846305847;-0.3533119857311249;1.7392319440841675;0.0;0.0;0.0
1347;-0.9191479682922363;-0.24277999997138977;1.5664799213409424;-0.8198399543762207;-0.32598400115966797;1.7236160039901733;-9.708125114440918;70.72187042236328;-104.79875183105469
1349;0.0;0.0;0.0;-0.8003199696540833;-0.28303998708724976;1.7275199890136719;0.0;0.0;0.0
1351;0.0;0.0;0.0;-0.7651839852333069;-0.2869440019130707;1.7197120189666748;0.0;0.0;0.0
1353;0.0;0.0;0.0;-0.6988160014152527;-0.21276798844337463;1.6992160081863403;0.0;0.0;0.0
1355;-0.8640039563179016;-0.1256600022315979;1.5611119270324707;-0.6402559876441956;-0.1698240041732788;1.6504160165786743;-29.518123626708984;25.501874923706055;-124.81875610351562
1357;0.0;0.0;0.0;-0.6441599726676941;-0.115167997777462;1.596735954284668;0.0;0.0;0.0
1359;0.0;0.0;0.0;-0.5709599852561951;-0.044895999133586884;1.547935962677002;0.0;0.0;0.0
1361;0.0;0.0;0.0;-0.5163040161132812;-0.0019519999623298645;1.4669280052185059;0.0;0.0;0.0
1364;-0.6895439624786377;0.06197600066661835;1.3961679935455322;-0.4577440023422241;0.01756799966096878;1.4220319986343384;-41.62812805175781;-28.678125381469727;-134.478759765625
1366;0.0;0.0;0.0;-0.36795198917388916;0.037087999284267426;1.3293119668960571;0.0;0.0;0.0
1368;0.0;0.0;0.0;-0.31036800146102905;0.08393599838018417;1.2600159645080566;0.0;0.0;0.0
1370;0.0;0.0;0.0;-0.2479040026664734;0.10345599800348282;1.199504017829895;0.0;0.0;0.0
1372;-0.43383198976516724;0.20569199323654175;1.1411880254745483;-0.19324800372123718;0.12297599762678146;1.1546080112457275;-45.478126525878906;-64.79812622070312;-136.99874877929688
1374;0.0;0.0;0.0;-0.11614400148391724;0.17372798919677734;1.0775039196014404;0.0;0.0;0.0
1376;0.0;0.0;0.0;-0.057583998888731;0.18544000387191772;0.9886879920959473;0.0;0.0;0.0
1378;0.0;0.0;0.0;0.024399999529123306;0.2479040026664734;0.9642879962921143;0.0;0.0;0.0
1381;-0.15371999144554138;0.33135199546813965;0.8891359567642212;0.08295999467372894;0.2752319872379303;0.8988959789276123;-41.62812805175781;-77.6781234741211;-132.02874755859375
1383;0.0;0.0;0.0;0.15615999698638916;0.30646398663520813;0.8871839642524719;0.0;0.0;0.0
1385;0.0;0.0;0.0;0.16396799683570862;0.3689279854297638;0.8422879576683044;0.0;0.0;0.0
1387;0.0;0.0;0.0;0.2576639950275421;0.3728320002555847;0.749567985534668;0.0;0.0;0.0
1389;0.06319599598646164;0.4840959906578064;0.6985719799995422;0.284991979598999;0.423583984375;0.749567985534668;-31.61812400817871;-67.38813018798828;-120.33875274658203
1391;0.0;0.0;0.0;0.31622397899627686;0.411871999502182;0.700767993927002;0.0;0.0;0.0
1393;0.0;0.0;0.0;0.3513599932193756;0.4352959990501404;0.708575963973999;0.0;0.0;0.0
1395;0.0;0.0;0.0;0.39430397748947144;0.45871999859809875;0.676367998123169;0.0;0.0;0.0
1398;0.24424399435520172;0.5692520141601562;0.5765720009803772;0.4206559956073761;0.48214399814605713;0.6724640130996704;-13.488125801086426;-38.9681282043457;-102.3487548828125
1400;0.0;0.0;0.0;0.39430397748947144;0.47433599829673767;0.6636799573898315;0.0;0.0;0.0
1402;0.0;0.0;0.0;0.4206559956073761;0.521183967590332;0.684175968170166;0.0;0.0;0.0
1404;0.0;0.0;0.0;0.4167519807815552;0.5485119819641113;0.7163839936256409;0.0;0.0;0.0
1406;0.28938400745391846;0.6444039940834045;0.5643720030784607;0.39430397748947144;0.5602239966392517;0.708575963973999;9.891874313354492;-6.278125286102295;-80.99874877929688
1408;0.0;0.0;0.0;0.35526400804519653;0.5729119777679443;0.7651839852333069;0.0;0.0;0.0
1410;0.0;0.0;0.0;0.3357439935207367;0.5768159627914429;0.7778719663619995;0.0;0.0;0.0
1412;0.0;0.0;0.0;0.29280000925064087;0.6236639618873596;0.798367977142334;0.0;0.0;0.0
1415;0.21496400237083435;0.7290719747543335;0.6551399827003479;0.2693759799003601;0.6392799615859985;0.8500959873199463;28.861875534057617;20.81187629699707;-62.16875076293945
1417;0.0;0.0;0.0;0.21862399578094482;0.6822239756584167;0.8910880088806152;0.0;0.0;0.0
1419;0.0;0.0;0.0;0.187391996383667;0.709551990032196;0.8949919939041138;0.0;0.0;0.0
1421;0.0;0.0;0.0;0.1483519971370697;0.7524960041046143;0.9759999513626099;0.0;0.0;0.0
1423;0.06880799680948257;0.8444839715957642;0.7912920117378235;0.1210239976644516;0.7837280035018921;1.0003999471664429;38.31187438964844;47.271873474121094;-51.4587516784668
1425;0.0;0.0;0.0;0.09857599437236786;0.8188639879226685;1.0052800178527832;0.0;0.0;0.0
1427;0.0;0.0;0.0;0.07905599474906921;0.8735199570655823;1.0452959537506104;0.0;0.0;0.0
1430;0.0;0.0;0.0;0.07515199482440948;0.8188639879226685;1.0003999471664429;0.0;0.0;0.0
1432;-0.029767999425530434;0.9298839569091797;0.8754720091819763;0.10150399804115295;0.7056480050086975;1.0208959579467773;42.51187515258789;60.15187454223633;-44.38875198364258
1434;0.0;0.0;0.0;0.04001599922776222;0.8461920022964478;1.1302080154418945;0.0;0.0;0.0
1436;0.0;0.0;0.0;0.032207999378442764;0.8735199570655823;1.1546080112457275;0.0;0.0;0.0
1438;0.0;0.0;0.0;-0.057583998888731;0.896943986415863;1.1956000328063965;0.0;0.0;0.0
1440;-0.12614800035953522;1.0045479536056519;1.0108920335769653;-0.1815359890460968;0.9320799708366394;1.1672959327697754;49.51187515258789;70.72187042236328;-41.51875305175781
1442;0.0;0.0;0.0;-0.2205759882926941;1.0062559843063354;1.2160959243774414;0.0;0.0;0.0
1444;0.0;0.0;0.0;-0.22448000311851501;1.0882400274276733;1.2883199453353882;0.0;0.0;0.0
1447;0.0;0.0;0.0;-0.2205759882926941;1.115567922592163;1.32150399684906;0.0;0.0;0.0
1449;-0.33135199546813965;1.1916959285736084;1.1497279405593872;-0.2518079876899719;1.1702239513397217;1.3654239177703857;48.671875;72.1918716430664;-42.778751373291016
1451;0.0;0.0;0.0;-0.2635200023651123;1.2248799800872803;1.4025119543075562;0.0;0.0;0.0
1453;0.0;0.0;0.0;-0.3025600016117096;1.2404959201812744;1.4220319986343384;0.0;0.0;0.0
1455;0.0;0.0;0.0;-0.31036800146102905;1.2834399938583374;1.4142240285873413;0.0;0.0;0.0
1457;-0.4055279791355133;1.3812839984893799;1.2680679559707642;-0.26742398738861084;1.338096022605896;1.425935983657837;39.921875;62.39187240600586;-44.31875228881836
1459;0.0;0.0;0.0;-0.2908479869365692;1.4269119501113892;1.4064159393310547;0.0;0.0;0.0
1461;0.0;0.0;0.0;-0.2869440019130707;1.465951919555664;1.3615199327468872;0.0;0.0;0.0
1464;0.0;0.0;0.0;-0.29475200176239014;1.5127999782562256;1.3654239177703857;0.0;0.0;0.0
1466;-0.3903999924659729;1.5774599313735962;1.2409839630126953;-0.2518079876899719;1.5401279926300049;1.32150399684906;30.331876754760742;39.291873931884766;-37.80875015258789
1468;0.0;0.0;0.0;-0.19324800372123718;1.5596479177474976;1.3166239261627197;0.0;0.0;0.0
1470;0.0;0.0;0.0;-0.19324800372123718;1.5791679620742798;1.272704005241394;0.0;0.0;0.0
1472;0.0;0.0;0.0;-0.21276798844337463;1.6103999614715576;1.28929603099823;0.0;0.0;0.0
1474;-0.3172000050544739;1.7094639539718628;1.1560720205307007;-0.1815359890460968;1.6182079315185547;1.2278079986572266;28.231876373291016;24.24187469482422;-22.96875
1476;0.0;0.0;0.0;-0.18934398889541626;1.645535945892334;1.2278079986572266;0.0;0.0;0.0
1478;0.0;0.0;0.0;-0.17763200402259827;1.6611520051956177;1.1956000328063965;0.0;0.0;0.0
1481;0.0;0.0;0.0;-0.17763200402259827;1.6728639602661133;1.1916959285736084;0.0;0.0;0.0
1483;-0.28840798139572144;1.7846159934997559;1.0801880359649658;-0.16591998934745789;1.6845759153366089;1.175104022026062;32.71187210083008;19.551876068115234;-0.4987499713897705
1485;0.0;0.0;0.0;-0.1395680010318756;1.7001919746398926;1.2200000286102295;0.0;0.0;0.0
1487;0.0;0.0;0.0;-0.1395680010318756;1.7040959596633911;1.2112159729003906;0.0;0.0;0.0
1489;0.0;0.0;0.0;-0.13566400110721588;1.735327959060669;1.199504017829895;0.0;0.0;0.0
1491;-0.2723039984703064;1.8475679159164429;1.0721359252929688;-0.1542080044746399;1.743135929107666;1.2112159729003906;37.40187454223633;15.07187557220459;25.12125015258789
1494;0.0;0.0;0.0;-0.14640000462532043;1.7704639434814453;1.2112159729003906;0.0;0.0;0.0
1495;0.0;0.0;0.0;-0.1815359890460968;1.7314239740371704;1.1712000370025635;0.0;0.0;0.0
1498;0.0;0.0;0.0;-0.15811198949813843;1.7040959596633911;1.199504017829895;0.0;0.0;0.0
1500;-0.28645598888397217;1.8607439994812012;1.0638400316238403;-0.19324800372123718;1.7236160039901733;1.1877919435501099;35.51187515258789;8.771875381469727;50.95124816894531
1502;0.0;0.0;0.0;-0.18934398889541626;1.7040959596633911;1.207311987876892;0.0;0.0;0.0
1504;0.0;0.0;0.0;-0.23228800296783447;1.653343915939331;1.2200000286102295;0.0;0.0;0.0
1506;0.0;0.0;0.0;-0.24009600281715393;1.6221119165420532;1.2160959243774414;0.0;0.0;0.0
1508;-0.34135597944259644;1.7824199199676514;1.0716480016708374;-0.2869440019130707;1.5752639770507812;1.2278079986572266;28.65187644958496;11.151875495910645;72.23124694824219
1510;0.0;0.0;0.0;-0.27132800221443176;1.5635520219802856;1.2356159687042236;0.0;0.0;0.0
1512;0.0;0.0;0.0;-0.3025600016117096;1.5049920082092285;1.2444000244140625;0.0;0.0;0.0
1515;0.0;0.0;0.0;-0.31036800146102905;1.4737600088119507;1.2522079944610596;0.0;0.0;0.0
1517;-0.41284799575805664;1.641875982284546;1.1092239618301392;-0.2908479869365692;1.4308159351348877;1.248304009437561;17.031875610351562;12.691875457763672;87.70124816894531
1519;0.0;0.0;0.0;-0.3142719864845276;1.411296010017395;1.2522079944610596;0.0;0.0;0.0
1521;0.0;0.0;0.0;-0.3142719864845276;1.3722559213638306;1.2444000244140625;0.0;0.0;0.0
1523;0.0;0.0;0.0;-0.30646398663520813;1.3410239219665527;1.256111979484558;0.0;0.0;0.0
1525;-0.423583984375;1.5030399560928345;1.1292319297790527;-0.30646398663520813;1.3058879375457764;1.248304009437561;3.3818750381469727;5.411874771118164;99.1812515258789
1527;0.0;0.0;0.0;-0.29865598678588867;1.270751953125;1.231711983680725;0.0;0.0;0.0
1529;0.0;0.0;0.0;-0.29865598678588867;1.2278079986572266;1.2395199537277222;0.0;0.0;0.0
1532;0.0;0.0;0.0;-0.30646398663520813;1.1965759992599487;1.2356159687042236;0.0;0.0;0.0
1534;-0.4287079870700836;1.36273992061615;1.101415991783142;-0.32207998633384705;1.165343999862671;1.2200000286102295;-10.688125610351562;-5.648125171661377;108.84124755859375
1536;0.0;0.0;0.0;-0.30646398663520813;1.122399926185608;1.223904013633728;0.0;0.0;0.0
1538;0.0;0.0;0.0;-0.33671998977661133;1.0950720310211182;1.1877919435501099;0.0;0.0;0.0
1540;0.0;0.0;0.0;-0.3298879861831665;1.0208959579467773;1.1633919477462769;0.0;0.0;0.0
1542;-0.4357839822769165;1.2102400064468384;1.0557879209518433;-0.3181760013103485;0.9662399888038635;1.150704026222229;-25.388124465942383;-13.628124237060547;116.75125122070312
1544;0.0;0.0;0.0;-0.2869440019130707;0.8998720049858093;1.1428959369659424;0.0;0.0;0.0
1546;0.0;0.0;0.0;-0.29475200176239014;0.8295999765396118;1.1184959411621094;0.0;0.0;0.0
1549;0.0;0.0;0.0;-0.27132800221443176;0.7437120079994202;1.1058080196380615;0.0;0.0;0.0
1551;-0.4199239909648895;0.9511119723320007;0.986735999584198;-0.2869440019130707;0.6031680107116699;1.0775039196014404;-37.42812728881836;-15.938124656677246;124.03125
1553;0.0;0.0;0.0;-0.26742398738861084;0.521183967590332;1.0579839944839478;0.0;0.0;0.0
1555;0.0;0.0;0.0;-0.36795198917388916;0.685151994228363;1.1712000370025635;0.0;0.0;0.0
1557;0.0;0.0;0.0;-0.37966400384902954;0.33769598603248596;1.0003999471664429;0.0;0.0;0.0
1559;-0.4531079828739166;0.6439160108566284;0.9508680105209351;-0.3445279896259308;0.423583984375;1.1350879669189453;-42.888126373291016;-15.028124809265137;131.24124145507812
1561;0.0;0.0;0.0;-0.32891198992729187;0.32207998633384705;1.1145919561386108;0.0;0.0;0.0
1563;0.0;0.0;0.0;-0.3757599890232086;0.20105600357055664;1.0452959537506104;0.0;0.0;0.0
1566;0.0;0.0;0.0;-0.41870400309562683;0.16591998934745789;1.0491999387741089;0.0;0.0;0.0
1568;-0.48848798871040344;0.35526400804519653;0.9362279772758484;-0.3718560039997101;0.04879999905824661;1.0374879837036133;-44.42812728881836;-13.41812515258789;139.0812530517578
1570;0.0;0.0;0.0;-0.39137598872184753;0.02147199958562851;1.0531039237976074;0.0;0.0;0.0
1572;0.0;0.0;0.0;-0.3757599890232086;-0.11126399785280228;1.0657919645309448;0.0;0.0;0.0
1574;0.0;0.0;0.0;-0.36795198917388916;-0.18544000387191772;1.1106879711151123;0.0;0.0;0.0
1576;-0.5023959875106812;0.028547998517751694;0.9415959715843201;-0.42260798811912537;-0.26742398738861084;1.101904034614563;-34.90812683105469;-11.808124542236328;144.05125427246094
1578;0.0;0.0;0.0;-0.4147999882698059;-0.33769598603248596;1.1184959411621094;0.0;0.0;0.0
1580;0.0;0.0;0.0;-0.4694559872150421;-0.423583984375;1.1672959327697754;0.0;0.0;0.0
1583;0.0;0.0;0.0;-0.47336000204086304;-0.48214399814605713;1.175104022026062;0.0;0.0;0.0
1585;-0.5743759870529175;-0.2735239863395691;1.0167479515075684;-0.4421280026435852;-0.5719360113143921;1.1672959327697754;-22.86812400817871;-20.628124237060547;146.78125
1587;0.0;0.0;0.0;-0.4538399875164032;-0.6500160098075867;1.182911992073059;0.0;0.0;0.0
1589;0.0;0.0;0.0;-0.41870400309562683;-0.7319999933242798;1.1916959285736084;0.0;0.0;0.0
1591;0.0;0.0;0.0;-0.4421280026435852;-0.774944007396698;1.199504017829895;0.0;0.0;0.0
1593;-0.5648599863052368;-0.5804759860038757;1.047003984451294;-0.42260798811912537;-0.87254399061203;1.175104022026062;-12.578125;-39.10812759399414;145.59124755859375
1595;0.0;0.0;0.0;-0.399183988571167;-0.9184159636497498;1.175104022026062;0.0;0.0;0.0
1598;0.0;0.0;0.0;-0.3718560039997101;-0.961359977722168;1.175104022026062;0.0;0.0;0.0
1600;0.0;0.0;0.0;-0.3640480041503906;-1.0433440208435059;1.1790080070495605;0.0;0.0;0.0
1602;-0.5033720135688782;-0.8442400097846985;1.0457839965820312;-0.3445279896259308;-1.101904034614563;1.182911992073059;-3.758125066757202;-52.19812774658203;139.1512451171875
1604;0.0;0.0;0.0;-0.36795198917388916;-1.1331360340118408;1.175104022026062;0.0;0.0;0.0
1606;0.0;0.0;0.0;-0.34062400460243225;-1.1877919435501099;1.158511996269226;0.0;0.0;0.0
1608;0.0;0.0;0.0;-0.29475200176239014;-1.254159927368164;1.1389919519424438;0.0;0.0;0.0
1610;-0.43505197763442993;-1.0577399730682373;1.0289479494094849;-0.2596159875392914;-1.2658720016479492;1.1672959327697754;2.471874952316284;-57.37812805175781;129.49124145507812
1613;0.0;0.0;0.0;-0.23228800296783447;-1.3673759698867798;1.1106879711151123;0.0;0.0;0.0
1614;0.0;0.0;0.0;-0.22448000311851501;-1.3712799549102783;1.126304030418396;0.0;0.0;0.0
1617;0.0;0.0;0.0;-0.17763200402259827;-1.4532639980316162;1.1350879669189453;0.0;0.0;0.0
1619;-0.3340359926223755;-1.2539160251617432;1.0152839422225952;-0.16201600432395935;-1.4805920124053955;1.1672959327697754;9.541874885559082;-55.27812576293945;120.53125
1621;0.0;0.0;0.0;-0.1542080044746399;-1.5157279968261719;1.158511996269226;0.0;0.0;0.0
1623;0.0;0.0;0.0;-0.10833600163459778;-1.5664799213409424;1.1712000370025635;0.0;0.0;0.0
1625;0.0;0.0;0.0;-0.09662400186061859;-1.5118240118026733;1.2766079902648926;0.0;0.0;0.0
1627;-0.236191987991333;-1.398851990699768;1.0777479410171509;-0.07320000231266022;-1.621135950088501;1.2444000244140625;16.26187515258789;-45.9681282043457;112.62124633789062
1629;0.0;0.0;0.0;-0.14737600088119507;-1.653343915939331;1.272704005241394;0.0;0.0;0.0
1632;0.0;0.0;0.0;-0.06539200246334076;-1.6221119165420532;1.3693280220031738;0.0;0.0;0.0
1634;0.0;0.0;0.0;-0.13566400110721588;-1.6338239908218384;1.3976320028305054;0.0;0.0;0.0
1636;-0.236191987991333;-1.506943941116333;1.2051160335540771;-0.1395680010318756;-1.6845759153366089;1.4025119543075562;14.58187484741211;-35.25812530517578;102.61125183105469
1638;0.0;0.0;0.0;-0.10443200170993805;-1.7197120189666748;1.4025119543075562;0.0;0.0;0.0
1640;0.0;0.0;0.0;-0.11614400148391724;-1.7197120189666748;1.4386240243911743;0.0;0.0;0.0
1642;0.0;0.0;0.0;-0.12004800140857697;-1.7548480033874512;1.4874240159988403;0.0;0.0;0.0
1644;-0.24595199525356293;-1.6108880043029785;1.3234559297561646;-0.11614400148391724;-1.8055999279022217;1.4874240159988403;0.5818749666213989;-27.27812385559082;88.0512466430664
1647;0.0;0.0;0.0;-0.11224000155925751;-1.8319519758224487;1.5157279968261719;0.0;0.0;0.0
1649;0.0;0.0;0.0;-0.13176000118255615;-1.8748959302902222;1.5274399518966675;0.0;0.0;0.0
1651;0.0;0.0;0.0;-0.1395680010318756;-1.9217439889907837;1.5567200183868408;0.0;0.0;0.0
1653;-0.2601040005683899;-1.737280011177063;1.3934839963912964;-0.18934398889541626;-1.9451680183410645;1.5518399477005005;-17.268123626708984;-23.848125457763672;71.53125
1655;0.0;0.0;0.0;-0.16591998934745789;-2.011535882949829;1.572335958480835;0.0;0.0;0.0
1657;0.0;0.0;0.0;-0.20495998859405518;-2.015439987182617;1.572335958480835;0.0;0.0;0.0
1659;0.0;0.0;0.0;-0.19324800372123718;-2.0661919116973877;1.5850239992141724;0.0;0.0;0.0
1661;-0.3142719864845276;-1.8819719552993774;1.446187973022461;-0.22838398814201355;-2.0583839416503906;1.6172319650650024;-30.7081241607666;-29.378124237060547;51.721248626708984
1664;0.0;0.0;0.0;-0.236191987991333;-2.081807851791382;1.6172319650650024;0.0;0.0;0.0
1666;0.0;0.0;0.0;-0.22838398814201355;-2.0661919116973877;1.6055200099945068;0.0;0.0;0.0
1668;0.0;0.0;0.0;-0.2596159875392914;-2.089616060256958;1.5772159099578857;0.0;0.0;0.0
1670;-0.3623400032520294;-1.9412639141082764;1.4593639373779297;-0.24399998784065247;-2.109135866165161;1.5362240076065063;-43.16812515258789;-53.458126068115234;29.53125
1672;0.0;0.0;0.0;-0.24009600281715393;-2.093519926071167;1.4952319860458374;0.0;0.0;0.0
1674;0.0;0.0;0.0;-0.2088640034198761;-2.1286559104919434;1.4064159393310547;0.0;0.0;0.0
1676;0.0;0.0;0.0;-0.15811198949813843;-2.1598880290985107;1.3410239219665527;0.0;0.0;0.0
1678;-0.3206160068511963;-1.9954320192337036;1.295151948928833;-0.12785600125789642;-2.1559839248657227;1.2932000160217285;-54.228126525878906;-90.90812683105469;4.541250228881836
1681;0.0;0.0;0.0;-0.06148799881339073;-2.2145440578460693;1.207311987876892;0.0;0.0;0.0
1683;0.0;0.0;0.0;-0.06929600238800049;-2.179408073425293;1.175104022026062;0.0;0.0;0.0
1685;0.0;0.0;0.0;-0.057583998888731;-2.1598880290985107;1.0618879795074463;0.0;0.0;0.0
1687;-0.1844639927148819;-2.0420360565185547;1.0194319486618042;0.00878399983048439;-2.175503969192505;1.0208959579467773;-58.708126068115234;-116.1781234741211;-23.248750686645508
1689;0.0;0.0;0.0;0.03611199930310249;-2.1247520446777344;0.9271999597549438;0.0;0.0;0.0
1691;0.0;0.0;0.0;0.04782399907708168;-2.113039970397949;0.8383839726448059;0.0;0.0;0.0
1693;0.0;0.0;0.0;0.13663999736309052;-2.089616060256958;0.8022719621658325;0.0;0.0;0.0
1695;-0.03269600123167038;-1.9705439805984497;0.737123966217041;0.19519999623298645;-2.0232479572296143;0.7290719747543335;-57.798126220703125;-126.18812561035156;-53.13875198364258
1698;0.0;0.0;0.0;0.2693759799003601;-2.008607864379883;0.6724640130996704;0.0;0.0;0.0
1700;0.0;0.0;0.0;0.2967039942741394;-1.9266239404678345;0.5953599810600281;0.0;0.0;0.0
1702;0.0;0.0;0.0;0.3630719780921936;-1.9031999111175537;0.5387519598007202;0.0;0.0;0.0
1704;0.1861719936132431;-1.7951079607009888;0.4787279963493347;0.4206559956073761;-1.8095039129257202;0.48604798316955566;-50.58812713623047;-127.44812774658203;-79.17874908447266
1706;0.0;0.0;0.0;0.49483197927474976;-1.735327959060669;0.41284799575805664;0.0;0.0;0.0
1708;0.0;0.0;0.0;0.5299679636955261;-1.6923840045928955;0.3757599890232086;0.0;0.0;0.0
1710;0.0;0.0;0.0;0.6041439771652222;-1.6299200057983398;0.3230559825897217;0.0;0.0;0.0
1712;0.42504799365997314;-1.5533039569854736;0.25693199038505554;0.6431840062141418;-1.5947840213775635;0.2869440019130707;-38.05812454223633;-118.5581283569336;-96.1187515258789
1715;0.0;0.0;0.0;0.6890559792518616;-1.5157279968261719;0.2420479953289032;0.0;0.0;0.0
1717;0.0;0.0;0.0;0.7359039783477783;-1.3986079692840576;0.18544000387191772;0.0;0.0;0.0
1719;0.0;0.0;0.0;0.7476159930229187;-1.3595679998397827;0.14444799721240997;0.0;0.0;0.0
1721;0.6056079864501953;-1.2756320238113403;0.08198399841785431;0.8061760067939758;-1.23854398727417;0.14054399728775024;-22.448123931884766;-91.88813018798828;-102.48875427246094
1723;0.0;0.0;0.0;0.8491199612617493;-1.1643680334091187;0.1327359974384308;0.0;0.0;0.0
1725;0.0;0.0;0.0;0.8764479756355286;-1.10971200466156;0.12883199751377106;0.0;0.0;0.0
1727;0.0;0.0;0.0;0.8608319759368896;-1.0277279615402222;0.14444799721240997;0.0;0.0;0.0
1729;0.7356599569320679;-0.9686799645423889;0.016835998743772507;0.8686400055885315;-0.9652639627456665;0.14054399728775024;-5.368124961853027;-41.69812774658203;-103.53874969482422
1732;0.0;0.0;0.0;0.8491199612617493;-0.9145119786262512;0.13663999736309052;0.0;0.0;0.0
1734;0.0;0.0;0.0;0.8100799918174744;-0.8637599945068359;0.16884799301624298;0.0;0.0;0.0
1736;0.0;0.0;0.0;0.7632319927215576;-0.8247199654579163;0.18934398889541626;0.0;0.0;0.0
1738;0.6834439635276794;-0.7456640005111694;0.06612399965524673;0.7046719789505005;-0.7817760109901428;0.23814399540424347;9.961874961853027;21.231876373291016;-96.74874877929688
1740;0.0;0.0;0.0;0.6890559792518616;-0.750544011592865;0.3113439977169037;0.0;0.0;0.0
1742;0.0;0.0;0.0;0.6431840062141418;-0.684175968170166;0.38844799995422363;0.0;0.0;0.0
1744;0.0;0.0;0.0;0.5963360071182251;-0.66075199842453;0.40406399965286255;0.0;0.0;0.0
1746;0.5177679657936096;-0.5560759902000427;0.24741598963737488;0.5494880080223083;-0.6217119693756104;0.5094720125198364;22.911876678466797;77.58187103271484;-87.29875183105469
1749;0.0;0.0;0.0;0.4870239794254303;-0.6021919846534729;0.5543680191040039;0.0;0.0;0.0
1751;0.0;0.0;0.0;0.42846399545669556;-0.5787680149078369;0.6353759765625;0.0;0.0;0.0
1753;0.0;0.0;0.0;0.33183997869491577;-0.5319200158119202;0.7212640047073364;0.0;0.0;0.0
1755;0.2937760055065155;-0.4382239878177643;0.5106920003890991;0.26156800985336304;-0.5319200158119202;0.798367977142334;31.10187530517578;118.74187469482422;-79.73875427246094
1757;0.0;0.0;0.0;0.18348799645900726;-0.4967840015888214;0.8910880088806152;0.0;0.0;0.0
1759;0.0;0.0;0.0;0.0634399950504303;-0.4577440023422241;0.9642879962921143;0.0;0.0;0.0
1761;0.0;0.0;0.0;0.01659199967980385;-0.4108960032463074;1.0374879837036133;0.0;0.0;0.0
1763;-0.03415999934077263;-0.32330000400543213;0.8230119943618774;-0.06539200246334076;-0.4108960032463074;1.1145919561386108;32.99187469482422;147.86187744140625;-78.12875366210938
1766;0.0;0.0;0.0;-0.1239520013332367;-0.3845439851284027;1.1712000370025635;0.0;0.0;0.0
1768;0.0;0.0;0.0;-0.18544000387191772;-0.36111998558044434;1.2356159687042236;0.0;0.0;0.0
1770;0.0;0.0;0.0;-0.25571200251579285;-0.36502400040626526;1.3127199411392212;0.0;0.0;0.0
1772;-0.32037198543548584;-0.23643599450588226;1.1045880317687988;-0.31036800146102905;-0.36111998558044434;1.3693280220031738;28.861875534057617;152.1318817138672;-78.89875030517578
1774;0.0;0.0;0.0;-0.3835679888725281;-0.36502400040626526;1.4669280052185059;0.0;0.0;0.0
1776;0.0;0.0;0.0;-0.4811680018901825;-0.33769598603248596;1.531343936920166;0.0;0.0;0.0
1778;0.0;0.0;0.0;-0.5319200158119202;-0.32598400115966797;1.613327980041504;0.0;0.0;0.0
1780;-0.5846239924430847;-0.21227999031543732;1.3944599628448486;-0.5748639702796936;-0.3181760013103485;1.6709120273590088;19.621875762939453;131.62188720703125;-83.0987548828125
1783;0.0;0.0;0.0;-0.6480640172958374;-0.29767999053001404;1.710927963256836;0.0;0.0;0.0
1785;0.0;0.0;0.0;-0.7144320011138916;-0.29767999053001404;1.767535924911499;0.0;0.0;0.0
1787;0.0;0.0;0.0;-0.733951985836029;-0.30158400535583496;1.759727954864502;0.0;0.0;0.0
1789;-0.8134959936141968;-0.17080000042915344;1.6025919914245605;-0.757375955581665;-0.27035200595855713;1.816335916519165;0.37187501788139343;95.36187744140625;-93.80875396728516
1791;0.0;0.0;0.0;-0.7651839852333069;-0.3054879903793335;1.816335916519165;0.0;0.0;0.0
1793;0.0;0.0;0.0;-0.7807999849319458;-0.2664479911327362;1.8046239614486694;0.0;0.0;0.0
1795;0.0;0.0;0.0;-0.7964159846305847;-0.2508319914340973;1.8124319314956665;0.0;0.0;0.0
1797;-0.9030439853668213;-0.13541999459266663;1.6679840087890625;-0.757375955581665;-0.23131199181079865;1.808527946472168;-20.628124237060547;47.41187286376953;-108.85874938964844
1800;0.0;0.0;0.0;-0.7183359861373901;-0.24399998784065247;1.7880319356918335;0.0;0.0;0.0
1802;0.0;0.0;0.0;-0.6714879870414734;-0.2088640034198761;1.743135929107666;0.0;0.0;0.0
1804;0.0;0.0;0.0;-0.6051200032234192;-0.16591998934745789;1.6904319524765015;0.0;0.0;0.0
1806;-0.7903159856796265;-0.06465999782085419;1.584291934967041;-0.5592479705810547;-0.11126399785280228;1.6338239908218384;-35.67812728881836;-11.17812442779541;-122.92874908447266
1808;0.0;0.0;0.0;-0.5163040161132812;-0.10735999792814255;1.5196319818496704;0.0;0.0;0.0
1810;0.0;0.0;0.0;-0.44993600249290466;-0.0331839993596077;1.4552159309387207;0.0;0.0;0.0
1812;0.0;0.0;0.0;-0.32207998633384705;0.0058559998869895935;1.3498079776763916;0.0;0.0;0.0
1814;-0.5472919940948486;0.08417999744415283;1.3122320175170898;-0.25571200251579285;-0.013663999736309052;1.272704005241394;-44.98812484741211;-71.16812896728516;-129.0887451171875
1817;0.0;0.0;0.0;-0.19715198874473572;0.0331839993596077;1.1672959327697754;0.0;0.0;0.0
1819;0.0;0.0;0.0;-0.08881600201129913;0.0605119988322258;1.0862879753112793;0.0;0.0;0.0
1821;0.0;0.0;0.0;-0.014639999717473984;0.08393599838018417;1.0130879878997803;0.0;0.0;0.0
1823;-0.21252399682998657;0.1954440027475357;0.9752680063247681;0.04782399907708168;0.13859200477600098;0.9154880046844482;-47.43812561035156;-102.52812957763672;-129.2987518310547
1825;0.0;0.0;0.0;0.10931199789047241;0.17763200402259827;0.8744959831237793;0.0;0.0;0.0
1827;0.0;0.0;0.0;0.187391996383667;0.19324800372123718;0.8139839768409729;0.0;0.0;0.0
1829;0.0;0.0;0.0;0.24595199525356293;0.20495998859405518;0.749567985534668;0.0;0.0;0.0
1831;0.05953599885106087;0.32549598813056946;0.6873480081558228;0.3357439935207367;0.236191987991333;0.708575963973999;-43.44812774658203;-101.96812438964844;-124.74874877929688
1834;0.0;0.0;0.0;0.3474559783935547;0.236191987991333;0.6392799615859985;0.0;0.0;0.0
1836;0.0;0.0;0.0;0.42846399545669556;0.2635200023651123;0.6314719915390015;0.0;0.0;0.0
1838;0.0;0.0;0.0;0.4596959948539734;0.26742398738861084;0.5953599810600281;0.0;0.0;0.0
1840;0.27327999472618103;0.40064799785614014;0.4962959885597229;0.47921597957611084;0.28303998708724976;0.522159993648529;-34.208126068115234;-77.46812438964844;-118.51875305175781
1842;0.0;0.0;0.0;0.49483197927474976;0.2869440019130707;0.5055679678916931;0.0;0.0;0.0
1844;0.0;0.0;0.0;0.522159993648529;0.31036800146102905;0.5016639828681946;0.0;0.0;0.0
1846;0.0;0.0;0.0;0.545583963394165;0.3416000008583069;0.47336000204086304;0.0;0.0;0.0
1848;0.40577200055122375;0.46628397703170776;0.370635986328125;0.545583963394165;0.3962559998035431;0.46164798736572266;-18.52812385559082;-34.90812683105469;-109.62875366210938
1851;0.0;0.0;0.0;0.4987359941005707;0.47921597957611084;0.4938559830188751;0.0;0.0;0.0
1853;0.0;0.0;0.0;0.47921597957611084;0.4206559956073761;0.4772639870643616;0.0;0.0;0.0
1855;0.0;0.0;0.0;0.4870239794254303;0.4167519807815552;0.5016639828681946;0.0;0.0;0.0
1857;0.3774679899215698;0.5755959749221802;0.3711239993572235;0.44017598032951355;0.5338720083236694;0.5543680191040039;3.5218749046325684;19.691875457763672;-98.98875427246094
1859;0.0;0.0;0.0;0.38259199261665344;0.6002399921417236;0.6197599768638611;0.0;0.0;0.0
1861;0.0;0.0;0.0;0.31622397899627686;0.6197599768638611;0.6070719957351685;0.0;0.0;0.0
1863;0.0;0.0;0.0;0.2420479953289032;0.6080479621887207;0.659775972366333;0.0;0.0;0.0
1865;0.2105719894170761;0.7385879755020142;0.5062999725341797;0.230335995554924;0.6783199906349182;0.6919839978218079;25.641876220703125;65.33187103271484;-86.80875396728516
1868;0.0;0.0;0.0;0.20691199600696564;0.7368800044059753;0.7612800002098083;0.0;0.0;0.0
1870;0.0;0.0;0.0;0.16396799683570862;0.7368800044059753;0.798367977142334;0.0;0.0;0.0
1872;0.0;0.0;0.0;0.11711999773979187;0.7837280035018921;0.8461920022964478;0.0;0.0;0.0
1874;0.04416399821639061;0.8859639763832092;0.6714879870414734;0.05953599885106087;0.8344799876213074;0.8988959789276123;45.521873474121094;88.99187469482422;-74.97875213623047
1876;0.0;0.0;0.0;-0.006831999868154526;0.8813279867172241;0.9642879962921143;0.0;0.0;0.0
1878;0.0;0.0;0.0;-0.06929600238800049;0.8735199570655823;1.0169919729232788;0.0;0.0;0.0
1880;0.0;0.0;0.0;-0.10052800178527832;0.9242720007896423;1.0413919687271118;0.0;0.0;0.0
1882;-0.1693359911441803;1.0379760265350342;0.8696159720420837;-0.12785600125789642;1.010159969329834;1.0862879753112793;62.041873931884766;99.14187622070312;-64.40875244140625
1885;0.0;0.0;0.0;-0.16591998934745789;1.0765279531478882;1.1184959411621094;0.0;0.0;0.0
1887;0.0;0.0;0.0;-0.20495998859405518;1.1663199663162231;1.1672959327697754;0.0;0.0;0.0
1889;0.0;0.0;0.0;-0.26742398738861084;1.1780319213867188;1.1633919477462769;0.0;0.0;0.0
1891;-0.3333039879798889;1.262455940246582;1.010159969329834;-0.29865598678588867;1.2444000244140625;1.2200000286102295;71.421875;95.01187133789062;-53.628753662109375
1893;0.0;0.0;0.0;-0.29475200176239014;1.3068640232086182;1.2200000286102295;0.0;0.0;0.0
1895;0.0;0.0;0.0;-0.33671998977661133;1.3693280220031738;1.2522079944610596;0.0;0.0;0.0
1897;0.0;0.0;0.0;-0.36795198917388916;1.4200799465179443;1.272704005241394;0.0;0.0;0.0
1899;-0.46457600593566895;1.493035912513733;1.1214239597320557;-0.4147999882698059;1.4708319902420044;1.2844159603118896;75.2718734741211;84.72187042236328;-42.91875076293945
1902;0.0;0.0;0.0;-0.3835679888725281;1.5059679746627808;1.3049119710922241;0.0;0.0;0.0
1904;0.0;0.0;0.0;-0.3640480041503906;1.5489119291305542;1.3498079776763916;0.0;0.0;0.0
1906;0.0;0.0;0.0;-0.3601439893245697;1.5957599878311157;1.3537119626998901;0.0;0.0;0.0
1908;-0.5026400089263916;1.6735960245132446;1.1985279321670532;-0.39137598872184753;1.6191840171813965;1.3498079776763916;75.20187377929688;67.22187042236328;-28.918750762939453
1910;0.0;0.0;0.0;-0.39137598872184753;1.66212797164917;1.3615199327468872;0.0;0.0;0.0
1912;0.0;0.0;0.0;-0.3718560039997101;1.708975911140442;1.3654239177703857;0.0;0.0;0.0
1914;0.0;0.0;0.0;-0.3484320044517517;1.7519199848175049;1.3781119585037231;0.0;0.0;0.0
1916;-0.49361199140548706;1.834879994392395;1.2231719493865967;-0.32207998633384705;1.767535924911499;1.3742079734802246;69.60187530517578;46.361873626708984;-11.698749542236328
1919;0.0;0.0;0.0;-0.33671998977661133;1.793887972831726;1.3693280220031738;0.0;0.0;0.0
1921;0.0;0.0;0.0;-0.2908479869365692;1.8173120021820068;1.3410239219665527;0.0;0.0;0.0
1923;0.0;0.0;0.0;-0.29475200176239014;1.8016959428787231;1.3332159519195557;0.0;0.0;0.0
1925;-0.4323679804801941;1.9322359561920166;1.2131680250167847;-0.26742398738861084;1.8212159872055054;1.297104001045227;57.14187240600586;27.0418758392334;6.291250228881836
1927;0.0;0.0;0.0;-0.2518079876899719;1.840735912322998;1.3088159561157227;0.0;0.0;0.0
1929;0.0;0.0;0.0;-0.20105600357055664;1.832927942276001;1.3049119710922241;0.0;0.0;0.0
1931;0.0;0.0;0.0;-0.20105600357055664;1.8212159872055054;1.2639199495315552;0.0;0.0;0.0
1933;-0.3403799831867218;1.9544399976730347;1.1497279405593872;-0.2205759882926941;1.8290239572525024;1.248304009437561;39.22187423706055;18.01187515258789;23.44124984741211
1936;0.0;0.0;0.0;-0.20495998859405518;1.8065760135650635;1.2639199495315552;0.0;0.0;0.0
1938;0.0;0.0;0.0;-0.17763200402259827;1.810479998588562;1.2600159645080566;0.0;0.0;0.0
1940;0.0;0.0;0.0;-0.20105600357055664;1.8143839836120605;1.2600159645080566;0.0;0.0;0.0
1942;-0.31158798933029175;1.9285759925842285;1.1209360361099243;-0.21667200326919556;1.7714399099349976;1.2766079902648926;21.161876678466797;24.031875610351562;39.75124740600586
1944;0.0;0.0;0.0;-0.22838398814201355;1.7402079105377197;1.2766079902648926;0.0;0.0;0.0
1946;0.0;0.0;0.0;-0.22838398814201355;1.6855520009994507;1.248304009437561;0.0;0.0;0.0
1948;0.0;0.0;0.0;-0.2205759882926941;1.6347999572753906;1.272704005241394;0.0;0.0;0.0
1950;-0.3408679962158203;1.81413996219635;1.1297199726104736;-0.2205759882926941;1.5957599878311157;1.2522079944610596;0.09187500178813934;28.7918758392334;54.73124694824219
1953;0.0;0.0;0.0;-0.21667200326919556;1.5411039590835571;1.256111979484558;0.0;0.0;0.0
1955;0.0;0.0;0.0;-0.21667200326919556;1.521583914756775;1.2766079902648926;0.0;0.0;0.0
1957;0.0;0.0;0.0;-0.2205759882926941;1.474735975265503;1.256111979484558;0.0;0.0;0.0
1959;-0.33598798513412476;1.6448040008544922;1.1375279426574707;-0.24009600281715393;1.4239839315414429;1.2805119752883911;-19.788124084472656;25.571874618530273;67.6812515258789
1961;0.0;0.0;0.0;-0.23228800296783447;1.377135992050171;1.2600159645080566;0.0;0.0;0.0
1963;0.0;0.0;0.0;-0.2479040026664734;1.3498079776763916;1.2278079986572266;0.0;0.0;0.0
1965;0.0;0.0;0.0;-0.21276798844337463;1.3302879333496094;1.2278079986572266;0.0;0.0;0.0
1967;-0.34891998767852783;1.4796159267425537;1.1070280075073242;-0.22838398814201355;1.2522079944610596;1.1916959285736084;-37.84812545776367;17.591875076293945;79.16124725341797
1970;0.0;0.0;0.0;-0.19324800372123718;1.2004799842834473;1.1790080070495605;0.0;0.0;0.0
1972;0.0;0.0;0.0;-0.2088640034198761;1.126304030418396;1.146799921989441;0.0;0.0;0.0
1974;0.0;0.0;0.0;-0.21276798844337463;1.044319987297058;1.101904034614563;0.0;0.0;0.0
1976;-0.3274479806423187;1.2509880065917969;1.0145519971847534;-0.19324800372123718;0.9662399888038635;1.101904034614563;-50.09812545776367;9.82187557220459;91.20124816894531
1978;0.0;0.0;0.0;-0.1512800008058548;0.8920639753341675;1.0901919603347778;0.0;0.0;0.0
1980;0.0;0.0;0.0;-0.17763200402259827;0.8335039615631104;1.0657919645309448;0.0;0.0;0.0
1982;0.0;0.0;0.0;-0.17763200402259827;0.774944007396698;1.0579839944839478;0.0;0.0;0.0
1984;-0.29572799801826477;0.9591639637947083;0.9393999576568604;-0.18934398889541626;0.7124800086021423;1.0531039237976074;-52.68812561035156;9.82187557220459;102.61125183105469
1987;0.0;0.0;0.0;-0.18934398889541626;0.6548959612846375;1.0696959495544434;0.0;0.0;0.0
1989;0.0;0.0;0.0;-0.20495998859405518;0.6002399921417236;1.0657919645309448;0.0;0.0;0.0
1991;0.0;0.0;0.0;-0.20105600357055664;0.5182560086250305;1.0452959537506104;0.0;0.0;0.0
1993;-0.32378798723220825;0.7202879786491394;0.9313479661941528;-0.2088640034198761;0.47921597957611084;1.0579839944839478;-50.02812576293945;15.001875877380371;112.20124816894531
1995;0.0;0.0;0.0;-0.22838398814201355;0.4050399959087372;1.0814080238342285;0.0;0.0;0.0
1997;0.0;0.0;0.0;-0.23228800296783447;0.3659999966621399;1.0940959453582764;0.0;0.0;0.0
1999;0.0;0.0;0.0;-0.22838398814201355;0.29182398319244385;1.122399926185608;0.0;0.0;0.0
2002;-0.35867998003959656;0.4577440023422241;0.9523319602012634;-0.20495998859405518;0.10443200170993805;1.0531039237976074;-45.89812469482422;19.76187515258789;117.45124816894531
2004;0.0;0.0;0.0;-0.24009600281715393;0.18641600012779236;1.1877919435501099;0.0;0.0;0.0
2006;0.0;0.0;0.0;-0.3835679888725281;0.24887999892234802;1.231711983680725;0.0;0.0;0.0
2008;0.0;0.0;0.0;-0.236191987991333;-0.05172799900174141;1.146799921989441;0.0;0.0;0.0
2010;-0.3933279812335968;0.2705959975719452;1.050663948059082;-0.2869440019130707;0.15518400073051453;1.2883199453353882;-39.24812698364258;20.531875610351562;115.07125091552734
2012;0.0;0.0;0.0;-0.3025600016117096;-0.00878399983048439;1.1790080070495605;0.0;0.0;0.0
2014;0.0;0.0;0.0;-0.3181760013103485;-0.06734399497509003;1.1302080154418945;0.0;0.0;0.0
2016;0.0;0.0;0.0;-0.35624000430107117;-0.10638399422168732;1.101904034614563;0.0;0.0;0.0
2018;-0.43187999725341797;0.08832799643278122;1.0289479494094849;-0.30646398663520813;-0.0907679945230484;1.1350879669189453;-39.03812789916992;11.361875534057617;112.06124877929688
2021;0.0;0.0;0.0;-0.21667200326919556;-0.10345599800348282;1.1672959327697754;0.0;0.0;0.0
2023;0.0;0.0;0.0;-0.23228800296783447;-0.12297599762678146;1.1633919477462769;0.0;0.0;0.0
2025;0.0;0.0;0.0;-0.2596159875392914;-0.13468798995018005;1.1672959327697754;0.0;0.0;0.0
2027;-0.3735640048980713;0.01781199872493744;1.0243120193481445;-0.29475200176239014;-0.14640000462532043;1.122399926185608;-32.52812576293945;6.531875133514404;103.45124816894531
2029;0.0;0.0;0.0;-0.2791360020637512;-0.16201600432395935;1.0901919603347778;0.0;0.0;0.0
2031;0.0;0.0;0.0;-0.2479040026664734;-0.21276798844337463;1.0491999387741089;0.0;0.0;0.0
2033;0.0;0.0;0.0;-0.17372798919677734;-0.24009600281715393;1.0531039237976074;0.0;0.0;0.0
2036;-0.3555079996585846;-0.0832040011882782;0.9425719976425171;-0.13176000118255615;-0.29865598678588867;1.0247999429702759;-24.68812370300293;-4.598124980926514;103.73124694824219
2038;0.0;0.0;0.0;-0.12785600125789642;-0.3806400001049042;1.0208959579467773;0.0;0.0;0.0
2040;0.0;0.0;0.0;-0.12785600125789642;-0.41577598452568054;0.9964959621429443;0.0;0.0;0.0
2042;0.0;0.0;0.0;-0.15030398964881897;-0.45481598377227783;1.0003999471664429;0.0;0.0;0.0
2044;-0.2640079855918884;-0.2683999836444855;0.8688839673995972;-0.16591998934745789;-0.4665279984474182;0.9759999513626099;-8.938125610351562;-9.98812484741211;109.89125061035156
2046;0.0;0.0;0.0;-0.18544000387191772;-0.48214399814605713;1.0091840028762817;0.0;0.0;0.0
2048;0.0;0.0;0.0;-0.1542080044746399;-0.4899519979953766;1.0413919687271118;0.0;0.0;0.0
2050;0.0;0.0;0.0;-0.2088640034198761;-0.48604798316955566;1.0208959579467773;0.0;0.0;0.0
2053;-0.30524399876594543;-0.34769999980926514;0.8852319717407227;-0.2752319872379303;-0.4782399833202362;1.0130879878997803;5.411875247955322;-4.668125152587891;113.25125122070312
2055;0.0;0.0;0.0;-0.3142719864845276;-0.5016639828681946;1.0169919729232788;0.0;0.0;0.0
2057;0.0;0.0;0.0;-0.29865598678588867;-0.5016639828681946;1.0003999471664429;0.0;0.0;0.0
2059;0.0;0.0;0.0;-0.22448000311851501;-0.48604798316955566;1.0091840028762817;0.0;0.0;0.0
2061;-0.38210397958755493;-0.35404399037361145;0.8747400045394897;-0.16201600432395935;-0.4899519979953766;1.0091840028762817;11.151874542236328;-1.0281249284744263;111.78125
2063;0.0;0.0;0.0;-0.08881600201129913;-0.5055679678916931;1.0169919729232788;0.0;0.0;0.0
2065;0.0;0.0;0.0;-0.06148799881339073;-0.5172799825668335;0.9925919771194458;0.0;0.0;0.0
2067;0.0;0.0;0.0;-0.08881600201129913;-0.5641279816627502;1.0052800178527832;0.0;0.0;0.0
2070;-0.20178799331188202;-0.4079679846763611;0.8810839653015137;-0.06539200246334076;-0.6383039951324463;1.0130879878997803;17.521875381469727;7.931874752044678;115.84124755859375
2072;0.0;0.0;0.0;-0.07320000231266022;-0.6539199948310852;1.0335839986801147;0.0;0.0;0.0
2074;0.0;0.0;0.0;-0.07320000231266022;-0.6578239798545837;1.0618879795074463;0.0;0.0;0.0
2076;0.0;0.0;0.0;-0.1698240041732788;-0.5641279816627502;1.150704026222229;0.0;0.0;0.0
2078;-0.2193560004234314;-0.5289919972419739;0.9420839548110962;-0.14347200095653534;-0.8217920064926147;1.0901919603347778;26.76187515258789;20.321874618530273;126.9012451171875
2080;0.0;0.0;0.0;-0.20105600357055664;-0.7437120079994202;1.1956000328063965;0.0;0.0;0.0
2082;0.0;0.0;0.0;-0.24009600281715393;-0.7788479924201965;1.2600159645080566;0.0;0.0;0.0
2084;0.0;0.0;0.0;-0.27132800221443176;-0.8022719621658325;1.2648959159851074;0.0;0.0;0.0
2087;-0.3606320023536682;-0.644648015499115;1.1104439496994019;-0.34062400460243225;-0.8530240058898926;1.3127199411392212;28.301876068115234;28.72187614440918;134.46124267578125
2089;0.0;0.0;0.0;-0.35233598947525024;-0.8793759942054749;1.3615199327468872;0.0;0.0;0.0
2091;0.0;0.0;0.0;-0.3835679888725281;-0.8598560094833374;1.4591199159622192;0.0;0.0;0.0
2093;0.0;0.0;0.0;-0.44603198766708374;-0.9106079936027527;1.5196319818496704;0.0;0.0;0.0
2095;-0.5080080032348633;-0.7520079612731934;1.3124759197235107;-0.44993600249290466;-0.945743978023529;1.5606240034103394;16.051876068115234;43.00187301635742;130.89125061035156
2097;0.0;0.0;0.0;-0.4928799867630005;-0.9769759774208069;1.6221119165420532;0.0;0.0;0.0
2099;0.0;0.0;0.0;-0.5202080011367798;-1.012112021446228;1.6953120231628418;0.0;0.0;0.0
2101;0.0;0.0;0.0;-0.5241119861602783;-1.0160160064697266;1.7236160039901733;0.0;0.0;0.0
2104;-0.6126840114593506;-0.8664439916610718;1.5352479219436646;-0.5280159711837769;-1.0862879753112793;1.7636319398880005;-5.088124752044678;39.64187240600586;121.51124572753906
2106;0.0;0.0;0.0;-0.5475360155105591;-1.1184959411621094;1.7997440099716187;0.0;0.0;0.0
2108;0.0;0.0;0.0;-0.5748639702796936;-1.1614400148391724;1.7958400249481201;0.0;0.0;0.0
2110;0.0;0.0;0.0;-0.5787680149078369;-1.2082879543304443;1.825119972229004;0.0;0.0;0.0
2112;-0.676367998123169;-1.0352920293807983;1.6692039966583252;-0.5670560002326965;-1.2824640274047852;1.8612319231033325;-30.77812385559082;10.7318754196167;110.03125
2114;0.0;0.0;0.0;-0.5709599852561951;-1.368351936340332;1.8446400165557861;0.0;0.0;0.0
2116;0.0;0.0;0.0;-0.5982879996299744;-1.4308159351348877;1.8290239572525024;0.0;0.0;0.0
2118;0.0;0.0;0.0;-0.5553439855575562;-1.4932799339294434;1.8202400207519531;0.0;0.0;0.0
2121;-0.7014999985694885;-1.2866120338439941;1.6853079795837402;-0.5670560002326965;-1.5830719470977783;1.767535924911499;-56.4681282043457;-31.408124923706055;95.89125061035156
2123;0.0;0.0;0.0;-0.5475360155105591;-1.6572480201721191;1.7480159997940063;0.0;0.0;0.0
2125;0.0;0.0;0.0;-0.5045920014381409;-1.7197120189666748;1.6992160081863403;0.0;0.0;0.0
2127;0.0;0.0;0.0;-0.46164798736572266;-1.7743679285049438;1.6543200016021729;0.0;0.0;0.0
2129;-0.6251279711723328;-1.5677000284194946;1.5545239448547363;-0.4265120029449463;-1.8290239572525024;1.572335958480835;-76.34812927246094;-73.68812561035156;77.69124603271484
2131;0.0;0.0;0.0;-0.35624000430107117;-1.891487956047058;1.5440319776535034;0.0;0.0;0.0
2133;0.0;0.0;0.0;-0.3025600016117096;-1.9383360147476196;1.4786399602890015;0.0;0.0;0.0
2135;0.0;0.0;0.0;-0.2596159875392914;-1.973471999168396;1.4669280052185059;0.0;0.0;0.0
2138;-0.4399319887161255;-1.7858359813690186;1.3676199913024902;-0.21276798844337463;-1.9890879392623901;1.3986079692840576;-86.84812927246094;-107.84812927246094;56.901248931884766
2140;0.0;0.0;0.0;-0.19324800372123718;-2.016416072845459;1.3293119668960571;0.0;0.0;0.0
2142;0.0;0.0;0.0;-0.15518400073051453;-2.0554559230804443;1.2805119752883911;0.0;0.0;0.0
2144;0.0;0.0;0.0;-0.057583998888731;-2.0554559230804443;1.2160959243774414;0.0;0.0;0.0
2146;-0.25522398948669434;-1.912227988243103;1.1475319862365723;-0.06148799881339073;-2.129631996154785;1.150704026222229;-93.35812377929688;-131.71812438964844;34.92124938964844
2148;0.0;0.0;0.0;0.004879999905824661;-2.1452479362487793;1.0814080238342285;0.0;0.0;0.0
2150;0.0;0.0;0.0;0.028303999453783035;-2.1803839206695557;1.0169919729232788;0.0;0.0;0.0
2152;0.0;0.0;0.0;0.09857599437236786;-2.231135845184326;0.9193919897079468;0.0;0.0;0.0
2155;-0.06783200055360794;-2.035935878753662;0.8837679624557495;0.16787199676036835;-2.215519905090332;0.8793759942054749;-93.98812866210938;-144.38812255859375;11.331250190734863
2157;0.0;0.0;0.0;0.2147199958562851;-2.281888008117676;0.8305760025978088;0.0;0.0;0.0
2159;0.0;0.0;0.0;0.26156800985336304;-2.2584638595581055;0.798367977142334;0.0;0.0;0.0
2161;0.0;0.0;0.0;0.30060797929763794;-2.2662720680236816;0.732975959777832;0.0;0.0;0.0
2163;0.13932399451732635;-2.1047439575195312;0.6580680012702942;0.3396480083465576;-2.2428479194641113;0.6724640130996704;-88.31812286376953;-146.9081268310547;-15.05875015258789
2165;0.0;0.0;0.0;0.4060159921646118;-2.2350399494171143;0.5826719999313354;0.0;0.0;0.0
2167;0.0;0.0;0.0;0.45579198002815247;-2.2389440536499023;0.5260639786720276;0.0;0.0;0.0
2170;0.0;0.0;0.0;0.5182560086250305;-2.223327875137329;0.4411519765853882;0.0;0.0;0.0
2172;0.3276920020580292;-2.0910799503326416;0.403331995010376;0.5729119777679443;-2.211616039276123;0.4089439809322357;-79.078125;-141.4481201171875;-40.9587516784668
2174;0.0;0.0;0.0;0.5963360071182251;-2.2145440578460693;0.3396480083465576;0.0;0.0;0.0
2176;0.0;0.0;0.0;0.6509919762611389;-2.2145440578460693;0.3113439977169037;0.0;0.0;0.0
2178;0.0;0.0;0.0;0.6461119651794434;-2.167695999145508;0.28303998708724976;0.0;0.0;0.0
2180;0.5219159722328186;-2.0456960201263428;0.2025199979543686;0.6890559792518616;-2.097424030303955;0.25863999128341675;-61.298126220703125;-117.29812622070312;-63.91875457763672
2182;0.0;0.0;0.0;0.7163839936256409;-2.089616060256958;0.230335995554924;0.0;0.0;0.0
2184;0.0;0.0;0.0;0.685151994228363;-2.0544800758361816;0.19324800372123718;0.0;0.0;0.0
2186;0.0;0.0;0.0;0.7398079633712769;-1.995919942855835;0.16494399309158325;0.0;0.0;0.0
2189;0.6029239892959595;-1.9124720096588135;0.08295999467372894;0.7788479924201965;-1.95687997341156;0.17763200402259827;-40.15812683105469;-80.54812622070312;-82.74874877929688
2191;0.0;0.0;0.0;0.8139839768409729;-1.9266239404678345;0.17763200402259827;0.0;0.0;0.0
2193;0.0;0.0;0.0;0.8569279909133911;-1.8368319272994995;0.1727519929409027;0.0;0.0;0.0
2195;0.0;0.0;0.0;0.87254399061203;-1.8446400165557861;0.16103999316692352;0.0;0.0;0.0
2197;0.7315120100975037;-1.7358160018920898;0.04147999733686447;0.8569279909133911;-1.793887972831726;0.14444799721240997;-19.718124389648438;-37.28812789916992;-95.6987533569336
2199;0.0;0.0;0.0;0.895967960357666;-1.7626559734344482;0.1571359932422638;0.0;0.0;0.0
2201;0.0;0.0;0.0;0.8647359609603882;-1.6923840045928955;0.1815359890460968;0.0;0.0;0.0
2204;0.0;0.0;0.0;0.8178879618644714;-1.6221119165420532;0.20203199982643127;0.0;0.0;0.0
2206;0.7263879776000977;-1.541592001914978;0.06490399688482285;0.7593280076980591;-1.5518399477005005;0.22643199563026428;2.2618749141693115;15.141875267028809;-103.60874938964844
2208;0.0;0.0;0.0;0.7437120079994202;-1.458143949508667;0.27425599098205566;0.0;0.0;0.0
2210;0.0;0.0;0.0;0.7046719789505005;-1.3878719806671143;0.3269599974155426;0.0;0.0;0.0
2212;0.0;0.0;0.0;0.6734399795532227;-1.32150399684906;0.3474559783935547;0.0;0.0;0.0
2214;0.5829159617424011;-1.2626999616622925;0.20398399233818054;0.6392799615859985;-1.2512320280075073;0.40406399965286255;20.74187660217285;65.75187683105469;-107.52875518798828
2216;0.0;0.0;0.0;0.6041439771652222;-1.2004799842834473;0.4411519765853882;0.0;0.0;0.0
2218;0.0;0.0;0.0;0.5690079927444458;-1.134112000465393;0.5182560086250305;0.0;0.0;0.0
2221;0.0;0.0;0.0;0.4870239794254303;-1.0872639417648315;0.5582720041275024;0.0;0.0;0.0
2223;0.4323679804801941;-1.0169919729232788;0.39308398962020874;0.42846399545669556;-1.044319987297058;0.6275680065155029;35.65187454223633;104.60187530517578;-107.31875610351562
2225;0.0;0.0;0.0;0.374783992767334;-0.9662399888038635;0.6724640130996704;0.0;0.0;0.0
2227;0.0;0.0;0.0;0.30060797929763794;-0.9271999597549438;0.749567985534668;0.0;0.0;0.0
2229;0.0;0.0;0.0;0.23423999547958374;-0.8491199612617493;0.8100799918174744;0.0;0.0;0.0
2231;0.19056399166584015;-0.7734799981117249;0.6224439740180969;0.17177599668502808;-0.8022719621658325;0.8754720091819763;47.271873474121094;131.1318817138672;-105.00875091552734
2233;0.0;0.0;0.0;0.14054399728775024;-0.7632319927215576;0.9076799750328064;0.0;0.0;0.0
2235;0.0;0.0;0.0;0.0634399950504303;-0.7476159930229187;1.0130879878997803;0.0;0.0;0.0
2238;0.0;0.0;0.0;0.01268799975514412;-0.7124800086021423;1.0618879795074463;0.0;0.0;0.0
2240;-0.05904799699783325;-0.5992639660835266;0.8669319748878479;-0.07320000231266022;-0.708575963973999;1.122399926185608;52.73187255859375;143.66188049316406;-103.67874908447266
2242;0.0;0.0;0.0;-0.15030398964881897;-0.6695359945297241;1.1916959285736084;0.0;0.0;0.0
2244;0.0;0.0;0.0;-0.21276798844337463;-0.6383039951324463;1.223904013633728;0.0;0.0;0.0
2246;0.0;0.0;0.0;-0.27132800221443176;-0.6304959654808044;1.2688000202178955;0.0;0.0;0.0
2248;-0.3123199939727783;-0.5143519639968872;1.085312008857727;-0.28303998708724976;-0.6148799657821655;1.3410239219665527;50.701873779296875;135.82188415527344;-105.14875030517578
2250;0.0;0.0;0.0;-0.3455039858818054;-0.5836479663848877;1.3576159477233887;0.0;0.0;0.0
2252;0.0;0.0;0.0;-0.42260798811912537;-0.5719360113143921;1.4064159393310547;0.0;0.0;0.0
2255;0.0;0.0;0.0;-0.4811680018901825;-0.5602239966392517;1.4308159351348877;0.0;0.0;0.0
2257;-0.5511959791183472;-0.4370039999485016;1.2661160230636597;-0.5241119861602783;-0.5172799825668335;1.4708319902420044;41.881874084472656;114.33187103271484;-112.91875457763672
2259;0.0;0.0;0.0;-0.5709599852561951;-0.4967840015888214;1.5440319776535034;0.0;0.0;0.0
2261;0.0;0.0;0.0;-0.6051200032234192;-0.48507198691368103;1.5567200183868408;0.0;0.0;0.0
2263;0.0;0.0;0.0;-0.6207360029220581;-0.42260798811912537;1.547935962677002;0.0;0.0;0.0
2265;-0.7232159972190857;-0.3333039879798889;1.4127600193023682;-0.6168320178985596;-0.399183988571167;1.547935962677002;24.941875457763672;87.24187469482422;-130.06875610351562
2267;0.0;0.0;0.0;-0.6246399879455566;-0.39137598872184753;1.5811200141906738;0.0;0.0;0.0
2269;0.0;0.0;0.0;-0.5904799699783325;-0.34062400460243225;1.5567200183868408;0.0;0.0;0.0
2272;0.0;0.0;0.0;-0.5436319708824158;-0.3172000050544739;1.5401279926300049;0.0;0.0;0.0
2274;-0.7071120142936707;-0.19300399720668793;1.4137359857559204;-0.5084959864616394;-0.23131199181079865;1.5196319818496704;7.021875381469727;47.90187454223633;-146.7987518310547
2276;0.0;0.0;0.0;-0.46164798736572266;-0.17763200402259827;1.474735975265503;0.0;0.0;0.0
2278;0.0;0.0;0.0;-0.4265120029449463;-0.11126399785280228;1.4103199243545532;0.0;0.0;0.0
2280;0.0;0.0;0.0;-0.3835679888725281;-0.037087999284267426;1.4142240285873413;0.0;0.0;0.0
2282;-0.5533919930458069;0.0348920002579689;1.299787998199463;-0.3328160047531128;0.029279999434947968;1.3293119668960571;-3.4781250953674316;6.601874828338623;-153.65875244140625
2284;0.0;0.0;0.0;-0.30646398663520813;0.0605119988322258;1.3010079860687256;0.0;0.0;0.0
2286;0.0;0.0;0.0;-0.2791360020637512;0.11126399785280228;1.2688000202178955;0.0;0.0;0.0
2289;0.0;0.0;0.0;-0.2479040026664734;0.1542080044746399;1.1956000328063965;0.0;0.0;0.0
2291;-0.38771599531173706;0.2449759989976883;1.120203971862793;-0.18934398889541626;0.17763200402259827;1.1633919477462769;-6.348124980926514;-22.308124542236328;-149.87875366210938
2293;0.0;0.0;0.0;-0.16201600432395935;0.205935999751091;1.1145919561386108;0.0;0.0;0.0
2295;0.0;0.0;0.0;-0.13566400110721588;0.24887999892234802;1.073599934577942;0.0;0.0;0.0
2297;0.0;0.0;0.0;-0.0849120020866394;0.25278398394584656;1.0491999387741089;0.0;0.0;0.0
2299;-0.24692799150943756;0.36624398827552795;0.9525759816169739;-0.07710400223731995;0.260591983795166;1.0247999429702759;-5.508124828338623;-32.73812484741211;-140.28875732421875
2301;0.0;0.0;0.0;-0.06148799881339073;0.29572799801826477;0.9720959663391113;0.0;0.0;0.0
2304;0.0;0.0;0.0;-0.014639999717473984;0.31915199756622314;0.9320799708366394;0.0;0.0;0.0
2306;0.0;0.0;0.0;-0.018543999642133713;0.34647998213768005;0.8910880088806152;0.0;0.0;0.0
2308;-0.14566799998283386;0.4496919810771942;0.8149600028991699;0.03611199930310249;0.3542879819869995;0.8949919939041138;-3.898124933242798;-29.02812385559082;-127.96875
2310;0.0;0.0;0.0;0.020495999604463577;0.37673598527908325;0.9193919897079468;0.0;0.0;0.0
2312;0.0;0.0;0.0;0.020495999604463577;0.3806400001049042;0.8510719537734985;0.0;0.0;0.0
2314;0.0;0.0;0.0;0.0009759999811649323;0.39235198497772217;0.8588799834251404;0.0;0.0;0.0
2316;-0.10223599523305893;0.5065439939498901;0.7551800012588501;0.01659199967980385;0.38844799995422363;0.8305760025978088;-1.518125057220459;-12.228124618530273;-116.97875213623047
2318;0.0;0.0;0.0;0.05172799900174141;0.39235198497772217;0.8705919981002808;0.0;0.0;0.0
2320;0.0;0.0;0.0;0.028303999453783035;0.41577598452568054;0.8793759942054749;0.0;0.0;0.0
2323;0.0;0.0;0.0;0.004879999905824661;0.4470079839229584;0.8793759942054749;0.0;0.0;0.0
2325;-0.1076039969921112;0.5485119819641113;0.7471280097961426;-0.03415999934077263;0.4509119987487793;0.8744959831237793;2.051874876022339;12.271875381469727;-105.49874877929688
2327;0.0;0.0;0.0;-0.08881600201129913;0.48311999440193176;0.8988959789276123;0.0;0.0;0.0
2329;0.0;0.0;0.0;-0.10052800178527832;0.4909279942512512;0.9525759816169739;0.0;0.0;0.0
2331;0.0;0.0;0.0;-0.11224000155925751;0.5065439939498901;0.9681919813156128;0.0;0.0;0.0
2333;-0.2100839912891388;0.6175639629364014;0.8130080103874207;-0.13566400110721588;0.5104479789733887;1.0169919729232788;8.631875038146973;34.74187469482422;-94.85874938964844
2335;0.0;0.0;0.0;-0.1698240041732788;0.49483197927474976;1.0531039237976074;0.0;0.0;0.0
2337;0.0;0.0;0.0;-0.21667200326919556;0.5299679636955261;1.101904034614563;0.0;0.0;0.0
2340;0.0;0.0;0.0;-0.23228800296783447;0.5690079927444458;1.1106879711151123;0.0;0.0;0.0
2342;-0.3123199939727783;0.6714879870414734;0.9462319612503052;-0.21667200326919556;0.5807200074195862;1.1302080154418945;15.77187442779541;40.34187316894531;-85.40875244140625
2344;0.0;0.0;0.0;-0.2479040026664734;0.5836479663848877;1.1145919561386108;0.0;0.0;0.0
2346;0.0;0.0;0.0;-0.26742398738861084;0.6070719957351685;1.1350879669189453;0.0;0.0;0.0
2348;0.0;0.0;0.0;-0.25571200251579285;0.6422079801559448;1.1389919519424438;0.0;0.0;0.0
2350;-0.3835679888725281;0.7481039762496948;1.0040600299835205;-0.2596159875392914;0.708575963973999;1.1672959327697754;18.921875;24.451875686645508;-74.20875549316406
2352;0.0;0.0;0.0;-0.30646398663520813;0.6187840104103088;1.1106879711151123;0.0;0.0;0.0
2354;0.0;0.0;0.0;-0.24399998784065247;0.521183967590332;1.0775039196014404;0.0;0.0;0.0
2357;0.0;0.0;0.0;-0.2908479869365692;0.6656320095062256;1.1672959327697754;0.0;0.0;0.0
2359;-0.38966798782348633;0.749567985534668;0.9977160096168518;-0.25571200251579285;0.6656320095062256;1.1672959327697754;19.411876678466797;14.091875076293945;-67.83875274658203
2361;0.0;0.0;0.0;-0.3298879861831665;0.6890559792518616;1.146799921989441;0.0;0.0;0.0
2363;0.0;0.0;0.0;-0.37966400384902954;0.700767993927002;1.122399926185608;0.0;0.0;0.0
2365;0.0;0.0;0.0;-0.3601439893245697;0.7593280076980591;1.1428959369659424;0.0;0.0;0.0
2367;-0.4533520042896271;0.8552199602127075;1.0157719850540161;-0.33671998977661133;0.798367977142334;1.134112000465393;14.371874809265137;16.121875762939453;-67.0687484741211
2370;0.0;0.0;0.0;-0.2635200023651123;0.8491199612617493;1.1546080112457275;0.0;0.0;0.0
2371;0.0;0.0;0.0;-0.25571200251579285;0.8764479756355286;1.146799921989441;0.0;0.0;0.0
2374;0.0;0.0;0.0;-0.2869440019130707;0.8920639753341675;1.1672959327697754;0.0;0.0;0.0
2376;-0.39186400175094604;0.9823439717292786;1.016503930091858;-0.25571200251579285;0.9232959747314453;1.146799921989441;6.4618754386901855;16.751874923706055;-68.53874969482422
2378;0.0;0.0;0.0;-0.236191987991333;0.9193919897079468;1.1058080196380615;0.0;0.0;0.0
2380;0.0;0.0;0.0;-0.23228800296783447;0.9701439738273621;1.1145919561386108;0.0;0.0;0.0
2382;0.0;0.0;0.0;-0.21667200326919556;1.0052800178527832;1.1106879711151123;0.0;0.0;0.0
