Timestamp(ms);LG-Accel x(g);LG-Accel y(g);LG-Accel z(g);HG-Accel x(g);HG-Accel y(g);HG-Accel z(g);Gyro x(dps);Gyro y(dps);Gyro z(dps)
71;0.0;0.0;0.0;-0.027327999472618103;0.36795198917388916;1.2375680208206177;0.0;0.0;0.0
73;0.0;0.0;0.0;-0.03903999924659729;0.35624000430107117;1.254159927368164;0.0;0.0;0.0
75;0.0;0.0;0.0;-0.058559998869895935;0.2820639908313751;1.254159927368164;0.0;0.0;0.0
77;0.0;0.0;0.0;-0.08979199826717377;0.24302399158477783;1.2863680124282837;0.0;0.0;0.0
79;0.0;0.0;0.0;-0.11711999773979187;0.21569599211215973;1.3224799633026123;0.0;0.0;0.0
82;0.0;0.0;0.0;-0.10247999429702759;0.22935999929904938;1.3410239219665527;0.0;0.0;0.0
84;0.0;0.0;0.0;-0.1180959939956665;0.1512800008058548;1.3332159519195557;0.0;0.0;0.0
86;0.0;0.0;0.0;-0.15225599706172943;0.12004800140857697;1.3166239261627197;0.0;0.0;0.0
88;-0.260591983795166;0.2979239821434021;1.193892002105713;-0.17177599668502808;0.07710400223731995;1.3010079860687256;0.0;0.0;0.0
90;0.0;0.0;0.0;-0.15615999698638916;0.02635199949145317;1.3000320196151733;0.0;0.0;0.0
92;0.0;0.0;0.0;-0.17177599668502808;-0.05172799900174141;1.2766079902648926;0.0;0.0;0.0
94;0.0;0.0;0.0;-0.16396799683570862;-0.11419199407100677;1.2639199495315552;0.0;0.0;0.0
96;-0.2925559878349304;0.08832799643278122;1.1521680355072021;-0.1483519971370697;-0.14932799339294434;1.2278079986572266;0.0;0.0;0.0
99;0.0;0.0;0.0;-0.16396799683570862;-0.24692799150943756;1.199504017829895;0.0;0.0;0.0
101;0.0;0.0;0.0;-0.12199999392032623;-0.27035200595855713;1.1907199621200562;0.0;0.0;0.0
103;0.0;0.0;0.0;-0.1600639969110489;-0.20788799226284027;1.2190239429473877;0.0;0.0;0.0
105;-0.27498799562454224;-0.10858000069856644;1.0757960081100464;-0.13761599361896515;-0.3054879903793335;1.1624159812927246;0.0;0.0;0.0
107;0.0;0.0;0.0;-0.16396799683570862;-0.399183988571167;1.1184959411621094;0.0;0.0;0.0
109;0.0;0.0;0.0;-0.09467199444770813;-0.44993600249290466;1.101904034614563;0.0;0.0;0.0
111;0.0;0.0;0.0;-0.07124799489974976;-0.4772639870643616;1.097999930381775;0.0;0.0;0.0
113;-0.22838398814201355;-0.29353198409080505;0.9847840070724487;-0.05563199892640114;-0.5045920014381409;1.044319987297058;0.0;0.0;0.0
116;0.0;0.0;0.0;-0.07124799489974976;-0.6178079843521118;0.9916160106658936;0.0;0.0;0.0
118;0.0;0.0;0.0;-0.024399999529123306;-0.6724640130996704;0.9428159594535828;0.0;0.0;0.0
120;0.0;0.0;0.0;-0.020495999604463577;-0.6997919678688049;0.9389119744300842;0.0;0.0;0.0
122;-0.15518400073051453;-0.5311880111694336;0.8408240079879761;0.0029279999434947968;-0.7895839810371399;0.8862079977989197;0.0;0.0;0.0
124;0.0;0.0;0.0;0.03806399926543236;-0.8520479798316956;0.8500959873199463;0.0;0.0;0.0
126;0.0;0.0;0.0;0.045871999114751816;-0.9223200082778931;0.8539999723434448;0.0;0.0;0.0
128;0.0;0.0;0.0;0.045871999114751816;-0.9730719923973083;0.8256959915161133;0.0;0.0;0.0
130;-0.08881600201129913;-0.7768959999084473;0.7224839925765991;0.09272000193595886;-1.0628639459609985;0.8012959957122803;-64.49624633789062;-60.31812286376953;106.49624633789062
133;0.0;0.0;0.0;0.10345599800348282;-1.1058080196380615;0.7729920148849487;0.0;0.0;0.0
135;0.0;0.0;0.0;0.10735999792814255;-1.199504017829895;0.7446879744529724;0.0;0.0;0.0
137;0.0;0.0;0.0;0.13468798995018005;-1.2619680166244507;0.7075999975204468;0.0;0.0;0.0
139;-0.015615999698638916;-1.0677440166473389;0.6200039982795715;0.13468798995018005;-1.3478559255599976;0.6919839978218079;-79.68624877929688;-55.13812255859375;97.46624755859375
141;0.0;0.0;0.0;0.16201600432395935;-1.4649759531021118;0.6344000101089478;0.0;0.0;0.0
143;0.0;0.0;0.0;0.1698240041732788;-1.582095980644226;0.6021919846534729;0.0;0.0;0.0
145;0.0;0.0;0.0;0.1698240041732788;-1.6679840087890625;0.6100000143051147;0.0;0.0;0.0
147;0.03928399831056595;-1.421787977218628;0.5084959864616394;0.1698240041732788;-1.7421599626541138;0.586575984954834;-92.21624755859375;-41.698123931884766;82.06624603271484
150;0.0;0.0;0.0;0.2088640034198761;-1.8241440057754517;0.5914559960365295;0.0;0.0;0.0
152;0.0;0.0;0.0;0.20495998859405518;-1.9529759883880615;0.5787680149078369;0.0;0.0;0.0
154;0.0;0.0;0.0;0.20105600357055664;-2.0388638973236084;0.5582720041275024;0.0;0.0;0.0
156;0.08857199549674988;-1.7973039150238037;0.44993600249290466;0.21276798844337463;-2.097424030303955;0.5787680149078369;-97.46624755859375;-24.268125534057617;62.32625198364258
158;0.0;0.0;0.0;0.236191987991333;-2.167695999145508;0.5465599894523621;0.0;0.0;0.0
160;0.0;0.0;0.0;0.22448000311851501;-2.2418720722198486;0.5543680191040039;0.0;0.0;0.0
162;0.0;0.0;0.0;0.2088640034198761;-2.3160479068756104;0.5504639744758606;0.0;0.0;0.0
165;0.09516000002622604;-2.0996198654174805;0.4335879981517792;0.21276798844337463;-2.355087995529175;0.5543680191040039;-96.76625061035156;-6.698124885559082;38.45625305175781
167;0.0;0.0;0.0;0.17763200402259827;-2.362895965576172;0.563152015209198;0.0;0.0;0.0
169;0.0;0.0;0.0;0.19715198874473572;-2.460495948791504;0.5670560002326965;0.0;0.0;0.0
171;0.0;0.0;0.0;0.17763200402259827;-2.487823963165283;0.5426560044288635;0.0;0.0;0.0
173;0.08466799557209015;-2.300920009613037;0.43017199635505676;0.19715198874473572;-2.5112478733062744;0.5387519598007202;-90.95624542236328;7.581875324249268;11.926250457763672
175;0.0;0.0;0.0;0.18934398889541626;-2.542479991912842;0.5426560044288635;0.0;0.0;0.0
177;0.0;0.0;0.0;0.2088640034198761;-2.5229599475860596;0.5260639786720276;0.0;0.0;0.0
179;0.0;0.0;0.0;0.19715198874473572;-2.5190558433532715;0.5348479747772217;0.0;0.0;0.0
181;0.08003199845552444;-2.387052059173584;0.4230960011482239;0.20105600357055664;-2.5112478733062744;0.563152015209198;-77.65625;16.821874618530273;-15.09375
184;0.0;0.0;0.0;0.19715198874473572;-2.5034399032592773;0.5328959822654724;0.0;0.0;0.0
186;0.0;0.0;0.0;0.2635200023651123;-2.4370720386505127;0.5416799783706665;0.0;0.0;0.0
188;0.0;0.0;0.0;0.25571200251579285;-2.3980319499969482;0.5494880080223083;0.0;0.0;0.0
190;0.11614400148391724;-2.3023838996887207;0.42504799365997314;0.27132800221443176;-2.386319875717163;0.5338720083236694;-59.876251220703125;20.111873626708984;-40.8537483215332
192;0.0;0.0;0.0;0.3025600016117096;-2.3082399368286133;0.521183967590332;0.0;0.0;0.0
194;0.0;0.0;0.0;0.33769598603248596;-2.2301599979400635;0.5250880122184753;0.0;0.0;0.0
196;0.0;0.0;0.0;0.34940800070762634;-2.18721604347229;0.545583963394165;0.0;0.0;0.0
198;0.19934800267219543;-2.1071839332580566;0.41211599111557007;0.3416000008583069;-2.1169440746307373;0.5289919972419739;-40.34625244140625;25.641874313354492;-64.30374908447266
201;0.0;0.0;0.0;0.3718560039997101;-2.0505759716033936;0.5055679678916931;0.0;0.0;0.0
203;0.0;0.0;0.0;0.387472003698349;-1.9685919284820557;0.5045920014381409;0.0;0.0;0.0
205;0.0;0.0;0.0;0.387472003698349;-1.9139360189437866;0.5172799825668335;0.0;0.0;0.0
207;0.2500999867916107;-1.838539958000183;0.3928399980068207;0.4030880033969879;-1.7851039171218872;0.4928799867630005;-19.766250610351562;35.09187698364258;-84.67375183105469
209;0.0;0.0;0.0;0.3835679888725281;-1.6875039339065552;0.5338720083236694;0.0;0.0;0.0
211;0.0;0.0;0.0;0.4304159879684448;-1.5899039506912231;0.5494880080223083;0.0;0.0;0.0
213;0.0;0.0;0.0;0.4304159879684448;-1.5118240118026733;0.5777919888496399;0.0;0.0;0.0
216;0.2886520028114319;-1.4493600130081177;0.42504799365997314;0.41870400309562683;-1.3907999992370605;0.562175989151001;-1.7062499523162842;50.981876373291016;-98.39375305175781
218;0.0;0.0;0.0;0.37966400384902954;-1.3010079860687256;0.5494880080223083;0.0;0.0;0.0
220;0.0;0.0;0.0;0.37966400384902954;-1.246351957321167;0.5816959738731384;0.0;0.0;0.0
222;0.0;0.0;0.0;0.39528000354766846;-1.1292319297790527;0.6265919804573059;0.0;0.0;0.0
224;0.2549799978733063;-1.087996006011963;0.4894639849662781;0.3337920010089874;-1.0550559759140015;0.6792960166931152;12.363749504089355;79.5418701171875;-106.51375579833984
226;0.0;0.0;0.0;0.3025600016117096;-0.9535520076751709;0.7319999933242798;0.0;0.0;0.0
228;0.0;0.0;0.0;0.2791360020637512;-0.848143994808197;0.8012959957122803;0.0;0.0;0.0
230;0.0;0.0;0.0;0.2518079876899719;-0.7349280118942261;0.8500959873199463;0.0;0.0;0.0
233;0.15396399796009064;-0.7202879786491394;0.6783199906349182;0.20495998859405518;-0.6997919678688049;0.9428159594535828;22.513750076293945;114.1918716430664;-113.58375549316406
235;0.0;0.0;0.0;0.16591998934745789;-0.6334239840507507;0.9428159594535828;0.0;0.0;0.0
237;0.0;0.0;0.0;0.10052800178527832;-0.5826719999313354;0.9838079810142517;0.0;0.0;0.0
239;0.0;0.0;0.0;0.049775999039411545;-0.5006880164146423;1.044319987297058;0.0;0.0;0.0
241;-0.015615999698638916;-0.43090400099754333;0.8742519617080688;0.014639999717473984;-0.41870400309562683;1.0970239639282227;25.52375030517578;137.99188232421875;-115.26375579833984
243;0.0;0.0;0.0;0.02635199949145317;-0.3718560039997101;1.1419199705123901;0.0;0.0;0.0
245;0.0;0.0;0.0;-0.05563199892640114;-0.30158400535583496;1.2112159729003906;0.0;0.0;0.0
247;0.0;0.0;0.0;-0.09857599437236786;-0.21959999203681946;1.2883199453353882;0.0;0.0;0.0
250;-0.15518400073051453;-0.15152399241924286;1.0945839881896973;-0.12492799758911133;-0.19227199256420135;1.3537119626998901;29.653749465942383;148.56187438964844;-114.4937515258789
252;0.0;0.0;0.0;-0.16787199676036835;-0.14932799339294434;1.4269119501113892;0.0;0.0;0.0
254;0.0;0.0;0.0;-0.1756799966096878;-0.10247999429702759;1.4757119417190552;0.0;0.0;0.0
256;0.0;0.0;0.0;-0.24595199525356293;-0.07124799489974976;1.5245119333267212;0.0;0.0;0.0
258;-0.3093920052051544;0.03147599846124649;1.3412679433822632;-0.26156800985336304;-0.004879999905824661;1.5772159099578857;28.113750457763672;141.421875;-111.55375671386719
260;0.0;0.0;0.0;-0.28889599442481995;0.0302559994161129;1.6426079273223877;0.0;0.0;0.0
262;0.0;0.0;0.0;-0.3396480083465576;0.08881600201129913;1.6826239824295044;0.0;0.0;0.0
264;0.0;0.0;0.0;-0.3396480083465576;0.09272000193595886;1.6787199974060059;0.0;0.0;0.0
267;-0.436271995306015;0.20495998859405518;1.5247559547424316;-0.374783992767334;0.1239520013332367;1.7197120189666748;22.373748779296875;120.21187591552734;-108.40375518798828
269;0.0;0.0;0.0;-0.3669759929180145;0.13566400110721588;1.7382559776306152;0.0;0.0;0.0
271;0.0;0.0;0.0;-0.35526400804519653;0.15518400073051453;1.7304480075836182;0.0;0.0;0.0
273;0.0;0.0;0.0;-0.40113598108291626;0.20983999967575073;1.767535924911499;0.0;0.0;0.0
275;-0.5053240060806274;0.2979239821434021;1.6077159643173218;-0.4060159921646118;0.20983999967575073;1.7831519842147827;15.44374942779541;84.23187255859375;-103.9937515258789
277;0.0;0.0;0.0;-0.38259199261665344;0.2566879987716675;1.7909599542617798;0.0;0.0;0.0
279;0.0;0.0;0.0;-0.4167519807815552;0.25278398394584656;1.7831519842147827;0.0;0.0;0.0
281;0.0;0.0;0.0;-0.3933279812335968;0.3230559825897217;1.767535924911499;0.0;0.0;0.0
284;-0.522159993648529;0.4152880012989044;1.6384599208831787;-0.40113598108291626;0.35819199681282043;1.767535924911499;8.09375;49.1618766784668;-101.26375579833984
286;0.0;0.0;0.0;-0.38259199261665344;0.4089439809322357;1.7236160039901733;0.0;0.0;0.0
288;0.0;0.0;0.0;-0.38259199261665344;0.45579198002815247;1.7070239782333374;0.0;0.0;0.0
290;0.0;0.0;0.0;-0.31622397899627686;0.4987359941005707;1.6826239824295044;0.0;0.0;0.0
292;-0.48019200563430786;0.5819399952888489;1.5708719491958618;-0.284991979598999;0.49483197927474976;1.6426079273223877;-1.776249885559082;19.83187484741211;-99.65375518798828
294;0.0;0.0;0.0;-0.26156800985336304;0.5494880080223083;1.6299200057983398;0.0;0.0;0.0
296;0.0;0.0;0.0;-0.18348799645900726;0.5690079927444458;1.5899039506912231;0.0;0.0;0.0
298;0.0;0.0;0.0;-0.19129599630832672;0.5807200074195862;1.5567200183868408;0.0;0.0;0.0
301;-0.330375999212265;0.6922279596328735;1.4574120044708252;-0.17958399653434753;0.5533919930458069;1.5450079441070557;-9.336250305175781;5.271874904632568;-97.06375122070312
303;0.0;0.0;0.0;-0.16787199676036835;0.5924319624900818;1.5196319818496704;0.0;0.0;0.0
305;0.0;0.0;0.0;-0.187391996383667;0.6509919762611389;1.5323200225830078;0.0;0.0;0.0
307;0.0;0.0;0.0;-0.16396799683570862;0.6197599768638611;1.4708319902420044;0.0;0.0;0.0
309;-0.30231598019599915;0.7478600144386292;1.3749399185180664;-0.2147199958562851;0.6627039909362793;1.4786399602890015;-12.066250801086426;7.021875381469727;-91.46375274658203
311;0.0;0.0;0.0;-0.21862399578094482;0.6470879912376404;1.4708319902420044;0.0;0.0;0.0
313;0.0;0.0;0.0;-0.2030079960823059;0.7134559750556946;1.4952319860458374;0.0;0.0;0.0
315;0.0;0.0;0.0;-0.13371199369430542;0.7173599600791931;1.4669280052185059;0.0;0.0;0.0
318;-0.30353599786758423;0.8332599997520447;1.3412679433822632;-0.15323199331760406;0.7524960041046143;1.506943941116333;-11.156250953674316;11.361875534057617;-86.21375274658203
320;0.0;0.0;0.0;-0.18348799645900726;0.8266719579696655;1.484495997428894;0.0;0.0;0.0
322;0.0;0.0;0.0;-0.20691199600696564;0.8461920022964478;1.4923039674758911;0.0;0.0;0.0
324;0.0;0.0;0.0;-0.23423999547958374;0.8813279867172241;1.4718079566955566;0.0;0.0;0.0
326;-0.3113439977169037;0.9874680042266846;1.3495639562606812;-0.19910399615764618;0.9476959705352783;1.443503975868225;-6.396250247955322;17.661874771118164;-77.3237533569336
328;0.0;0.0;0.0;-0.26156800985336304;1.002351999282837;1.4561920166015625;0.0;0.0;0.0
330;0.0;0.0;0.0;-0.230335995554924;1.0413919687271118;1.443503975868225;0.0;0.0;0.0
332;0.0;0.0;0.0;-0.2420479953289032;1.150704026222229;1.4757119417190552;0.0;0.0;0.0
335;-0.3647799789905548;1.205847978591919;1.3246759176254272;-0.24985599517822266;1.1858400106430054;1.4230079650878906;6.34375;13.951874732971191;-63.32374954223633
337;0.0;0.0;0.0;-0.27327999472618103;1.2639199495315552;1.435696005821228;0.0;0.0;0.0
339;0.0;0.0;0.0;-0.2810879945755005;1.3420000076293945;1.443503975868225;0.0;0.0;0.0
341;0.0;0.0;0.0;-0.2654719948768616;1.3654239177703857;1.443503975868225;0.0;0.0;0.0
343;-0.3899119794368744;1.4469199180603027;1.3058879375457764;-0.23423999547958374;1.4161759614944458;1.4561920166015625;28.04374885559082;0.5118750333786011;-47.36375045776367
345;0.0;0.0;0.0;-0.24595199525356293;1.4669280052185059;1.4395999908447266;0.0;0.0;0.0
347;0.0;0.0;0.0;-0.23814399540424347;1.4825439453125;1.4317920207977295;0.0;0.0;0.0
349;0.0;0.0;0.0;-0.26156800985336304;1.490351915359497;1.4073920249938965;0.0;0.0;0.0
352;-0.37844398617744446;1.6055200099945068;1.2958840131759644;-0.2693759799003601;1.4786399602890015;1.3790879249572754;47.153751373291016;-16.638126373291016;-25.59375
354;0.0;0.0;0.0;-0.23814399540424347;1.4981600046157837;1.3664000034332275;0.0;0.0;0.0
356;0.0;0.0;0.0;-0.2537599802017212;1.4981600046157837;1.3019839525222778;0.0;0.0;0.0
358;0.0;0.0;0.0;-0.23814399540424347;1.4786399602890015;1.2980799674987793;0.0;0.0;0.0
360;-0.3630719780921936;1.621135950088501;1.1926720142364502;-0.2147199958562851;1.4630240201950073;1.2375680208206177;62.693748474121094;-33.29812240600586;1.0762500762939453
362;0.0;0.0;0.0;-0.19129599630832672;1.5059679746627808;1.2043839693069458;0.0;0.0;0.0
364;0.0;0.0;0.0;-0.17958399653434753;1.5020639896392822;1.1965759992599487;0.0;0.0;0.0
366;0.0;0.0;0.0;-0.1756799966096878;1.5293920040130615;1.1672959327697754;0.0;0.0;0.0
369;-0.3054879903793335;1.6426079273223877;1.0701839923858643;-0.1600639969110489;1.5293920040130615;1.1633919477462769;79.00375366210938;-44.91812515258789;22.776248931884766
371;0.0;0.0;0.0;-0.17177599668502808;1.5176799297332764;1.1389919519424438;0.0;0.0;0.0
373;0.0;0.0;0.0;-0.17177599668502808;1.525488018989563;1.0901919603347778;0.0;0.0;0.0
375;0.0;0.0;0.0;-0.14054399728775024;1.5567200183868408;1.1028800010681152;0.0;0.0;0.0
377;-0.2810879945755005;1.66212797164917;0.9911279678344727;-0.13761599361896515;1.564527988433838;1.0696959495544434;89.36375427246094;-50.23812484741211;39.786251068115234
379;0.0;0.0;0.0;-0.11419199407100677;1.5606240034103394;1.0531039237976074;0.0;0.0;0.0
381;0.0;0.0;0.0;-0.10638399422168732;1.580143928527832;1.0491999387741089;0.0;0.0;0.0
383;0.0;0.0;0.0;-0.11028799414634705;1.564527988433838;1.0374879837036133;0.0;0.0;0.0
386;-0.23960798978805542;1.702143907546997;0.9274439811706543;-0.11419199407100677;1.6074719429016113;1.0374879837036133;90.69375610351562;-49.118125915527344;58.056251525878906
388;0.0;0.0;0.0;-0.12199999392032623;1.5762399435043335;1.0540800094604492;0.0;0.0;0.0
390;0.0;0.0;0.0;-0.09467199444770813;1.564527988433838;1.0091840028762817;0.0;0.0;0.0
392;0.0;0.0;0.0;-0.0907679945230484;1.5918560028076172;1.0579839944839478;0.0;0.0;0.0
394;-0.21545200049877167;1.710439920425415;0.9132919907569885;-0.11419199407100677;1.5450079441070557;1.0296800136566162;80.33375549316406;-34.698123931884766;73.1762466430664
396;0.0;0.0;0.0;-0.11419199407100677;1.5293920040130615;1.0696959495544434;0.0;0.0;0.0
398;0.0;0.0;0.0;-0.10638399422168732;1.4942560195922852;1.0452959537506104;0.0;0.0;0.0
401;0.0;0.0;0.0;-0.11419199407100677;1.4552159309387207;1.0696959495544434;0.0;0.0;0.0
403;-0.2315559983253479;1.6225999593734741;0.929639995098114;-0.13761599361896515;1.4122719764709473;1.0657919645309448;60.243751525878906;-11.528124809265137;85.07624816894531
405;0.0;0.0;0.0;-0.13371199369430542;1.4083679914474487;1.1106879711151123;0.0;0.0;0.0
407;0.0;0.0;0.0;-0.11419199407100677;1.3263839483261108;1.0901919603347778;0.0;0.0;0.0
409;0.0;0.0;0.0;-0.13371199369430542;1.2990559339523315;1.097999930381775;0.0;0.0;0.0
411;-0.2554679811000824;1.483031988143921;0.966484010219574;-0.15615999698638916;1.2756320238113403;1.146799921989441;36.723751068115234;9.82187557220459;95.22624969482422
413;0.0;0.0;0.0;-0.20691199600696564;1.2170720100402832;1.1389919519424438;0.0;0.0;0.0
415;0.0;0.0;0.0;-0.23814399540424347;1.1702239513397217;1.1350879669189453;0.0;0.0;0.0
418;0.0;0.0;0.0;-0.22643199563026428;1.1194720268249512;1.1067839860916138;0.0;0.0;0.0
420;-0.33647599816322327;1.309059977531433;1.0113799571990967;-0.2576639950275421;1.060912013053894;1.146799921989441;14.60374927520752;21.091875076293945;104.95624542236328
422;0.0;0.0;0.0;-0.24595199525356293;1.017967939376831;1.1380159854888916;0.0;0.0;0.0
424;0.0;0.0;0.0;-0.26156800985336304;0.9476959705352783;1.1175199747085571;0.0;0.0;0.0
426;0.0;0.0;0.0;-0.23423999547958374;0.9086560010910034;1.1712000370025635;0.0;0.0;0.0
428;-0.3742959797382355;1.0865319967269897;1.0157719850540161;-0.2810879945755005;0.8305760025978088;1.1175199747085571;-0.7262499332427979;18.221874237060547;115.45624542236328
430;0.0;0.0;0.0;-0.24985599517822266;0.7720159888267517;1.1380159854888916;0.0;0.0;0.0
432;0.0;0.0;0.0;-0.3201279938220978;0.7563999891281128;1.134112000465393;0.0;0.0;0.0
435;0.0;0.0;0.0;-0.3123199939727783;0.6627039909362793;1.134112000465393;0.0;0.0;0.0
437;-0.411871999502182;0.8574159741401672;1.0086959600448608;-0.3201279938220978;0.6158559918403625;1.126304030418396;-7.796249866485596;9.541874885559082;125.60624694824219
439;0.0;0.0;0.0;-0.3357439935207367;0.5963360071182251;1.122399926185608;0.0;0.0;0.0
441;0.0;0.0;0.0;-0.2967039942741394;0.4987359941005707;1.126304030418396;0.0;0.0;0.0
443;0.0;0.0;0.0;-0.3084160089492798;0.4714079797267914;1.122399926185608;0.0;0.0;0.0
445;-0.43309998512268066;0.6451359987258911;0.9911279678344727;-0.31622397899627686;0.3777119815349579;1.0892159938812256;-9.616250038146973;-0.46812498569488525;133.65625
447;0.0;0.0;0.0;-0.3201279938220978;0.3152479827404022;1.0931199789047241;0.0;0.0;0.0
449;0.0;0.0;0.0;-0.3123199939727783;0.27620798349380493;1.0931199789047241;0.0;0.0;0.0
452;0.0;0.0;0.0;-0.30451199412345886;0.19422399997711182;1.0531039237976074;0.0;0.0;0.0
454;-0.4409079849720001;0.3996720016002655;0.9454999566078186;-0.29280000925064087;0.11614400148391724;1.0043039321899414;-8.006250381469727;-11.388124465942383;139.46624755859375
456;0.0;0.0;0.0;-0.24985599517822266;0.053679998964071274;0.9964959621429443;0.0;0.0;0.0
458;0.0;0.0;0.0;-0.2810879945755005;-0.004879999905824661;1.0052800178527832;0.0;0.0;0.0
460;0.0;0.0;0.0;-0.23423999547958374;-0.020495999604463577;0.9925919771194458;0.0;0.0;0.0
462;-0.3806400001049042;0.1546960026025772;0.8732759952545166;-0.2420479953289032;-0.07515199482440948;0.9769759774208069;-3.2462499141693115;-20.138126373291016;142.68624877929688
464;0.0;0.0;0.0;-0.21081599593162537;-0.13371199369430542;0.9847840070724487;0.0;0.0;0.0
466;0.0;0.0;0.0;-0.17177599668502808;-0.13371199369430542;1.0091840028762817;0.0;0.0;0.0
469;0.0;0.0;0.0;-0.2147199958562851;-0.17665599286556244;0.9720959663391113;0.0;0.0;0.0
471;-0.33671998977661133;-0.00878399983048439;0.8698599934577942;-0.23423999547958374;-0.2235039919614792;0.9886879920959473;0.8137500286102295;-21.888126373291016;143.31625366210938
473;0.0;0.0;0.0;-0.21862399578094482;-0.24692799150943756;0.9555040001869202;0.0;0.0;0.0
475;0.0;0.0;0.0;-0.2654719948768616;-0.3172000050544739;0.9428159594535828;0.0;0.0;0.0
477;0.0;0.0;0.0;-0.26156800985336304;-0.39137598872184753;0.9594079852104187;0.0;0.0;0.0
479;-0.37209999561309814;-0.19471199810504913;0.8332599997520447;-0.2576639950275421;-0.5006880164146423;0.9184159636497498;-0.5862500667572021;-22.238126754760742;144.15625
481;0.0;0.0;0.0;-0.27327999472618103;-0.5475360155105591;0.8988959789276123;0.0;0.0;0.0
483;0.0;0.0;0.0;-0.2810879945755005;-0.5514400005340576;0.9232959747314453;0.0;0.0;0.0
486;0.0;0.0;0.0;-0.2576639950275421;-0.7075999975204468;0.8901119828224182;0.0;0.0;0.0
488;-0.37917599081993103;-0.4706760048866272;0.7837280035018921;-0.26156800985336304;-0.7895839810371399;0.8657119870185852;-2.896250009536743;-24.618125915527344;143.87625122070312
490;0.0;0.0;0.0;-0.22643199563026428;-0.8793759942054749;0.8657119870185852;0.0;0.0;0.0
492;0.0;0.0;0.0;-0.20691199600696564;-0.9535520076751709;0.8862079977989197;0.0;0.0;0.0
494;0.0;0.0;0.0;-0.17177599668502808;-1.0433440208435059;0.8901119828224182;0.0;0.0;0.0
496;-0.3193959891796112;-0.8291119933128357;0.7607919573783875;-0.14054399728775024;-1.1760799884796143;0.9067040085792542;-6.676249980926514;-19.64812660217285;140.93624877929688
498;0.0;0.0;0.0;-0.1454239934682846;-1.2619680166244507;0.9067040085792542;0.0;0.0;0.0
500;0.0;0.0;0.0;-0.1298079937696457;-1.3283360004425049;0.9223200082778931;0.0;0.0;0.0
503;0.0;0.0;0.0;-0.1756799966096878;-1.4493600130081177;0.9555040001869202;0.0;0.0;0.0
505;-0.2642520070075989;-1.2168279886245728;0.8047119975090027;-0.10638399422168732;-1.531343936920166;0.9594079852104187;-14.516250610351562;-3.6881251335144043;131.6962432861328
507;0.0;0.0;0.0;-0.07905599474906921;-1.6835999488830566;0.9886879920959473;0.0;0.0;0.0
509;0.0;0.0;0.0;-0.04001599922776222;-1.7655839920043945;1.0169919729232788;0.0;0.0;0.0
511;0.0;0.0;0.0;-0.07515199482440948;-1.8631839752197266;1.0540800094604492;0.0;0.0;0.0
513;-0.19739599525928497;-1.609179973602295;0.8945040106773376;-0.0634399950504303;-1.9334559440612793;1.0862879753112793;-28.236249923706055;7.79187536239624;115.94625091552734
515;0.0;0.0;0.0;-0.028303999453783035;-2.0310559272766113;1.1145919561386108;0.0;0.0;0.0
517;0.0;0.0;0.0;-0.04001599922776222;-2.081807851791382;1.1389919519424438;0.0;0.0;0.0
520;0.0;0.0;0.0;-0.020495999604463577;-2.191119909286499;1.1516799926757812;0.0;0.0;0.0
522;-0.1559159904718399;-1.9624919891357422;0.9969840049743652;0.010735999792814255;-2.2379679679870605;1.1956000328063965;-47.626251220703125;19.901874542236328;91.58625030517578
524;0.0;0.0;0.0;-0.024399999529123306;-2.3121440410614014;1.2121919393539429;0.0;0.0;0.0
526;0.0;0.0;0.0;-0.04001599922776222;-2.390223979949951;1.2248799800872803;0.0;0.0;0.0
528;0.0;0.0;0.0;-0.04782399907708168;-2.4409759044647217;1.2570879459381104;0.0;0.0;0.0
530;-0.15054799616336823;-2.2413840293884277;1.0906800031661987;-0.05563199892640114;-2.5073440074920654;1.2531839609146118;-68.83625030517578;32.08187484741211;61.136253356933594
532;0.0;0.0;0.0;-0.0907679945230484;-2.562000036239624;1.2365919351577759;0.0;0.0;0.0
534;0.0;0.0;0.0;-0.1180959939956665;-2.6244640350341797;1.2326879501342773;0.0;0.0;0.0
537;0.0;0.0;0.0;-0.13371199369430542;-2.647887945175171;1.2365919351577759;0.0;0.0;0.0
539;-0.23594799637794495;-2.4709880352020264;1.1009279489517212;-0.1483519971370697;-2.6791200637817383;1.2414720058441162;-82.55624389648438;29.701873779296875;28.72624969482422
541;0.0;0.0;0.0;-0.1298079937696457;-2.6830239295959473;1.2004799842834473;0.0;0.0;0.0
543;0.0;0.0;0.0;-0.14444799721240997;-2.7220640182495117;1.1799839735031128;0.0;0.0;0.0
545;0.0;0.0;0.0;-0.09467199444770813;-2.729871988296509;1.122399926185608;0.0;0.0;0.0
547;-0.2500999867916107;-2.574687957763672;1.0289479494094849;-0.06734399497509003;-2.737679958343506;1.0540800094604492;-82.69624328613281;5.20187520980835;-3.543750047683716
549;0.0;0.0;0.0;-0.05953599885106087;-2.745487928390503;1.0052800178527832;0.0;0.0;0.0
551;0.0;0.0;0.0;-0.04391999915242195;-2.7220640182495117;0.9242720007896423;0.0;0.0;0.0
554;0.0;0.0;0.0;0.018543999642133713;-2.6869280338287354;0.8666880130767822;0.0;0.0;0.0
556;-0.14591199159622192;-2.566635847091675;0.8125199675559998;0.07320000231266022;-2.6361758708953857;0.8100799918174744;-68.90625;-31.268125534057617;-32.17374801635742
558;0.0;0.0;0.0;0.06148799881339073;-2.6010398864746094;0.708575963973999;0.0;0.0;0.0
560;0.0;0.0;0.0;0.1268799901008606;-2.558095932006836;0.6314719915390015;0.0;0.0;0.0
562;0.0;0.0;0.0;0.19324800372123718;-2.460495948791504;0.5582720041275024;0.0;0.0;0.0
564;0.012443999759852886;-2.387295961380005;0.5167919993400574;0.21667200326919556;-2.36680006980896;0.5016639828681946;-44.966251373291016;-61.15812301635742;-57.79375076293945
566;0.0;0.0;0.0;0.24009600281715393;-2.3316638469696045;0.42455998063087463;0.0;0.0;0.0
569;0.0;0.0;0.0;0.3445279896259308;-2.2457759380340576;0.3357439935207367;0.0;0.0;0.0
571;0.0;0.0;0.0;0.4108960032463074;-2.1637918949127197;0.2791360020637512;0.0;0.0;0.0
573;0.21618399024009705;-2.1047439575195312;0.2332639992237091;0.42260798811912537;-2.08571195602417;0.2420479953289032;-17.806249618530273;-68.8581314086914;-79.63375091552734
575;0.0;0.0;0.0;0.4928799867630005;-1.9724959135055542;0.20105600357055664;0.0;0.0;0.0
577;0.0;0.0;0.0;0.5241119861602783;-1.8709919452667236;0.1600639969110489;0.0;0.0;0.0
579;0.0;0.0;0.0;0.5709599852561951;-1.7929120063781738;0.13566400110721588;0.0;0.0;0.0
581;0.3974759876728058;-1.7445999383926392;0.04636000096797943;0.586575984954834;-1.671887993812561;0.13176000118255615;9.84375;-47.22812271118164;-96.43375396728516
584;0.0;0.0;0.0;0.6178079843521118;-1.5859999656677246;0.10735999792814255;0.0;0.0;0.0
585;0.0;0.0;0.0;0.6012159585952759;-1.4649759531021118;0.09564799815416336;0.0;0.0;0.0
588;0.0;0.0;0.0;0.6129279732704163;-1.3829920291900635;0.10345599800348282;0.0;0.0;0.0
590;0.4887319803237915;-1.348587989807129;-0.009027999825775623;0.6012159585952759;-1.3088159561157227;0.10735999792814255;32.03375244140625;0.44187498092651367;-109.38375091552734
592;0.0;0.0;0.0;0.586575984954834;-1.246351957321167;0.12883199751377106;0.0;0.0;0.0
594;0.0;0.0;0.0;0.5904799699783325;-1.1136159896850586;0.1571359932422638;0.0;0.0;0.0
596;0.0;0.0;0.0;0.5202080011367798;-1.051151990890503;0.18544000387191772;0.0;0.0;0.0
598;0.440420001745224;-0.9923479557037354;0.05026400089263916;0.5084959864616394;-0.9496479630470276;0.230335995554924;48.83374786376953;65.26187133789062;-117.64375305175781
601;0.0;0.0;0.0;0.47336000204086304;-0.8793759942054749;0.30743998289108276;0.0;0.0;0.0
603;0.0;0.0;0.0;0.4382239878177643;-0.7973920106887817;0.3845439851284027;0.0;0.0;0.0
605;0.0;0.0;0.0;0.36795198917388916;-0.7427359819412231;0.45286399126052856;0.0;0.0;0.0
607;0.30451199412345886;-0.6631919741630554;0.26571598649024963;0.3484320044517517;-0.6490399837493896;0.5465599894523621;61.43375015258789;125.39187622070312;-120.7237548828125
609;0.0;0.0;0.0;0.27132800221443176;-0.586575984954834;0.6509919762611389;0.0;0.0;0.0
611;0.0;0.0;0.0;0.20495998859405518;-0.5319200158119202;0.7446879744529724;0.0;0.0;0.0
613;0.0;0.0;0.0;0.13078400492668152;-0.4811680018901825;0.8579039573669434;0.0;0.0;0.0
615;0.08881600201129913;-0.39235198497772217;0.6334239840507507;0.06148799881339073;-0.39528000354766846;0.9711199998855591;64.93375396728516;169.3518829345703;-121.28375244140625
617;0.0;0.0;0.0;0.03806399926543236;-0.32891198992729187;1.0814080238342285;0.0;0.0;0.0
620;0.0;0.0;0.0;-0.08686399459838867;-0.3093920052051544;1.1790080070495605;0.0;0.0;0.0
622;0.0;0.0;0.0;-0.13761599361896515;-0.19227199256420135;1.2883199453353882;0.0;0.0;0.0
624;-0.1920280009508133;-0.1424959897994995;1.056764006614685;-0.21862399578094482;-0.1844639927148819;1.3859199285507202;55.27375030517578;194.1318817138672;-124.15375518798828
626;0.0;0.0;0.0;-0.30451199412345886;-0.1454239934682846;1.4718079566955566;0.0;0.0;0.0
628;0.0;0.0;0.0;-0.3630719780921936;-0.05953599885106087;1.5655039548873901;0.0;0.0;0.0
630;0.0;0.0;0.0;-0.4323679804801941;-0.020495999604463577;1.6055200099945068;0.0;0.0;0.0
632;-0.47262799739837646;0.0663679987192154;1.407148003578186;-0.4635999798774719;0.006831999868154526;1.6787199974060059;36.653751373291016;190.07188415527344;-129.19375610351562
635;0.0;0.0;0.0;-0.4987359941005707;0.053679998964071274;1.7441120147705078;0.0;0.0;0.0
637;0.0;0.0;0.0;-0.4909279942512512;0.10443200170993805;1.800719976425171;0.0;0.0;0.0
639;0.0;0.0;0.0;-0.545583963394165;0.17470400035381317;1.840735912322998;0.0;0.0;0.0
641;-0.6353759765625;0.25351598858833313;1.6460239887237549;-0.5533919930458069;0.19422399997711182;1.881727933883667;20.483749389648438;150.31187438964844;-132.06375122070312
643;0.0;0.0;0.0;-0.5729119777679443;0.2879199981689453;1.881727933883667;0.0;0.0;0.0
645;0.0;0.0;0.0;-0.5963360071182251;0.3230559825897217;1.8534239530563354;0.0;0.0;0.0
647;0.0;0.0;0.0;-0.6158559918403625;0.38551998138427734;1.865135908126831;0.0;0.0;0.0
649;-0.7122359871864319;0.46164798736572266;1.7350839376449585;-0.5924319624900818;0.4440799951553345;1.8690400123596191;9.00374984741211;89.06187438964844;-129.96376037597656
652;0.0;0.0;0.0;-0.5416799783706665;0.4753119945526123;1.8446400165557861;0.0;0.0;0.0
654;0.0;0.0;0.0;-0.522159993648529;0.49483197927474976;1.8202400207519531;0.0;0.0;0.0
656;0.0;0.0;0.0;-0.46750399470329285;0.5533919930458069;1.759727954864502;0.0;0.0;0.0
658;-0.6317160129547119;0.6402559876441956;1.6684719324111938;-0.4323679804801941;0.5963360071182251;1.7519199848175049;-0.026250004768371582;29.631874084472656;-124.15375518798828
660;0.0;0.0;0.0;-0.3513599932193756;0.6041439771652222;1.66212797164917;0.0;0.0;0.0
662;0.0;0.0;0.0;-0.34355199337005615;0.6744160056114197;1.6250399351119995;0.0;0.0;0.0
664;0.0;0.0;0.0;-0.2967039942741394;0.6939359903335571;1.5518399477005005;0.0;0.0;0.0
666;-0.45481598377227783;0.7908039689064026;1.4891319274902344;-0.2693759799003601;0.7290719747543335;1.5196319818496704;-4.856249809265137;-5.29812479019165;-117.08375549316406
669;0.0;0.0;0.0;-0.27718400955200195;0.7915359735488892;1.4591199159622192;0.0;0.0;0.0
671;0.0;0.0;0.0;-0.23423999547958374;0.8110559582710266;1.4181280136108398;0.0;0.0;0.0
673;0.0;0.0;0.0;-0.17958399653434753;0.8500959873199463;1.3976320028305054;0.0;0.0;0.0
675;-0.3525799810886383;0.9435479640960693;1.2980799674987793;-0.19129599630832672;0.8774240016937256;1.3537119626998901;-2.476249933242798;-16.14812660217285;-107.70375061035156
677;0.0;0.0;0.0;-0.16396799683570862;0.9437919855117798;1.3302879333496094;0.0;0.0;0.0
679;0.0;0.0;0.0;-0.11419199407100677;0.986735999584198;1.3058879375457764;0.0;0.0;0.0
681;0.0;0.0;0.0;-0.13663999736309052;1.0765279531478882;1.285391926765442;0.0;0.0;0.0
683;-0.2571759819984436;1.1348439455032349;1.1831560134887695;-0.10247999429702759;1.1428959369659424;1.2658720016479492;5.503749847412109;-6.768125057220459;-94.61375427246094
686;0.0;0.0;0.0;-0.05563199892640114;1.1663199663162231;1.2736799716949463;0.0;0.0;0.0
688;0.0;0.0;0.0;-0.09467199444770813;1.2444000244140625;1.2531839609146118;0.0;0.0;0.0
690;0.0;0.0;0.0;-0.11419199407100677;1.345903992652893;1.3058879375457764;0.0;0.0;0.0
692;-0.2205759882926941;1.393239974975586;1.1480200290679932;-0.14054399728775024;1.3810399770736694;1.2932000160217285;21.463748931884766;15.421875;-80.54375457763672
694;0.0;0.0;0.0;-0.21862399578094482;1.4864479303359985;1.3488320112228394;0.0;0.0;0.0
696;0.0;0.0;0.0;-0.26156800985336304;1.5176799297332764;1.3332159519195557;0.0;0.0;0.0
698;0.0;0.0;0.0;-0.29280000925064087;1.5411039590835571;1.3693280220031738;0.0;0.0;0.0
700;-0.3596560060977936;1.6482199430465698;1.2217079401016235;-0.2537599802017212;1.6152799129486084;1.4064159393310547;41.903751373291016;23.891874313354492;-60.1037483215332
703;0.0;0.0;0.0;-0.230335995554924;1.6387039422988892;1.4308159351348877;0.0;0.0;0.0
705;0.0;0.0;0.0;-0.27327999472618103;1.669935941696167;1.4708319902420044;0.0;0.0;0.0
707;0.0;0.0;0.0;-0.3084160089492798;1.6582239866256714;1.4464319944381714;0.0;0.0;0.0
709;-0.4030880033969879;1.789739966392517;1.3166239261627197;-0.35916799306869507;1.7011679410934448;1.4552159309387207;58.07374954223633;15.421875;-32.873748779296875
711;0.0;0.0;0.0;-0.3474559783935547;1.7519199848175049;1.5079200267791748;0.0;0.0;0.0
713;0.0;0.0;0.0;-0.4021120071411133;1.7909599542617798;1.508895993232727;0.0;0.0;0.0
715;0.0;0.0;0.0;-0.4050399959087372;1.8339039087295532;1.5206079483032227;0.0;0.0;0.0
717;-0.5001999735832214;1.9161319732666016;1.37664794921875;-0.4167519807815552;1.865135908126831;1.5489119291305542;70.11375427246094;-0.9581249952316284;-10.053750038146973
720;0.0;0.0;0.0;-0.4323679804801941;1.9041759967803955;1.5245119333267212;0.0;0.0;0.0
722;0.0;0.0;0.0;-0.4050399959087372;1.9119839668273926;1.5167039632797241;0.0;0.0;0.0
724;0.0;0.0;0.0;-0.4167519807815552;1.9588319063186646;1.5001119375228882;0.0;0.0;0.0
726;-0.5448520183563232;2.0500879287719727;1.378600001335144;-0.40113598108291626;1.9822559356689453;1.5040159225463867;71.58375549316406;-25.108125686645508;11.7162504196167
728;0.0;0.0;0.0;-0.37088000774383545;1.997871994972229;1.4317920207977295;0.0;0.0;0.0
730;0.0;0.0;0.0;-0.374783992767334;1.9783519506454468;1.394703984260559;0.0;0.0;0.0
732;0.0;0.0;0.0;-0.34355199337005615;2.0212960243225098;1.3664000034332275;0.0;0.0;0.0
734;-0.48311999440193176;2.1249959468841553;1.2724599838256836;-0.3357439935207367;2.0134880542755127;1.3263839483261108;65.98375701904297;-47.858123779296875;33.41625213623047
737;0.0;0.0;0.0;-0.3240320086479187;2.033007860183716;1.313696026802063;0.0;0.0;0.0
739;0.0;0.0;0.0;-0.3240320086479187;2.056432008743286;1.285391926765442;0.0;0.0;0.0
741;0.0;0.0;0.0;-0.28889599442481995;2.052527904510498;1.2453759908676147;0.0;0.0;0.0
743;-0.4382239878177643;2.1764800548553467;1.1494839191436768;-0.2810879945755005;2.0720479488372803;1.2492799758911133;57.23374938964844;-61.578125;54.83625030517578
745;0.0;0.0;0.0;-0.3084160089492798;2.0798559188842773;1.1799839735031128;0.0;0.0;0.0
747;0.0;0.0;0.0;-0.3201279938220978;2.0759520530700684;1.1350879669189453;0.0;0.0;0.0
749;0.0;0.0;0.0;-0.30060797929763794;2.048624038696289;1.1428959369659424;0.0;0.0;0.0
751;-0.43432000279426575;2.171599864959717;1.038219928741455;-0.30451199412345886;2.0095839500427246;1.1184959411621094;43.723751068115234;-67.94812774658203;77.44625091552734
754;0.0;0.0;0.0;-0.284991979598999;1.9666399955749512;1.1067839860916138;0.0;0.0;0.0
756;0.0;0.0;0.0;-0.24595199525356293;1.9197919368743896;1.097999930381775;0.0;0.0;0.0
758;0.0;0.0;0.0;-0.27327999472618103;1.8768479824066162;1.0775039196014404;0.0;0.0;0.0
760;-0.3908880054950714;2.052772045135498;0.9694119691848755;-0.2693759799003601;1.8456159830093384;1.0413919687271118;24.54374885559082;-65.84812927246094;96.48624420166016
762;0.0;0.0;0.0;-0.2654719948768616;1.8143839836120605;1.0247999429702759;0.0;0.0;0.0
764;0.0;0.0;0.0;-0.2576639950275421;1.759727954864502;0.9925919771194458;0.0;0.0;0.0
766;0.0;0.0;0.0;-0.2810879945755005;1.7441120147705078;0.9808799624443054;0.0;0.0;0.0
768;-0.39869600534439087;1.8917319774627686;0.8779119849205017;-0.27718400955200195;1.6582239866256714;1.0052800178527832;3.6837501525878906;-58.078125;112.65625
771;0.0;0.0;0.0;-0.284991979598999;1.6387039422988892;0.9603840112686157;0.0;0.0;0.0
773;0.0;0.0;0.0;-0.27718400955200195;1.5957599878311157;0.9525759816169739;0.0;0.0;0.0
775;0.0;0.0;0.0;-0.2537599802017212;1.5020639896392822;0.9359839558601379;0.0;0.0;0.0
777;-0.3850319981575012;1.6975079774856567;0.8252080082893372;-0.23814399540424347;1.4669280052185059;0.9564799666404724;-14.726250648498535;-49.39812469482422;127.70625305175781
779;0.0;0.0;0.0;-0.2967039942741394;1.3888479471206665;0.9398880004882812;0.0;0.0;0.0
781;0.0;0.0;0.0;-0.2810879945755005;1.3146719932556152;0.9476959705352783;0.0;0.0;0.0
783;0.0;0.0;0.0;-0.28889599442481995;1.3224799633026123;0.9603840112686157;0.0;0.0;0.0
785;-0.39869600534439087;1.46424400806427;0.8274039626121521;-0.30451199412345886;1.2092639207839966;0.9642879962921143;-31.946250915527344;-37.358123779296875;141.7062530517578
788;0.0;0.0;0.0;-0.3474559783935547;1.1389919519424438;0.9847840070724487;0.0;0.0;0.0
790;0.0;0.0;0.0;-0.3513599932193756;1.060912013053894;1.0052800178527832;0.0;0.0;0.0
792;0.0;0.0;0.0;-0.3786879777908325;0.9750239849090576;1.0091840028762817;0.0;0.0;0.0
794;-0.47384798526763916;1.1887680292129517;0.8610759973526001;-0.35916799306869507;0.8891359567642212;0.9847840070724487;-49.866249084472656;-29.588125228881836;153.81625366210938
796;0.0;0.0;0.0;-0.40113598108291626;0.822767972946167;1.0169919729232788;0.0;0.0;0.0
798;0.0;0.0;0.0;-0.4050399959087372;0.732975959777832;0.9964959621429443;0.0;0.0;0.0
800;0.0;0.0;0.0;-0.3903999924659729;0.6431840062141418;1.0003999471664429;0.0;0.0;0.0
802;-0.5165479779243469;0.8493639826774597;0.876691997051239;-0.39820799231529236;0.5651040077209473;0.9808799624443054;-65.47624969482422;-30.568126678466797;163.26625061035156
805;0.0;0.0;0.0;-0.4323679804801941;0.4753119945526123;0.9769759774208069;0.0;0.0;0.0
807;0.0;0.0;0.0;-0.4596959948539734;0.3542879819869995;0.9398880004882812;0.0;0.0;0.0
809;0.0;0.0;0.0;-0.4596959948539734;0.30353599786758423;0.9281759858131409;0.0;0.0;0.0
811;-0.5641279816627502;0.5048359632492065;0.8281359672546387;-0.4714079797267914;0.1903200000524521;0.9193919897079468;-73.5262451171875;-41.55812454223633;170.4762420654297
813;0.0;0.0;0.0;-0.4987359941005707;0.0849120020866394;0.84716796875;0.0;0.0;0.0
815;0.0;0.0;0.0;-0.447983980178833;-0.03611199930310249;0.8754720091819763;0.0;0.0;0.0
817;0.0;0.0;0.0;-0.4635999798774719;-0.13371199369430542;0.8383839726448059;0.0;0.0;0.0
819;-0.5785239934921265;0.09345199912786484;0.7298039793968201;-0.447983980178833;-0.29767999053001404;0.8061760067939758;-71.70624542236328;-61.368125915527344;176.00624084472656
822;0.0;0.0;0.0;-0.39820799231529236;-0.39137598872184753;0.7944639921188354;0.0;0.0;0.0
824;0.0;0.0;0.0;-0.4167519807815552;-0.35624000430107117;0.8266719579696655;0.0;0.0;0.0
826;0.0;0.0;0.0;-0.374783992767334;-0.6178079843521118;0.7124800086021423;0.0;0.0;0.0
828;-0.5148400068283081;-0.3337920010089874;0.6502599716186523;-0.3816159963607788;-0.7115039825439453;0.708575963973999;-66.1762466430664;-72.078125;176.91624450683594
830;0.0;0.0;0.0;-0.32793599367141724;-0.8051999807357788;0.732975959777832;0.0;0.0;0.0
832;0.0;0.0;0.0;-0.30451199412345886;-0.9145119786262512;0.676367998123169;0.0;0.0;0.0
834;0.0;0.0;0.0;-0.3084160089492798;-1.0082080364227295;0.676367998123169;0.0;0.0;0.0
836;-0.4472520053386688;-0.7734799981117249;0.5753520131111145;-0.28889599442481995;-1.1175199747085571;0.6685599684715271;-60.92625045776367;-67.87812805175781;171.9462432861328
839;0.0;0.0;0.0;-0.28889599442481995;-1.23854398727417;0.676367998123169;0.0;0.0;0.0
841;0.0;0.0;0.0;-0.28889599442481995;-1.3400479555130005;0.6441599726676941;0.0;0.0;0.0
843;0.0;0.0;0.0;-0.23814399540424347;-1.4923039674758911;0.6353759765625;0.0;0.0;0.0
845;-0.387472003698349;-1.2168279886245728;0.52947998046875;-0.22252799570560455;-1.5664799213409424;0.6275680065155029;-55.74625015258789;-57.02812576293945;164.31625366210938
847;0.0;0.0;0.0;-0.19910399615764618;-1.679695963859558;0.6441599726676941;0.0;0.0;0.0
849;0.0;0.0;0.0;-0.1571359932422638;-1.7733919620513916;0.6646559834480286;0.0;0.0;0.0
851;0.0;0.0;0.0;-0.11028799414634705;-1.8787999153137207;0.684175968170166;0.0;0.0;0.0
853;-0.2769399881362915;-1.6255279779434204;0.5536360144615173;-0.08295999467372894;-1.9139360189437866;0.7612800002098083;-51.82625198364258;-36.65812301635742;150.87625122070312
856;0.0;0.0;0.0;-0.05563199892640114;-2.019343852996826;0.8022719621658325;0.0;0.0;0.0
858;0.0;0.0;0.0;-0.05953599885106087;-2.093519926071167;0.8422879576683044;0.0;0.0;0.0
860;0.0;0.0;0.0;-0.0634399950504303;-2.18721604347229;0.8793759942054749;0.0;0.0;0.0
862;-0.1920280009508133;-1.9446799755096436;0.7122359871864319;-0.06734399497509003;-2.2418720722198486;0.8998720049858093;-55.88624954223633;-3.1281251907348633;128.4762420654297
864;0.0;0.0;0.0;-0.05953599885106087;-2.3082399368286133;0.9603840112686157;0.0;0.0;0.0
866;0.0;0.0;0.0;-0.0907679945230484;-2.39412784576416;1.0208959579467773;0.0;0.0;0.0
868;0.0;0.0;0.0;-0.10247999429702759;-2.460495948791504;1.0540800094604492;0.0;0.0;0.0
870;-0.21569599211215973;-2.2496800422668457;0.8862079977989197;-0.12199999392032623;-2.5346720218658447;1.1106879711151123;-66.80624389648438;27.60187339782715;100.7562484741211
873;0.0;0.0;0.0;-0.16396799683570862;-2.6088478565216064;1.1633919477462769;0.0;0.0;0.0
875;0.0;0.0;0.0;-0.19129599630832672;-2.6986398696899414;1.2004799842834473;0.0;0.0;0.0
877;0.0;0.0;0.0;-0.2147199958562851;-2.7923359870910645;1.2365919351577759;0.0;0.0;0.0
879;-0.31671199202537537;-2.5600478649139404;1.0640839338302612;-0.26156800985336304;-2.8704159259796143;1.2736799716949463;-75.69624328613281;39.50187683105469;69.6762466430664
881;0.0;0.0;0.0;-0.27327999472618103;-2.9680159091949463;1.297104001045227;0.0;0.0;0.0
883;0.0;0.0;0.0;-0.2967039942741394;-2.9875359535217285;1.313696026802063;0.0;0.0;0.0
885;0.0;0.0;0.0;-0.27327999472618103;-3.0695199966430664;1.285391926765442;0.0;0.0;0.0
887;-0.4043079912662506;-2.855043888092041;1.1597319841384888;-0.29280000925064087;-3.0851359367370605;1.285391926765442;-79.61624908447266;25.221874237060547;34.60625076293945
890;0.0;0.0;0.0;-0.28889599442481995;-3.128079891204834;1.2570879459381104;0.0;0.0;0.0
892;0.0;0.0;0.0;-0.27718400955200195;-3.1788320541381836;1.1965759992599487;0.0;0.0;0.0
894;0.0;0.0;0.0;-0.2576639950275421;-3.1554079055786133;1.1389919519424438;0.0;0.0;0.0
896;-0.39991599321365356;-3.0116920471191406;1.0728679895401;-0.22252799570560455;-3.210063934326172;1.073599934577942;-74.43624877929688;-16.428125381469727;-1.5137500762939453
898;0.0;0.0;0.0;-0.1756799966096878;-3.1827359199523926;0.9847840070724487;0.0;0.0;0.0
900;0.0;0.0;0.0;-0.1180959939956665;-3.1905438899993896;0.8871839642524719;0.0;0.0;0.0
902;0.0;0.0;0.0;-0.07124799489974976;-3.120271921157837;0.798367977142334;0.0;0.0;0.0
904;-0.23472799360752106;-3.0204758644104004;0.7603039741516113;0.010735999792814255;-3.11246395111084;0.676367998123169;-58.40625;-71.65812683105469;-35.81374740600586
907;0.0;0.0;0.0;0.10345599800348282;-3.0539040565490723;0.5748639702796936;0.0;0.0;0.0
909;0.0;0.0;0.0;0.19715198874473572;-2.9758238792419434;0.48604798316955566;0.0;0.0;0.0
911;0.0;0.0;0.0;0.2752319872379303;-2.9094560146331787;0.39235198497772217;0.0;0.0;0.0
913;0.07368800044059753;-2.834059953689575;0.37088000774383545;0.3757599890232086;-2.8196640014648438;0.32793599367141724;-35.58625030517578;-105.25812530517578;-66.68375396728516
915;0.0;0.0;0.0;0.4304159879684448;-2.7337758541107178;0.2508319914340973;0.0;0.0;0.0
917;0.0;0.0;0.0;0.5006880164146423;-2.640079975128174;0.17763200402259827;0.0;0.0;0.0
919;0.0;0.0;0.0;0.5319200158119202;-2.6049439907073975;0.07222399860620499;0.0;0.0;0.0
921;0.37917599081993103;-2.5068559646606445;0.058559998869895935;0.5934079885482788;-2.483919858932495;0.019519999623298645;-12.766250610351562;-95.59812927246094;-94.96375274658203
924;0.0;0.0;0.0;0.6012159585952759;-2.378511905670166;-0.04196799919009209;0.0;0.0;0.0
926;0.0;0.0;0.0;0.6675840020179749;-2.280911922454834;-0.0663679987192154;0.0;0.0;0.0
928;0.0;0.0;0.0;0.7261439561843872;-2.195024013519287;-0.07027199864387512;0.0;0.0;0.0
930;0.5431439876556396;-2.130607843399048;-0.15908800065517426;0.7105280160903931;-2.019343852996826;-0.062463998794555664;11.453749656677246;-46.66812515258789;-119.04375457763672
932;0.0;0.0;0.0;0.7144320011138916;-1.9529759883880615;-0.08588799834251404;0.0;0.0;0.0
934;0.0;0.0;0.0;0.7144320011138916;-1.8358559608459473;-0.0663679987192154;0.0;0.0;0.0
936;0.0;0.0;0.0;0.6949119567871094;-1.7577760219573975;-0.013663999736309052;0.0;0.0;0.0
938;0.5858439803123474;-1.7106839418411255;-0.16445599496364594;0.6636799573898315;-1.679695963859558;0.0029279999434947968;36.373748779296875;28.721874237060547;-135.98374938964844
941;0.0;0.0;0.0;0.6060959696769714;-1.523535966873169;0.09662400186061859;0.0;0.0;0.0
943;0.0;0.0;0.0;0.5319200158119202;-1.4571679830551147;0.14932799339294434;0.0;0.0;0.0
945;0.0;0.0;0.0;0.46164798736572266;-1.3595679998397827;0.25863999128341675;0.0;0.0;0.0
947;0.4199239909648895;-1.3354120254516602;0.062463998794555664;0.387472003698349;-1.285391926765442;0.37673598527908325;56.463748931884766;117.55187225341797;-147.0437469482422
949;0.0;0.0;0.0;0.30646398663520813;-1.2190239429473877;0.4811680018901825;0.0;0.0;0.0
951;0.0;0.0;0.0;0.2518079876899719;-1.1643680334091187;0.5992639660835266;0.0;0.0;0.0
953;0.0;0.0;0.0;0.1424959897994995;-1.0433440208435059;0.7124800086021423;0.0;0.0;0.0
955;0.10369999706745148;-1.0099159479141235;0.4782399833202362;0.04196799919009209;-1.0160160064697266;0.8305760025978088;68.2237548828125;195.6018829345703;-155.3037567138672
958;0.0;0.0;0.0;-0.06734399497509003;-0.9223200082778931;0.9281759858131409;0.0;0.0;0.0
960;0.0;0.0;0.0;-0.16787199676036835;-0.8520479798316956;1.0657919645309448;0.0;0.0;0.0
962;0.0;0.0;0.0;-0.28889599442481995;-0.7856799960136414;1.1877919435501099;0.0;0.0;0.0
964;-0.29182398319244385;-0.7149199843406677;0.928663969039917;-0.3669759929180145;-0.6880800127983093;1.3019839525222778;73.61375427246094;231.58187866210938;-159.78375244140625
966;0.0;0.0;0.0;-0.4635999798774719;-0.5943840146064758;1.4269119501113892;0.0;0.0;0.0
968;0.0;0.0;0.0;-0.5572959780693054;-0.5045920014381409;1.5450079441070557;0.0;0.0;0.0
970;0.0;0.0;0.0;-0.6383039951324463;-0.44993600249290466;1.6387039422988892;0.0;0.0;0.0
972;-0.6863719820976257;-0.38893598318099976;1.3903119564056396;-0.7202879786491394;-0.37966400384902954;1.7275199890136719;70.81375122070312;215.34188842773438;-161.603759765625
975;0.0;0.0;0.0;-0.7866559624671936;-0.29767999053001404;1.8124319314956665;0.0;0.0;0.0
977;0.0;0.0;0.0;-0.8139839768409729;-0.27425599098205566;1.8690400123596191;0.0;0.0;0.0
979;0.0;0.0;0.0;-0.8178879618644714;-0.2117919921875;1.9461439847946167;0.0;0.0;0.0
981;-0.9196360111236572;-0.1332239955663681;1.7197120189666748;-0.8178879618644714;-0.16884799301624298;1.9383360147476196;57.653751373291016;151.78187561035156;-162.09375
983;0.0;0.0;0.0;-0.7710399627685547;-0.10247999429702759;1.949072003364563;0.0;0.0;0.0
985;0.0;0.0;0.0;-0.7515199780464172;-0.032207999378442764;1.932479977607727;0.0;0.0;0.0
987;0.0;0.0;0.0;-0.7671359777450562;0.02635199949145317;1.9129599332809448;0.0;0.0;0.0
989;-0.8815720081329346;0.10150399804115295;1.7929120063781738;-0.6890559792518616;0.08881600201129913;1.8963679075241089;40.64374923706055;70.86186981201172;-163.7737579345703
992;0.0;0.0;0.0;-0.6695359945297241;0.17470400035381317;1.8436639308929443;0.0;0.0;0.0
994;0.0;0.0;0.0;-0.6509919762611389;0.22935999929904938;1.7753440141677856;0.0;0.0;0.0
996;0.0;0.0;0.0;-0.6002399921417236;0.29182398319244385;1.7382559776306152;0.0;0.0;0.0
998;-0.7551800012588501;0.38308000564575195;1.6445599794387817;-0.5338720083236694;0.3699039816856384;1.66212797164917;25.103750228881836;2.121875047683716;-162.5137481689453
1000;0.0;0.0;0.0;-0.48311999440193176;0.42455998063087463;1.5928319692611694;0.0;0.0;0.0
1002;0.0;0.0;0.0;-0.42846399545669556;0.46750399470329285;1.5401279926300049;0.0;0.0;0.0
1004;0.0;0.0;0.0;-0.3669759929180145;0.5533919930458069;1.5157279968261719;0.0;0.0;0.0
1007;-0.5531479716300964;0.6204919815063477;1.414955973625183;-0.34355199337005615;0.6197599768638611;1.4347199201583862;12.713749885559082;-36.16812515258789;-156.7737579345703
1009;0.0;0.0;0.0;-0.29280000925064087;0.6197599768638611;1.3732320070266724;0.0;0.0;0.0
1011;0.0;0.0;0.0;-0.27718400955200195;0.6783199906349182;1.3088159561157227;0.0;0.0;0.0
1013;0.0;0.0;0.0;-0.22643199563026428;0.725167989730835;1.3127199411392212;0.0;0.0;0.0
1015;-0.3857640027999878;0.818619966506958;1.2148759365081787;-0.20691199600696564;0.7837280035018921;1.2678239345550537;2.143749952316284;-40.50812530517578;-148.58375549316406
1017;0.0;0.0;0.0;-0.19519999623298645;0.8188639879226685;1.2043839693069458;0.0;0.0;0.0
1019;0.0;0.0;0.0;-0.13371199369430542;0.8344799876213074;1.1956000328063965;0.0;0.0;0.0
1021;0.0;0.0;0.0;-0.12590399384498596;0.8852319717407227;1.2004799842834473;0.0;0.0;0.0
1024;-0.2642520070075989;0.981611967086792;1.0943399667739868;-0.08686399459838867;0.9515999555587769;1.1838879585266113;-5.206250190734863;-26.368125915527344;-137.73374938964844
1026;0.0;0.0;0.0;-0.10638399422168732;0.9828319549560547;1.1877919435501099;0.0;0.0;0.0
1028;0.0;0.0;0.0;-0.15225599706172943;0.9984479546546936;1.1799839735031128;0.0;0.0;0.0
1030;0.0;0.0;0.0;-0.14444799721240997;1.0648159980773926;1.1965759992599487;0.0;0.0;0.0
1032;-0.2454639971256256;1.140455961227417;1.070915937423706;-0.1298079937696457;1.1116639375686646;1.2043839693069458;-7.516250133514404;-5.508124828338623;-124.78375244140625
1034;0.0;0.0;0.0;-0.13761599361896515;1.1780319213867188;1.2326879501342773;0.0;0.0;0.0
1036;0.0;0.0;0.0;-0.11419199407100677;1.2365919351577759;1.2775839567184448;0.0;0.0;0.0
1038;0.0;0.0;0.0;-0.15615999698638916;1.2600159645080566;1.2736799716949463;0.0;0.0;0.0
1041;-0.2610799968242645;1.3544440269470215;1.1241079568862915;-0.1756799966096878;1.345903992652893;1.2814879417419434;-6.886250019073486;9.33187484741211;-111.76375579833984
1043;0.0;0.0;0.0;-0.2693759799003601;1.392751932144165;1.2814879417419434;0.0;0.0;0.0
1045;0.0;0.0;0.0;-0.19129599630832672;1.2990559339523315;1.2209759950637817;0.0;0.0;0.0
1047;0.0;0.0;0.0;-0.2654719948768616;1.4981600046157837;1.32150399684906;0.0;0.0;0.0
1049;-0.33940398693084717;1.5335400104522705;1.1414319276809692;-0.1483519971370697;1.525488018989563;1.2775839567184448;-0.23625001311302185;9.191875457763672;-96.01375579833984
1051;0.0;0.0;0.0;-0.230335995554924;1.6269919872283936;1.3254079818725586;0.0;0.0;0.0
1053;0.0;0.0;0.0;-0.29280000925064087;1.630895972251892;1.2980799674987793;0.0;0.0;0.0
1055;0.0;0.0;0.0;-0.2654719948768616;1.6582239866256714;1.3019839525222778;0.0;0.0;0.0
1058;-0.3786879777908325;1.7631440162658691;1.1719319820404053;-0.2147199958562851;1.6972639560699463;1.3058879375457764;12.993749618530273;-6.698124885559082;-76.90375518798828
1060;0.0;0.0;0.0;-0.21862399578094482;1.7284959554672241;1.28929603099823;0.0;0.0;0.0
1062;0.0;0.0;0.0;-0.20691199600696564;1.759727954864502;1.2814879417419434;0.0;0.0;0.0
1064;0.0;0.0;0.0;-0.19129599630832672;1.8339039087295532;1.3176000118255615;0.0;0.0;0.0
1066;-0.3140279948711395;1.9134479761123657;1.1699799299240112;-0.16787199676036835;1.8729439973831177;1.2814879417419434;23.283750534057617;-23.638126373291016;-56.6037483215332
1068;0.0;0.0;0.0;-0.17958399653434753;1.9393119812011719;1.2932000160217285;0.0;0.0;0.0
1070;0.0;0.0;0.0;-0.18348799645900726;1.9432159662246704;1.2658720016479492;0.0;0.0;0.0
1072;0.0;0.0;0.0;-0.16787199676036835;1.9666399955749512;1.2531839609146118;0.0;0.0;0.0
1075;-0.2971920073032379;2.0864439010620117;1.129963994026184;-0.187391996383667;2.0017759799957275;1.2531839609146118;28.25374984741211;-32.80812454223633;-32.873748779296875
1077;0.0;0.0;0.0;-0.19129599630832672;2.0056798458099365;1.2121919393539429;0.0;0.0;0.0
1079;0.0;0.0;0.0;-0.1454239934682846;1.9822559356689453;1.1926720142364502;0.0;0.0;0.0
1081;0.0;0.0;0.0;-0.17177599668502808;2.0134880542755127;1.2209759950637817;0.0;0.0;0.0
1083;-0.29304400086402893;2.134511947631836;1.0897040367126465;-0.15615999698638916;1.9900639057159424;1.2160959243774414;31.613750457763672;-33.50812530517578;-8.303750038146973
1085;0.0;0.0;0.0;-0.16103999316692352;1.9822559356689453;1.2004799842834473;0.0;0.0;0.0
1087;0.0;0.0;0.0;-0.16787199676036835;1.9393119812011719;1.2121919393539429;0.0;0.0;0.0
1089;0.0;0.0;0.0;-0.1756799966096878;1.8963679075241089;1.1877919435501099;0.0;0.0;0.0
1092;-0.28938400745391846;2.0742440223693848;1.0789679288864136;-0.16396799683570862;1.9041759967803955;1.2004799842834473;30.283750534057617;-30.078126907348633;15.356250762939453
1094;0.0;0.0;0.0;-0.15225599706172943;1.8534239530563354;1.1712000370025635;0.0;0.0;0.0
1096;0.0;0.0;0.0;-0.1756799966096878;1.849519968032837;1.2043839693069458;0.0;0.0;0.0
1098;0.0;0.0;0.0;-0.15323199331760406;1.857327938079834;1.2121919393539429;0.0;0.0;0.0
1100;-0.284991979598999;1.9844520092010498;1.0682319402694702;-0.16787199676036835;1.8378080129623413;1.1956000328063965;27.13374900817871;-26.928125381469727;34.81624984741211
1102;0.0;0.0;0.0;-0.2030079960823059;1.8299999237060547;1.1926720142364502;0.0;0.0;0.0
1104;0.0;0.0;0.0;-0.22643199563026428;1.8221919536590576;1.1838879585266113;0.0;0.0;0.0
1106;0.0;0.0;0.0;-0.22643199563026428;1.7870559692382812;1.1760799884796143;0.0;0.0;0.0
1109;-0.321835994720459;1.9541959762573242;1.0550559759140015;-0.187391996383667;1.818287968635559;1.1916959285736084;22.373748779296875;-26.64812660217285;53.08625030517578
1111;0.0;0.0;0.0;-0.1756799966096878;1.7870559692382812;1.1838879585266113;0.0;0.0;0.0
1113;0.0;0.0;0.0;-0.17177599668502808;1.7519199848175049;1.2004799842834473;0.0;0.0;0.0
1115;0.0;0.0;0.0;-0.14444799721240997;1.7480159997940063;1.2326879501342773;0.0;0.0;0.0
1117;-0.2942639887332916;1.881727933883667;1.0696959495544434;-0.17958399653434753;1.708975911140442;1.2287839651107788;15.303750038146973;-26.438125610351562;71.14624786376953
1119;0.0;0.0;0.0;-0.19910399615764618;1.677743911743164;1.2082879543304443;0.0;0.0;0.0
1121;0.0;0.0;0.0;-0.20691199600696564;1.6465119123458862;1.2248799800872803;0.0;0.0;0.0
1123;0.0;0.0;0.0;-0.21862399578094482;1.5918560028076172;1.2043839693069458;0.0;0.0;0.0
1126;-0.3306199908256531;1.773635983467102;1.0887279510498047;-0.2537599802017212;1.564527988433838;1.1965759992599487;4.243750095367432;-20.41812515258789;89.13624572753906
1128;0.0;0.0;0.0;-0.2537599802017212;1.5293920040130615;1.2043839693069458;0.0;0.0;0.0
1130;0.0;0.0;0.0;-0.2420479953289032;1.4669280052185059;1.2160959243774414;0.0;0.0;0.0
1132;0.0;0.0;0.0;-0.24595199525356293;1.4083679914474487;1.2570879459381104;0.0;0.0;0.0
1134;-0.36965999007225037;1.5923439264297485;1.0918999910354614;-0.2576639950275421;1.377135992050171;1.2570879459381104;-4.996250152587891;-17.478126525878906;106.0062484741211
1136;0.0;0.0;0.0;-0.27425599098205566;1.3312640190124512;1.2648959159851074;0.0;0.0;0.0
1138;0.0;0.0;0.0;-0.3445279896259308;1.2922239303588867;1.2775839567184448;0.0;0.0;0.0
1140;0.0;0.0;0.0;-0.3601439893245697;1.2336640357971191;1.2609919309616089;0.0;0.0;0.0
1143;-0.43895599246025085;1.4151999950408936;1.1292319297790527;-0.38649600744247437;1.1946239471435547;1.285391926765442;-12.976250648498535;-18.248125076293945;121.26625061035156
1145;0.0;0.0;0.0;-0.39430397748947144;1.139967918395996;1.2697759866714478;0.0;0.0;0.0
1147;0.0;0.0;0.0;-0.4060159921646118;1.0775039196014404;1.2453759908676147;0.0;0.0;0.0
1149;0.0;0.0;0.0;-0.3835679888725281;1.0384639501571655;1.2648959159851074;0.0;0.0;0.0
1151;-0.508251965045929;1.209507942199707;1.1331360340118408;-0.3903999924659729;0.9642879962921143;1.2531839609146118;-20.95625114440918;-25.66812515258789;133.09625244140625
1153;0.0;0.0;0.0;-0.3903999924659729;0.9164639711380005;1.2287839651107788;0.0;0.0;0.0
1155;0.0;0.0;0.0;-0.4323679804801941;0.8422879576683044;1.2248799800872803;0.0;0.0;0.0
1157;0.0;0.0;0.0;-0.4050399959087372;0.7798239588737488;1.1916959285736084;0.0;0.0;0.0
1160;-0.5236240029335022;0.9637999534606934;1.087996006011963;-0.38942399621009827;0.7173599600791931;1.1712000370025635;-26.696250915527344;-35.678123474121094;143.24624633789062
1162;0.0;0.0;0.0;-0.3816159963607788;0.6627039909362793;1.1477760076522827;0.0;0.0;0.0
1164;0.0;0.0;0.0;-0.39820799231529236;0.5963360071182251;1.1184959411621094;0.0;0.0;0.0
1166;0.0;0.0;0.0;-0.3972319960594177;0.5416799783706665;1.0940959453582764;0.0;0.0;0.0
1168;-0.5114240050315857;0.7271199822425842;0.9923479557037354;-0.35916799306869507;0.4870239794254303;1.0657919645309448;-26.2762508392334;-47.50812530517578;152.90625
1170;0.0;0.0;0.0;-0.3903999924659729;0.447983980178833;1.0579839944839478;0.0;0.0;0.0
1172;0.0;0.0;0.0;-0.3513599932193756;0.37380799651145935;1.0130879878997803;0.0;0.0;0.0
1174;0.0;0.0;0.0;-0.3396480083465576;0.36209598183631897;1.0374879837036133;0.0;0.0;0.0
1177;-0.48482799530029297;0.5292360186576843;0.9108519554138184;-0.3513599932193756;0.2566879987716675;0.9808799624443054;-21.0262508392334;-55.768123626708984;163.12625122070312
1179;0.0;0.0;0.0;-0.3630719780921936;0.22935999929904938;0.9642879962921143;0.0;0.0;0.0
1181;0.0;0.0;0.0;-0.374783992767334;0.15908800065517426;0.9642879962921143;0.0;0.0;0.0
1183;0.0;0.0;0.0;-0.35916799306869507;0.08100800216197968;0.9437919855117798;0.0;0.0;0.0
1185;-0.48726800084114075;0.27425599098205566;0.8349679708480835;-0.35526400804519653;-0.05172799900174141;0.9603840112686157;-16.686250686645508;-59.05812454223633;171.7362518310547
1187;0.0;0.0;0.0;-0.38259199261665344;-0.12199999392032623;0.9193919897079468;0.0;0.0;0.0
1189;0.0;0.0;0.0;-0.3513599932193756;-0.22740799188613892;0.9320799708366394;0.0;0.0;0.0
1192;0.0;0.0;0.0;-0.3513599932193756;-0.26254400610923767;0.9564799666404724;0.0;0.0;0.0
1194;-0.4728719890117645;-0.07051599770784378;0.8095920085906982;-0.34355199337005615;-0.36795198917388916;0.9437919855117798;-15.776250839233398;-51.98812484741211;174.3262481689453
1196;0.0;0.0;0.0;-0.3240320086479187;-0.44603198766708374;0.9476959705352783;0.0;0.0;0.0
1198;0.0;0.0;0.0;-0.374783992767334;-0.5241119861602783;0.9476959705352783;0.0;0.0;0.0
1200;0.0;0.0;0.0;-0.32793599367141724;-0.6100000143051147;0.9564799666404724;0.0;0.0;0.0
1202;-0.480679988861084;-0.39771997928619385;0.826915979385376;-0.3669759929180145;-0.6919839978218079;0.9681919813156128;-20.396249771118164;-36.72812271118164;170.68624877929688
1204;0.0;0.0;0.0;-0.39820799231529236;-0.7817760109901428;0.9847840070724487;0.0;0.0;0.0
1206;0.0;0.0;0.0;-0.44017598032951355;-0.9184159636497498;0.9759999513626099;0.0;0.0;0.0
1209;0.0;0.0;0.0;-0.45579198002815247;-1.051151990890503;0.9769759774208069;0.0;0.0;0.0
1211;-0.5446079969406128;-0.7849479913711548;0.8537560105323792;-0.447983980178833;-1.1370400190353394;1.0052800178527832;-27.186250686645508;-26.50812530517578;164.0362548828125
1213;0.0;0.0;0.0;-0.4635999798774719;-1.23854398727417;0.9642879962921143;0.0;0.0;0.0
1215;0.0;0.0;0.0;-0.4167519807815552;-1.4103199243545532;0.9847840070724487;0.0;0.0;0.0
1217;0.0;0.0;0.0;-0.39430397748947144;-1.5664799213409424;0.9847840070724487;0.0;0.0;0.0
1219;-0.5472919940948486;-1.2614799737930298;0.8666880130767822;-0.3699039816856384;-1.6367520093917847;1.0208959579467773;-34.116249084472656;-29.938125610351562;154.30624389648438
1221;0.0;0.0;0.0;-0.31622397899627686;-1.7968159914016724;1.0413919687271118;0.0;0.0;0.0
1223;0.0;0.0;0.0;-0.2810879945755005;-1.9412639141082764;1.0374879837036133;0.0;0.0;0.0
1226;0.0;0.0;0.0;-0.2576639950275421;-2.0388638973236084;1.0657919645309448;0.0;0.0;0.0
1228;-0.4079679846763611;-1.7743679285049438;0.9164639711380005;-0.22252799570560455;-2.1364638805389404;1.073599934577942;-45.31624984741211;-24.75812530517578;135.40625
1230;0.0;0.0;0.0;-0.17177599668502808;-2.2223520278930664;1.101904034614563;0.0;0.0;0.0
1232;0.0;0.0;0.0;-0.1600639969110489;-2.284816026687622;1.101904034614563;0.0;0.0;0.0
1234;0.0;0.0;0.0;-0.15323199331760406;-2.4058399200439453;1.1028800010681152;0.0;0.0;0.0
1236;-0.29816800355911255;-2.175992012023926;0.9723399877548218;-0.12199999392032623;-2.487823963165283;1.1067839860916138;-60.366249084472656;-5.438125133514404;108.31624603271484
1238;0.0;0.0;0.0;-0.14054399728775024;-2.5854239463806152;1.1389919519424438;0.0;0.0;0.0
1240;0.0;0.0;0.0;-0.09857599437236786;-2.647887945175171;1.1555839776992798;0.0;0.0;0.0
1243;0.0;0.0;0.0;-0.1454239934682846;-2.7025439739227295;1.1799839735031128;0.0;0.0;0.0
1245;-0.2559559941291809;-2.4868478775024414;1.0287039279937744;-0.14054399728775024;-2.7532958984375;1.1838879585266113;-70.0262451171875;14.931875228881836;77.58625030517578
1247;0.0;0.0;0.0;-0.18348799645900726;-2.8040480613708496;1.2209759950637817;0.0;0.0;0.0
1249;0.0;0.0;0.0;-0.19910399615764618;-2.858703851699829;1.1965759992599487;0.0;0.0;0.0
1251;0.0;0.0;0.0;-0.22252799570560455;-2.9211678504943848;1.2326879501342773;0.0;0.0;0.0
1253;-0.32793599367141724;-2.708643913269043;1.087019920349121;-0.24985599517822266;-2.928976058959961;1.2609919309616089;-67.99624633789062;19.411874771118164;46.43625259399414
1255;0.0;0.0;0.0;-0.2693759799003601;-2.960207939147949;1.2609919309616089;0.0;0.0;0.0
1257;0.0;0.0;0.0;-0.2654719948768616;-2.9914400577545166;1.2248799800872803;0.0;0.0;0.0
1260;0.0;0.0;0.0;-0.28889599442481995;-2.9875359535217285;1.2004799842834473;0.0;0.0;0.0
1262;-0.3911319971084595;-2.8291800022125244;1.0975120067596436;-0.2654719948768616;-3.0070559978485107;1.1633919477462769;-56.09625244140625;-0.7481249570846558;14.936250686645508
1264;0.0;0.0;0.0;-0.2420479953289032;-2.9836318492889404;1.122399926185608;0.0;0.0;0.0
1266;0.0;0.0;0.0;-0.20691199600696564;-2.9836318492889404;1.0579839944839478;0.0;0.0;0.0
1268;0.0;0.0;0.0;-0.1756799966096878;-2.948495864868164;0.9486719965934753;0.0;0.0;0.0
1270;-0.334524005651474;-2.82234787940979;0.9130479693412781;-0.13761599361896515;-2.9211678504943848;0.8549759984016418;-37.26625061035156;-46.24812316894531;-16.073749542236328
1272;0.0;0.0;0.0;-0.115167997777462;-2.8616318702697754;0.7817760109901428;0.0;0.0;0.0
1274;0.0;0.0;0.0;-0.044895999133586884;-2.7796478271484375;0.6724640130996704;0.0;0.0;0.0
1277;0.0;0.0;0.0;0.02537599951028824;-2.748415946960449;0.5953599810600281;0.0;0.0;0.0
1279;-0.1559159904718399;-2.6532559394836426;0.5609560012817383;0.11028799414634705;-2.6742398738861084;0.5094720125198364;-13.046250343322754;-93.49813079833984;-43.16374969482422
1281;0.0;0.0;0.0;0.1844639927148819;-2.5961599349975586;0.42455998063087463;0.0;0.0;0.0
1283;0.0;0.0;0.0;0.2781600058078766;-2.5219838619232178;0.3601439893245697;0.0;0.0;0.0
1285;0.0;0.0;0.0;0.31329599022865295;-2.447808027267456;0.2664479911327362;0.0;0.0;0.0
1287;0.1298079937696457;-2.378756046295166;0.24107199907302856;0.3669759929180145;-2.3970558643341064;0.205935999751091;7.883749961853027;-112.6081314086914;-67.66374969482422
1289;0.0;0.0;0.0;0.39430397748947144;-2.260416030883789;0.15323199331760406;0.0;0.0;0.0
1291;0.0;0.0;0.0;0.4411519765853882;-2.1979520320892334;0.10443200170993805;0.0;0.0;0.0
1294;0.0;0.0;0.0;0.46457600593566895;-2.1198718547821045;0.05172799900174141;0.0;0.0;0.0
1296;0.3152479827404022;-2.0578958988189697;-0.003659999929368496;0.49190399050712585;-2.0378880500793457;0.010735999792814255;21.533750534057617;-90.90812683105469;-89.36375427246094
1298;0.0;0.0;0.0;0.5387519598007202;-1.9676159620285034;0.0029279999434947968;0.0;0.0;0.0
1300;0.0;0.0;0.0;0.5582720041275024;-1.9168639183044434;-0.029279999434947968;0.0;0.0;0.0
1302;0.0;0.0;0.0;0.6197599768638611;-1.834879994392395;-0.029279999434947968;0.0;0.0;0.0
1304;0.4504239857196808;-1.765828013420105;-0.12297599762678146;0.5816959738731384;-1.737280011177063;-0.01756799966096878;29.233749389648438;-37.56812286376953;-108.89375305175781
1306;0.0;0.0;0.0;0.586575984954834;-1.710927963256836;-0.02537599951028824;0.0;0.0;0.0
1308;0.0;0.0;0.0;0.5592479705810547;-1.6484639644622803;0.023423999547958374;0.0;0.0;0.0
1311;0.0;0.0;0.0;0.5436319708824158;-1.5664799213409424;0.0634399950504303;0.0;0.0;0.0
1313;0.44896000623703003;-1.4925479888916016;-0.08125200122594833;0.5241119861602783;-1.4688799381256104;0.10833600163459778;33.153751373291016;38.171875;-125.34375
1315;0.0;0.0;0.0;0.4811680018901825;-1.4103199243545532;0.16494399309158325;0.0;0.0;0.0
1317;0.0;0.0;0.0;0.399183988571167;-1.3517600297927856;0.2752319872379303;0.0;0.0;0.0
1319;0.0;0.0;0.0;0.34940800070762634;-1.2736799716949463;0.3230559825897217;0.0;0.0;0.0
1321;0.2845039963722229;-1.2019439935684204;0.15079200267791748;0.2791360020637512;-1.207311987876892;0.4333440065383911;32.873748779296875;113.28187561035156;-139.83375549316406
1323;0.0;0.0;0.0;0.24399998784065247;-1.148751974105835;0.4899519979953766;0.0;0.0;0.0
1325;0.0;0.0;0.0;0.13078400492668152;-1.0550559759140015;0.5504639744758606;0.0;0.0;0.0
1328;0.0;0.0;0.0;0.09272000193595886;-1.0550559759140015;0.6236639618873596;0.0;0.0;0.0
1330;0.02781599946320057;-0.9513559937477112;0.4374919831752777;0.014639999717473984;-0.9730719923973083;0.7173599600791931;30.84375;159.62188720703125;-150.19375610351562
1332;0.0;0.0;0.0;-0.05563199892640114;-0.9340319633483887;0.7817760109901428;0.0;0.0;0.0
1334;0.0;0.0;0.0;-0.13371199369430542;-0.8793759942054749;0.8832799792289734;0.0;0.0;0.0
1336;0.0;0.0;0.0;-0.1483519971370697;-0.8598560094833374;0.9486719965934753;0.0;0.0;0.0
1338;-0.23985199630260468;-0.7461519837379456;0.7337079644203186;-0.23423999547958374;-0.8130080103874207;1.0003999471664429;32.17375183105469;171.1018829345703;-156.4237518310547
1341;0.0;0.0;0.0;-0.24595199525356293;-0.7271199822425842;1.0784800052642822;0.0;0.0;0.0
1342;0.0;0.0;0.0;-0.284991979598999;-0.7075999975204468;1.1672959327697754;0.0;0.0;0.0
1345;0.0;0.0;0.0;-0.3123199939727783;-0.6295199990272522;1.1926720142364502;0.0;0.0;0.0
1347;-0.4138239920139313;-0.5602239966392517;1.0091840028762817;-0.3513599932193756;-0.586575984954834;1.2287839651107788;31.4737491607666;156.89187622070312;-160.7637481689453
1349;0.0;0.0;0.0;-0.4021120071411133;-0.5592479705810547;1.309791922569275;0.0;0.0;0.0
1351;0.0;0.0;0.0;-0.44017598032951355;-0.4577440023422241;1.334191918373108;0.0;0.0;0.0
1353;0.0;0.0;0.0;-0.4440799951553345;-0.36795198917388916;1.3546879291534424;0.0;0.0;0.0
1355;-0.5553439855575562;-0.3252519965171814;1.1860840320587158;-0.45579198002815247;-0.32500800490379333;1.3829920291900635;29.443750381469727;125.81187438964844;-163.98374938964844
1357;0.0;0.0;0.0;-0.5104479789733887;-0.2898719906806946;1.394703984260559;0.0;0.0;0.0
1359;0.0;0.0;0.0;-0.5065439939498901;-0.21569599211215973;1.394703984260559;0.0;0.0;0.0
1362;0.0;0.0;0.0;-0.47921597957611084;-0.2000799924135208;1.386896014213562;0.0;0.0;0.0
1364;-0.606827974319458;-0.0936959981918335;1.248304009437561;-0.45188799500465393;-0.14151999354362488;1.3790879249572754;26.29374885559082;78.421875;-164.5437469482422
1366;0.0;0.0;0.0;-0.40113598108291626;-0.06734399497509003;1.3585920333862305;0.0;0.0;0.0
1368;0.0;0.0;0.0;-0.31622397899627686;0.0029279999434947968;1.362496018409729;0.0;0.0;0.0
1370;0.0;0.0;0.0;-0.30451199412345886;0.06929600238800049;1.3176000118255615;0.0;0.0;0.0
1372;-0.45579198002815247;0.14005599915981293;1.2068239450454712;-0.2576639950275421;0.16299200057983398;1.285391926765442;21.95374870300293;36.70187759399414;-164.61375427246094
1375;0.0;0.0;0.0;-0.22252799570560455;0.20983999967575073;1.2688000202178955;0.0;0.0;0.0
1376;0.0;0.0;0.0;-0.2030079960823059;0.25278398394584656;1.2121919393539429;0.0;0.0;0.0
1379;0.0;0.0;0.0;-0.2147199958562851;0.33476799726486206;1.1965759992599487;0.0;0.0;0.0
1381;-0.33720800280570984;0.40064799785614014;1.0970239639282227;-0.15323199331760406;0.38551998138427734;1.1965759992599487;17.68375015258789;21.51187515258789;-163.353759765625
1383;0.0;0.0;0.0;-0.12199999392032623;0.46750399470329285;1.1516799926757812;0.0;0.0;0.0
1385;0.0;0.0;0.0;-0.12590399384498596;0.5182560086250305;1.122399926185608;0.0;0.0;0.0
1387;0.0;0.0;0.0;-0.07515199482440948;0.6080479621887207;1.1067839860916138;0.0;0.0;0.0
1389;-0.23521599173545837;0.6822239756584167;1.0074759721755981;-0.09467199444770813;0.7563999891281128;1.1184959411621094;18.033750534057617;26.061874389648438;-158.1737518310547
1391;0.0;0.0;0.0;-0.04391999915242195;0.8032479882240295;1.0940959453582764;0.0;0.0;0.0
1393;0.0;0.0;0.0;-0.01268799975514412;0.7368800044059753;1.0579839944839478;0.0;0.0;0.0
1396;0.0;0.0;0.0;-0.10638399422168732;0.8813279867172241;1.1516799926757812;0.0;0.0;0.0
1398;-0.15640400350093842;0.9423279762268066;0.9869799613952637;0.02635199949145317;0.9984479546546936;1.1926720142364502;24.54374885559082;47.13187789916992;-150.96376037597656
1400;0.0;0.0;0.0;-0.024399999529123306;1.1663199663162231;1.2414720058441162;0.0;0.0;0.0
1402;0.0;0.0;0.0;-0.187391996383667;1.1780319213867188;1.2248799800872803;0.0;0.0;0.0
1404;0.0;0.0;0.0;-0.14444799721240997;1.2678239345550537;1.2365919351577759;0.0;0.0;0.0
1406;-0.23253199458122253;1.3332159519195557;1.1148359775543213;-0.0907679945230484;1.4005600214004517;1.3176000118255615;36.443748474121094;67.64187622070312;-138.9237518310547
1409;0.0;0.0;0.0;-0.1268799901008606;1.460096001625061;1.362496018409729;0.0;0.0;0.0
1410;0.0;0.0;0.0;-0.16884799301624298;1.549888014793396;1.386896014213562;0.0;0.0;0.0
1413;0.0;0.0;0.0;-0.20788799226284027;1.6201599836349487;1.4269119501113892;0.0;0.0;0.0
1415;-0.2845039963722229;1.6875039339065552;1.260259985923767;-0.24302399158477783;1.784127950668335;1.5167039632797241;49.533748626708984;78.21187591552734;-121.70375061035156
1417;0.0;0.0;0.0;-0.27425599098205566;1.932479977607727;1.5977119207382202;0.0;0.0;0.0
1419;0.0;0.0;0.0;-0.31329599022865295;2.0417919158935547;1.6182079315185547;0.0;0.0;0.0
1421;0.0;0.0;0.0;-0.34062400460243225;2.0183680057525635;1.6094239950180054;0.0;0.0;0.0
1423;-0.43944400548934937;2.1193840503692627;1.4647319316864014;-0.33671998977661133;2.158911943435669;1.6709120273590088;59.26374816894531;78.14187622070312;-98.3237533569336
1426;0.0;0.0;0.0;-0.4021120071411133;2.216495990753174;1.7226399183273315;0.0;0.0;0.0
1428;0.0;0.0;0.0;-0.4206559956073761;2.232111930847168;1.7265440225601196;0.0;0.0;0.0
1430;0.0;0.0;0.0;-0.39820799231529236;2.3687520027160645;1.8075519800186157;0.0;0.0;0.0
1432;-0.5206959843635559;2.4085240364074707;1.60698401927948;-0.447983980178833;2.3726558685302734;1.8192639350891113;63.533748626708984;62.8118782043457;-69.34375
1434;0.0;0.0;0.0;-0.4870239794254303;2.419503927230835;1.8192639350891113;0.0;0.0;0.0
1436;0.0;0.0;0.0;-0.5338720083236694;2.513200044631958;1.8768479824066162;0.0;0.0;0.0
1438;0.0;0.0;0.0;-0.545583963394165;2.6420319080352783;1.8846559524536133;0.0;0.0;0.0
1440;-0.6326919794082642;2.6334919929504395;1.708732008934021;-0.5260639786720276;2.5717599391937256;1.8563519716262817;64.65375518798828;34.461875915527344;-34.20375061035156
1442;0.0;0.0;0.0;-0.537775993347168;2.6771678924560547;1.9139360189437866;0.0;0.0;0.0
1445;0.0;0.0;0.0;-0.47921597957611084;2.6810719966888428;1.8856319189071655;0.0;0.0;0.0
1447;0.0;0.0;0.0;-0.4635999798774719;2.6576478481292725;1.8856319189071655;0.0;0.0;0.0
1449;-0.6095119714736938;2.801363945007324;1.733132004737854;-0.44017598032951355;2.6537439823150635;1.8690400123596191;58.70375061035156;-8.308124542236328;0.3762500286102295
1451;0.0;0.0;0.0;-0.42455998063087463;2.6771678924560547;1.8729439973831177;0.0;0.0;0.0
1453;0.0;0.0;0.0;-0.4987359941005707;2.599087953567505;1.8202400207519531;0.0;0.0;0.0
1455;0.0;0.0;0.0;-0.5299679636955261;2.5717599391937256;1.7802239656448364;0.0;0.0;0.0
1457;-0.5965799689292908;2.729140043258667;1.6765239238739014;-0.4987359941005707;2.524911880493164;1.7314239740371704;43.16374969482422;-44.288124084472656;26.276248931884766
1460;0.0;0.0;0.0;-0.45579198002815247;2.4897758960723877;1.6787199974060059;0.0;0.0;0.0
1462;0.0;0.0;0.0;-0.3972319960594177;2.4507360458374023;1.6299200057983398;0.0;0.0;0.0
1464;0.0;0.0;0.0;-0.37088000774383545;2.415600061416626;1.5655039548873901;0.0;0.0;0.0
1466;-0.5289919972419739;2.5842039585113525;1.4810799360275269;-0.32793599367141724;2.3531360626220703;1.4805920124053955;21.25374984741211;-77.67813110351562;51.196250915527344
1468;0.0;0.0;0.0;-0.28889599442481995;2.2906720638275146;1.4513119459152222;0.0;0.0;0.0
1470;0.0;0.0;0.0;-0.28889599442481995;2.216495990753174;1.3781119585037231;0.0;0.0;0.0
1472;0.0;0.0;0.0;-0.2654719948768616;2.220399856567383;1.3546879291534424;0.0;0.0;0.0
1474;-0.4167519807815552;2.378268003463745;1.2641639709472656;-0.22252799570560455;2.118896007537842;1.285391926765442;-1.6362500190734863;-95.31813049316406;74.36624908447266
1476;0.0;0.0;0.0;-0.21862399578094482;2.0134880542755127;1.2160959243774414;0.0;0.0;0.0
1479;0.0;0.0;0.0;-0.187391996383667;1.9236959218978882;1.1965759992599487;0.0;0.0;0.0
1481;0.0;0.0;0.0;-0.17177599668502808;1.8612319231033325;1.1106879711151123;0.0;0.0;0.0
1483;-0.3140279948711395;2.0578958988189697;1.0496879816055298;-0.13761599361896515;1.7245919704437256;1.0784800052642822;-24.946250915527344;-95.38813018798828;94.1762466430664
1485;0.0;0.0;0.0;-0.0907679945230484;1.623088002204895;1.0335839986801147;0.0;0.0;0.0
1487;0.0;0.0;0.0;-0.1180959939956665;1.5371999740600586;1.0052800178527832;0.0;0.0;0.0
1489;0.0;0.0;0.0;-0.05563199892640114;1.4942560195922852;1.0052800178527832;0.0;0.0;0.0
1491;-0.22203999757766724;1.6814039945602417;0.8930400013923645;-0.05953599885106087;1.3576159477233887;0.9525759816169739;-43.56624984741211;-78.23812866210938;109.36624908447266
1494;0.0;0.0;0.0;-0.09857599437236786;1.338096022605896;0.9525759816169739;0.0;0.0;0.0
1496;0.0;0.0;0.0;-0.10247999429702759;1.256111979484558;0.9115839600563049;0.0;0.0;0.0
1498;0.0;0.0;0.0;-0.13761599361896515;1.1780319213867188;0.9154880046844482;0.0;0.0;0.0
1500;-0.23301999270915985;1.3798199892044067;0.8091039657592773;-0.14444799721240997;1.1038559675216675;0.9076799750328064;-55.25625228881836;-53.24812316894531;121.68624877929688
1502;0.0;0.0;0.0;-0.2030079960823059;1.0335839986801147;0.9037759900093079;0.0;0.0;0.0
1504;0.0;0.0;0.0;-0.17958399653434753;0.9281759858131409;0.8549759984016418;0.0;0.0;0.0
1506;0.0;0.0;0.0;-0.17958399653434753;0.8461920022964478;0.8627839684486389;0.0;0.0;0.0
1508;-0.2967039942741394;1.0699399709701538;0.7498120069503784;-0.1756799966096878;0.7603039741516113;0.8383839726448059;-57.63624954223633;-40.788124084472656;134.56625366210938
1511;0.0;0.0;0.0;-0.1298079937696457;0.6783199906349182;0.8666880130767822;0.0;0.0;0.0
1513;0.0;0.0;0.0;-0.16396799683570862;0.5768159627914429;0.8627839684486389;0.0;0.0;0.0
1515;0.0;0.0;0.0;-0.15615999698638916;0.4635999798774719;0.8754720091819763;0.0;0.0;0.0
1517;-0.2735239863395691;0.716871976852417;0.7280960083007812;-0.187391996383667;0.3933279812335968;0.8383839726448059;-50.63624954223633;-37.078125;146.11624145507812
1519;0.0;0.0;0.0;-0.16396799683570862;0.3386719822883606;0.8510719537734985;0.0;0.0;0.0
1521;0.0;0.0;0.0;-0.19129599630832672;0.24887999892234802;0.8383839726448059;0.0;0.0;0.0
1523;0.0;0.0;0.0;-0.17177599668502808;0.24107199907302856;0.8510719537734985;0.0;0.0;0.0
1525;-0.30158400535583496;0.40943199396133423;0.712723970413208;-0.1756799966096878;0.17470400035381317;0.8344799876213074;-36.98625183105469;-35.678123474121094;153.6062469482422
1528;0.0;0.0;0.0;-0.15323199331760406;0.14347200095653534;0.8344799876213074;0.0;0.0;0.0
1530;0.0;0.0;0.0;-0.1571359932422638;0.07320000231266022;0.8627839684486389;0.0;0.0;0.0
1532;0.0;0.0;0.0;-0.17177599668502808;0.0029279999434947968;0.8422879576683044;0.0;0.0;0.0
1534;-0.3001199960708618;0.20935200154781342;0.7171159982681274;-0.20691199600696564;-0.028303999453783035;0.8344799876213074;-21.58625030517578;-36.16812515258789;159.06625366210938
1536;0.0;0.0;0.0;-0.19910399615764618;-0.05172799900174141;0.84716796875;0.0;0.0;0.0
1538;0.0;0.0;0.0;-0.2030079960823059;-0.12590399384498596;0.8178879618644714;0.0;0.0;0.0
1540;0.0;0.0;0.0;-0.2030079960823059;-0.16494399309158325;0.8832799792289734;0.0;0.0;0.0
1542;-0.3228119909763336;0.015615999698638916;0.729315996170044;-0.18348799645900726;-0.20788799226284027;0.8754720091819763;-7.65625;-37.078125;162.3562469482422
1545;0.0;0.0;0.0;-0.187391996383667;-0.24692799150943756;0.8705919981002808;0.0;0.0;0.0
1547;0.0;0.0;0.0;-0.19129599630832672;-0.27035200595855713;0.8832799792289734;0.0;0.0;0.0
1549;0.0;0.0;0.0;-0.19519999623298645;-0.2898719906806946;0.9076799750328064;0.0;0.0;0.0
1551;-0.31671199202537537;-0.13224799931049347;0.7559120059013367;-0.21081599593162537;-0.33671998977661133;0.9154880046844482;1.8637499809265137;-34.698123931884766;162.9862518310547
1553;0.0;0.0;0.0;-0.19910399615764618;-0.3211039900779724;0.9193919897079468;0.0;0.0;0.0
1555;0.0;0.0;0.0;-0.2420479953289032;-0.35624000430107117;0.9115839600563049;0.0;0.0;0.0
1557;0.0;0.0;0.0;-0.2654719948768616;-0.3835679888725281;0.8949919939041138;0.0;0.0;0.0
1559;-0.36917200684547424;-0.23301999270915985;0.7854359745979309;-0.2654719948768616;-0.43432000279426575;0.9037759900093079;6.973750114440918;-32.73812484741211;162.49624633789062
1562;0.0;0.0;0.0;-0.2576639950275421;-0.5084959864616394;0.9242720007896423;0.0;0.0;0.0
1564;0.0;0.0;0.0;-0.2654719948768616;-0.5670560002326965;0.8998720049858093;0.0;0.0;0.0
1566;0.0;0.0;0.0;-0.24595199525356293;-0.6100000143051147;0.9037759900093079;0.0;0.0;0.0
1568;-0.38722798228263855;-0.4333440065383911;0.7793359756469727;-0.27718400955200195;-0.6919839978218079;0.8949919939041138;8.583749771118164;-36.37812423706055;161.37625122070312
1570;0.0;0.0;0.0;-0.2576639950275421;-0.7817760109901428;0.9076799750328064;0.0;0.0;0.0
1572;0.0;0.0;0.0;-0.22643199563026428;-0.8012959957122803;0.9193919897079468;0.0;0.0;0.0
1574;0.0;0.0;0.0;-0.21862399578094482;-0.8637599945068359;0.9076799750328064;0.0;0.0;0.0
1576;-0.36331599950790405;-0.6875919699668884;0.7839719653129578;-0.21081599593162537;-0.945743978023529;0.9193919897079468;5.923749923706055;-41.62812423706055;156.1962432861328
1579;0.0;0.0;0.0;-0.1844639927148819;-1.0228480100631714;0.9115839600563049;0.0;0.0;0.0
1581;0.0;0.0;0.0;-0.16884799301624298;-1.0462720394134521;0.9525759816169739;0.0;0.0;0.0
1583;0.0;0.0;0.0;-0.13761599361896515;-1.0657919645309448;0.9359839558601379;0.0;0.0;0.0
1585;-0.2991439998149872;-0.9037759900093079;0.8108119964599609;-0.1727519929409027;-1.1790080070495605;0.9476959705352783;-6.396250247955322;-40.018123626708984;144.36624145507812
1587;0.0;0.0;0.0;-0.1571359932422638;-1.2375680208206177;0.9642879962921143;0.0;0.0;0.0
1589;0.0;0.0;0.0;-0.20788799226284027;-1.2375680208206177;0.9808799624443054;0.0;0.0;0.0
1591;0.0;0.0;0.0;-0.21569599211215973;-1.3078399896621704;0.9847840070724487;0.0;0.0;0.0
1593;-0.3213479816913605;-1.123863935470581;0.855463981628418;-0.2117919921875;-1.3976320028305054;0.9925919771194458;-29.426250457763672;-30.078126907348633;127.91624450683594
1596;0.0;0.0;0.0;-0.22252799570560455;-1.4298399686813354;1.0130879878997803;0.0;0.0;0.0
1598;0.0;0.0;0.0;-0.18348799645900726;-1.4532639980316162;1.0169919729232788;0.0;0.0;0.0
1600;0.0;0.0;0.0;-0.187391996383667;-1.4805920124053955;1.0335839986801147;0.0;0.0;0.0
1602;-0.3189080059528351;-1.329800009727478;0.8974319696426392;-0.16787199676036835;-1.5781919956207275;1.0413919687271118;-60.22624969482422;-20.768125534057617;110.13624572753906
1604;0.0;0.0;0.0;-0.16787199676036835;-1.6757919788360596;1.0130879878997803;0.0;0.0;0.0
1606;0.0;0.0;0.0;-0.15615999698638916;-1.808527946472168;1.0130879878997803;0.0;0.0;0.0
1608;0.0;0.0;0.0;-0.16787199676036835;-1.9022239446640015;1.0013760328292847;0.0;0.0;0.0
1610;-0.28181999921798706;-1.6494399309158325;0.8847439885139465;-0.1756799966096878;-2.003727912902832;0.9964959621429443;-90.32624816894531;-13.348124504089355;91.44625091552734
1613;0.0;0.0;0.0;-0.13371199369430542;-2.0661919116973877;1.0091840028762817;0.0;0.0;0.0
1615;0.0;0.0;0.0;-0.1327359974384308;-2.179408073425293;0.9769759774208069;0.0;0.0;0.0
1617;0.0;0.0;0.0;-0.15225599706172943;-2.280911922454834;1.0013760328292847;0.0;0.0;0.0
1619;-0.28255200386047363;-2.041548013687134;0.8783999681472778;-0.19129599630832672;-2.390223979949951;0.9603840112686157;-111.18624877929688;-8.378125190734863;69.39624786376953
1621;0.0;0.0;0.0;-0.18348799645900726;-2.476111888885498;0.9720959663391113;0.0;0.0;0.0
1623;0.0;0.0;0.0;-0.22643199563026428;-2.5854239463806152;0.9642879962921143;0.0;0.0;0.0
1625;0.0;0.0;0.0;-0.24595199525356293;-2.663503885269165;0.9437919855117798;0.0;0.0;0.0
1627;-0.3518480062484741;-2.439512014389038;0.8432639837265015;-0.2420479953289032;-2.8001439571380615;0.9564799666404724;-119.93624877929688;-4.318124771118164;43.35625076293945
1630;0.0;0.0;0.0;-0.23814399540424347;-2.8860318660736084;0.9232959747314453;0.0;0.0;0.0
1632;0.0;0.0;0.0;-0.26156800985336304;-2.9680159091949463;0.871567964553833;0.0;0.0;0.0
1634;0.0;0.0;0.0;-0.2693759799003601;-3.03438401222229;0.8422879576683044;0.0;0.0;0.0
1636;-0.37722399830818176;-2.826740026473999;0.7578639984130859;-0.28889599442481995;-3.128079891204834;0.8022719621658325;-113.7762451171875;-17.338125228881836;14.516250610351562
1638;0.0;0.0;0.0;-0.22643199563026428;-3.1905438899993896;0.708575963973999;0.0;0.0;0.0
1640;0.0;0.0;0.0;-0.19129599630832672;-3.2491040229797363;0.6197599768638611;0.0;0.0;0.0
1642;0.0;0.0;0.0;-0.1600639969110489;-3.2959518432617188;0.5465599894523621;0.0;0.0;0.0
1644;-0.31671199202537537;-3.0968480110168457;0.5031279921531677;-0.11419199407100677;-3.334991931915283;0.4450559914112091;-91.44624328613281;-55.208126068115234;-15.653749465942383
1647;0.0;0.0;0.0;-0.0634399950504303;-3.303760051727295;0.37966400384902954;0.0;0.0;0.0
1649;0.0;0.0;0.0;0.010735999792814255;-3.3388960361480713;0.2576639950275421;0.0;0.0;0.0
1651;0.0;0.0;0.0;0.04196799919009209;-3.307663917541504;0.1600639969110489;0.0;0.0;0.0
1653;-0.10491999983787537;-3.165411949157715;0.13712799549102783;0.11907199770212173;-3.2647199630737305;0.07515199482440948;-55.116249084472656;-97.06813049316406;-44.56374740600586
1655;0.0;0.0;0.0;0.19324800372123718;-3.206159830093384;-0.022447999566793442;0.0;0.0;0.0
1657;0.0;0.0;0.0;0.24399998784065247;-3.147599935531616;-0.07515199482440948;0.0;0.0;0.0
1659;0.0;0.0;0.0;0.35624000430107117;-3.030479907989502;-0.1395680010318756;0.0;0.0;0.0
1661;0.14518000185489655;-2.9824118614196777;-0.17714399099349976;0.399183988571167;-2.9875359535217285;-0.16884799301624298;-14.516250610351562;-107.56813049316406;-75.15375518798828
1664;0.0;0.0;0.0;0.43432000279426575;-2.8938398361206055;-0.25278398394584656;0.0;0.0;0.0
1666;0.0;0.0;0.0;0.5319200158119202;-2.7884318828582764;-0.2967039942741394;0.0;0.0;0.0
1668;0.0;0.0;0.0;0.5709599852561951;-2.7025439739227295;-0.3054879903793335;0.0;0.0;0.0
1670;0.3921079933643341;-2.639103889465332;-0.3786879777908325;0.5982879996299744;-2.565903902053833;-0.3298879861831665;20.063749313354492;-69.5581283569336;-104.9737548828125
1672;0.0;0.0;0.0;0.6060959696769714;-2.4097440242767334;-0.29767999053001404;0.0;0.0;0.0
1674;0.0;0.0;0.0;0.6207360029220581;-2.284816026687622;-0.260591983795166;0.0;0.0;0.0
1676;0.0;0.0;0.0;0.6207360029220581;-2.1247520446777344;-0.24887999892234802;0.0;0.0;0.0
1678;0.49239200353622437;-2.1406118869781494;-0.3850319981575012;0.6090239882469177;-2.0388638973236084;-0.21569599211215973;46.59375;11.501874923706055;-131.36375427246094
1681;0.0;0.0;0.0;0.6090239882469177;-1.8905119895935059;-0.16787199676036835;0.0;0.0;0.0
1683;0.0;0.0;0.0;0.5436319708824158;-1.7226399183273315;-0.08979199826717377;0.0;0.0;0.0
1685;0.0;0.0;0.0;0.4694559872150421;-1.6172319650650024;-0.049775999039411545;0.0;0.0;0.0
1687;0.4047960042953491;-1.6103999614715576;-0.21130399405956268;0.37966400384902954;-1.5079200267791748;0.031231999397277832;61.993751525878906;108.45187377929688;-152.2937469482422
1689;0.0;0.0;0.0;0.3298879861831665;-1.4025119543075562;0.1327359974384308;0.0;0.0;0.0
1691;0.0;0.0;0.0;0.26742398738861084;-1.285391926765442;0.2176479995250702;0.0;0.0;0.0
1693;0.0;0.0;0.0;0.19324800372123718;-1.1643680334091187;0.30353599786758423;0.0;0.0;0.0
1695;0.1500599980354309;-1.1450920104980469;0.10369999706745148;0.1268799901008606;-1.0745760202407837;0.41284799575805664;71.23375701904297;195.74188232421875;-165.94375610351562
1698;0.0;0.0;0.0;0.07710400223731995;-0.9652639627456665;0.5299679636955261;0.0;0.0;0.0
1700;0.0;0.0;0.0;0.018543999642133713;-0.8559519648551941;0.6558719873428345;0.0;0.0;0.0
1702;0.0;0.0;0.0;-0.06734399497509003;-0.7622559666633606;0.749567985534668;0.0;0.0;0.0
1704;-0.12931999564170837;-0.7327319979667664;0.5214279890060425;-0.19910399615764618;-0.676367998123169;0.8666880130767822;77.60375213623047;257.69189453125;-172.94375610351562
1706;0.0;0.0;0.0;-0.2576639950275421;-0.5358240008354187;1.0052800178527832;0.0;0.0;0.0
1708;0.0;0.0;0.0;-0.37088000774383545;-0.4694559872150421;1.097999930381775;0.0;0.0;0.0
1710;0.0;0.0;0.0;-0.4909279942512512;-0.3484320044517517;1.2121919393539429;0.0;0.0;0.0
1712;-0.5026400089263916;-0.32720398902893066;0.9684360027313232;-0.561199963092804;-0.28596800565719604;1.3498079776763916;79.14375305175781;286.9518737792969;-175.603759765625
1715;0.0;0.0;0.0;-0.6353759765625;-0.17665599286556244;1.467903971672058;0.0;0.0;0.0
1717;0.0;0.0;0.0;-0.685151994228363;-0.07905599474906921;1.5733119249343872;0.0;0.0;0.0
1719;0.0;0.0;0.0;-0.7398079633712769;0.0029279999434947968;1.6787199974060059;0.0;0.0;0.0
1721;-0.8010519742965698;0.05050799995660782;1.42739999294281;-0.7788479924201965;0.08881600201129913;1.808527946472168;74.52375030517578;271.3418884277344;-172.5237579345703
1723;0.0;0.0;0.0;-0.8403359651565552;0.18251200020313263;1.8934400081634521;0.0;0.0;0.0
1725;0.0;0.0;0.0;-0.848143994808197;0.2332639992237091;1.9861599206924438;0.0;0.0;0.0
1727;0.0;0.0;0.0;-0.8832799792289734;0.30743998289108276;2.068143844604492;0.0;0.0;0.0
1729;-0.9647759795188904;0.3635599911212921;1.8336600065231323;-0.8832799792289734;0.36209598183631897;2.1247520446777344;62.76374816894531;217.931884765625;-166.78375244140625
1732;0.0;0.0;0.0;-0.9067040085792542;0.447983980178833;2.1813600063323975;0.0;0.0;0.0
1734;0.0;0.0;0.0;-0.9301279783248901;0.5533919930458069;2.1891679763793945;0.0;0.0;0.0
1736;0.0;0.0;0.0;-0.8949919939041138;0.6158559918403625;2.2213759422302246;0.0;0.0;0.0
1738;-1.040903925895691;0.6700239777565002;2.0376439094543457;-0.9223200082778931;0.7017439603805542;2.2096638679504395;47.223751068115234;144.08187866210938;-162.09375
1740;0.0;0.0;0.0;-0.8793759942054749;0.748591959476471;2.1608638763427734;0.0;0.0;0.0
1742;0.0;0.0;0.0;-0.8637599945068359;0.8461920022964478;2.1403679847717285;0.0;0.0;0.0
1744;0.0;0.0;0.0;-0.7671359777450562;0.896943986415863;2.0798559188842773;0.0;0.0;0.0
1746;-0.9564799666404724;0.9640439748764038;1.9920159578323364;-0.7163839936256409;0.9281759858131409;2.0632638931274414;32.803749084472656;62.88187789916992;-155.0237579345703
1749;0.0;0.0;0.0;-0.6509919762611389;0.9877119660377502;1.9949439764022827;0.0;0.0;0.0
1751;0.0;0.0;0.0;-0.5543680191040039;1.042367935180664;1.9383360147476196;0.0;0.0;0.0
1753;0.0;0.0;0.0;-0.472383975982666;1.085312008857727;1.8690400123596191;0.0;0.0;0.0
1755;-0.6978399753570557;1.1687599420547485;1.798035979270935;-0.48019200563430786;1.1633919477462769;1.825119972229004;24.403749465942383;5.131875038146973;-143.8937530517578
1757;0.0;0.0;0.0;-0.47628799080848694;1.2102400064468384;1.776319980621338;0.0;0.0;0.0
1759;0.0;0.0;0.0;-0.4177280068397522;1.2609919309616089;1.7031199932098389;0.0;0.0;0.0
1761;0.0;0.0;0.0;-0.38259199261665344;1.3000320196151733;1.66212797164917;0.0;0.0;0.0
1763;-0.5397279858589172;1.3834799528121948;1.5886839628219604;-0.3172000050544739;1.370303988456726;1.6143039464950562;19.50374984741211;-14.608124732971191;-130.1737518310547
1766;0.0;0.0;0.0;-0.30060797929763794;1.4161759614944458;1.5938079357147217;0.0;0.0;0.0
1768;0.0;0.0;0.0;-0.2537599802017212;1.3537119626998901;1.508895993232727;0.0;0.0;0.0
1770;0.0;0.0;0.0;-0.19910399615764618;1.435696005821228;1.5615999698638916;0.0;0.0;0.0
1772;-0.38893598318099976;1.537443995475769;1.4281319379806519;-0.23814399540424347;1.5020639896392822;1.5001119375228882;20.34375;-10.478124618530273;-117.01375579833984
1774;0.0;0.0;0.0;-0.22252799570560455;1.5762399435043335;1.5001119375228882;0.0;0.0;0.0
1776;0.0;0.0;0.0;-0.26156800985336304;1.6387039422988892;1.484495997428894;0.0;0.0;0.0
1778;0.0;0.0;0.0;-0.2537599802017212;1.6933599710464478;1.4718079566955566;0.0;0.0;0.0
1781;-0.36453598737716675;1.7599719762802124;1.3615199327468872;-0.2420479953289032;1.8026719093322754;1.484495997428894;30.143749237060547;-3.828125;-98.53375244140625
1783;0.0;0.0;0.0;-0.19910399615764618;1.8065760135650635;1.4718079566955566;0.0;0.0;0.0
1785;0.0;0.0;0.0;-0.21862399578094482;1.818287968635559;1.4474079608917236;0.0;0.0;0.0
1787;0.0;0.0;0.0;-0.1483519971370697;1.8963679075241089;1.484495997428894;0.0;0.0;0.0
1789;-0.3125639855861664;1.9690799713134766;1.3437079191207886;-0.187391996383667;1.9197919368743896;1.5001119375228882;42.32374954223633;-1.5881249904632568;-73.8237533569336
1791;0.0;0.0;0.0;-0.2693759799003601;1.9900639057159424;1.5284159183502197;0.0;0.0;0.0
1793;0.0;0.0;0.0;-0.23423999547958374;2.0095839500427246;1.5284159183502197;0.0;0.0;0.0
1795;0.0;0.0;0.0;-0.28889599442481995;2.1149919033050537;1.5733119249343872;0.0;0.0;0.0
1797;-0.3769800066947937;2.163059949874878;1.417639970779419;-0.31622397899627686;2.15012788772583;1.5899039506912231;54.50374984741211;5.481874942779541;-46.24374771118164
1800;0.0;0.0;0.0;-0.3474559783935547;2.1774559020996094;1.6221119165420532;0.0;0.0;0.0
1802;0.0;0.0;0.0;-0.32793599367141724;2.2086880207061768;1.6221119165420532;0.0;0.0;0.0
1804;0.0;0.0;0.0;-0.35916799306869507;2.1930718421936035;1.6299200057983398;0.0;0.0;0.0
1806;-0.4577440023422241;2.3153159618377686;1.4979159832000732;-0.3630719780921936;2.2008800506591797;1.686527967453003;59.61375045776367;-1.238124966621399;-15.023749351501465
1808;0.0;0.0;0.0;-0.3474559783935547;2.1657440662384033;1.686527967453003;0.0;0.0;0.0
1810;0.0;0.0;0.0;-0.37088000774383545;2.1930718421936035;1.6748160123825073;0.0;0.0;0.0
1812;0.0;0.0;0.0;-0.3903999924659729;2.1852638721466064;1.6914079189300537;0.0;0.0;0.0
1815;-0.49824798107147217;2.3065319061279297;1.5528159141540527;-0.4050399959087372;2.1657440662384033;1.6826239824295044;57.86375045776367;-13.908124923706055;12.976250648498535
1817;0.0;0.0;0.0;-0.4050399959087372;2.146224021911621;1.6826239824295044;0.0;0.0;0.0
1819;0.0;0.0;0.0;-0.39820799231529236;2.130607843399048;1.6826239824295044;0.0;0.0;0.0
1821;0.0;0.0;0.0;-0.40113598108291626;2.130607843399048;1.6709120273590088;0.0;0.0;0.0
1823;-0.5316759943962097;2.2662720680236816;1.5403720140457153;-0.40113598108291626;2.122799873352051;1.6748160123825073;50.443748474121094;-33.578125;37.33625030517578
1825;0.0;0.0;0.0;-0.39430397748947144;2.138416051864624;1.6465119123458862;0.0;0.0;0.0
1827;0.0;0.0;0.0;-0.44017598032951355;2.118896007537842;1.6338239908218384;0.0;0.0;0.0
1829;0.0;0.0;0.0;-0.42846399545669556;2.0876638889312744;1.6016160249710083;0.0;0.0;0.0
1832;-0.5365560054779053;2.244555950164795;1.4891319274902344;-0.42455998063087463;2.0993759632110596;1.5859999656677246;37.98374938964844;-58.77812576293945;59.946250915527344
1834;0.0;0.0;0.0;-0.42455998063087463;2.0837600231170654;1.5450079441070557;0.0;0.0;0.0
1836;0.0;0.0;0.0;-0.4050399959087372;2.068143844604492;1.5040159225463867;0.0;0.0;0.0
1838;0.0;0.0;0.0;-0.3513599932193756;2.052527904510498;1.467903971672058;0.0;0.0;0.0
1840;-0.5206959843635559;2.1840438842773438;1.362496018409729;-0.34355199337005615;1.9627360105514526;1.4151999950408936;17.54374885559082;-87.12812805175781;82.06624603271484
1842;0.0;0.0;0.0;-0.30060797929763794;1.9158879518508911;1.3546879291534424;0.0;0.0;0.0
1844;0.0;0.0;0.0;-0.2693759799003601;1.900272011756897;1.3019839525222778;0.0;0.0;0.0
1846;0.0;0.0;0.0;-0.187391996383667;1.8924639225006104;1.2287839651107788;0.0;0.0;0.0
1849;-0.35697197914123535;2.036668062210083;1.172663927078247;-0.10247999429702759;1.8885599374771118;1.1594879627227783;-7.236249923706055;-99.51812744140625;99.84624481201172
1851;0.0;0.0;0.0;-0.1298079937696457;1.818287968635559;1.1389919519424438;0.0;0.0;0.0
1853;0.0;0.0;0.0;-0.2654719948768616;1.708975911140442;1.1594879627227783;0.0;0.0;0.0
1855;0.0;0.0;0.0;-0.4138239920139313;1.5528159141540527;1.1428959369659424;0.0;0.0;0.0
1857;-0.39479199051856995;1.8014519214630127;1.0169919729232788;-0.46750399470329285;1.4122719764709473;1.0940959453582764;-26.20625114440918;-91.18812561035156;116.99624633789062
1859;0.0;0.0;0.0;-0.3972319960594177;1.2717279195785522;1.0491999387741089;0.0;0.0;0.0
1861;0.0;0.0;0.0;-0.2420479953289032;1.146799921989441;1.0003999471664429;0.0;0.0;0.0
1863;0.0;0.0;0.0;-0.05953599885106087;1.1116639375686646;0.9925919771194458;0.0;0.0;0.0
1866;-0.346235990524292;1.3249199390411377;0.8879159688949585;-0.024399999529123306;1.0687199831008911;0.9681919813156128;-50.42625045776367;-92.3081283569336;131.76625061035156
1868;0.0;0.0;0.0;-0.06734399497509003;1.0531039237976074;0.9281759858131409;0.0;0.0;0.0
1870;0.0;0.0;0.0;-0.16396799683570862;0.9633119702339172;0.9193919897079468;0.0;0.0;0.0
1872;0.0;0.0;0.0;-0.19910399615764618;0.9398880004882812;0.8754720091819763;0.0;0.0;0.0
1874;-0.2640079855918884;1.111907958984375;0.7886079549789429;-0.29280000925064087;0.9164639711380005;0.8588799834251404;-65.33625030517578;-68.01812744140625;133.51625061035156
1876;0.0;0.0;0.0;-0.27718400955200195;0.8500959873199463;0.7778719663619995;0.0;0.0;0.0
1878;0.0;0.0;0.0;-0.2576639950275421;0.8110559582710266;0.7700639963150024;0.0;0.0;0.0
1880;0.0;0.0;0.0;-0.2147199958562851;0.725167989730835;0.7212640047073364;0.0;0.0;0.0
1883;-0.3596560060977936;0.9135359525680542;0.642695963382721;-0.1298079937696457;0.6392799615859985;0.7046719789505005;-69.2562484741211;-69.34812927246094;141.9862518310547
1885;0.0;0.0;0.0;-0.1298079937696457;0.5846239924430847;0.6880800127983093;0.0;0.0;0.0
1887;0.0;0.0;0.0;-0.11711999773979187;0.5026400089263916;0.6558719873428345;0.0;0.0;0.0
1889;0.0;0.0;0.0;-0.12199999392032623;0.4714079797267914;0.6685599684715271;0.0;0.0;0.0
1891;-0.24473199248313904;0.6507480144500732;0.5519279837608337;-0.12590399384498596;0.3816159963607788;0.6353759765625;-59.526248931884766;-68.01812744140625;153.46624755859375
1893;0.0;0.0;0.0;-0.1454239934682846;0.3152479827404022;0.6685599684715271;0.0;0.0;0.0
1895;0.0;0.0;0.0;-0.15615999698638916;0.25278398394584656;0.5953599810600281;0.0;0.0;0.0
1897;0.0;0.0;0.0;-0.1600639969110489;0.20203199982643127;0.6353759765625;0.0;0.0;0.0
1900;-0.2808440029621124;0.3933279812335968;0.509227991104126;-0.15225599706172943;0.11614400148391724;0.6197599768638611;-45.036251068115234;-55.768123626708984;161.93624877929688
1902;0.0;0.0;0.0;-0.15225599706172943;0.08100800216197968;0.6275680065155029;0.0;0.0;0.0
1904;0.0;0.0;0.0;-0.1600639969110489;0.03806399926543236;0.6441599726676941;0.0;0.0;0.0
1906;0.0;0.0;0.0;-0.1600639969110489;-0.01659199967980385;0.6402559876441956;0.0;0.0;0.0
1908;-0.2971920073032379;0.1676279902458191;0.5067880153656006;-0.21862399578094482;-0.07515199482440948;0.6353759765625;-29.356250762939453;-48.62812423706055;168.58624267578125
1910;0.0;0.0;0.0;-0.23814399540424347;-0.13761599361896515;0.6275680065155029;0.0;0.0;0.0
1912;0.0;0.0;0.0;-0.24595199525356293;-0.19617599248886108;0.6158559918403625;0.0;0.0;0.0
1914;0.0;0.0;0.0;-0.2654719948768616;-0.2235039919614792;0.6480640172958374;0.0;0.0;0.0
1917;-0.3681959807872772;-0.04025999829173088;0.5163040161132812;-0.24985599517822266;-0.2664479911327362;0.659775972366333;-16.196250915527344;-47.29812240600586;173.13624572753906
1919;0.0;0.0;0.0;-0.2537599802017212;-0.34062400460243225;0.6558719873428345;0.0;0.0;0.0
1921;0.0;0.0;0.0;-0.26156800985336304;-0.4265120029449463;0.6685599684715271;0.0;0.0;0.0
1923;0.0;0.0;0.0;-0.230335995554924;-0.4928799867630005;0.6646559834480286;0.0;0.0;0.0
1925;-0.3713679909706116;-0.289139986038208;0.5431439876556396;-0.23814399540424347;-0.5943840146064758;0.6802719831466675;-11.366250038146973;-46.45812225341797;173.76625061035156
1927;0.0;0.0;0.0;-0.2537599802017212;-0.6568480134010315;0.676367998123169;0.0;0.0;0.0
1929;0.0;0.0;0.0;-0.2810879945755005;-0.7193120121955872;0.6685599684715271;0.0;0.0;0.0
1931;0.0;0.0;0.0;-0.27718400955200195;-0.7817760109901428;0.6802719831466675;0.0;0.0;0.0
1934;-0.3835679888725281;-0.5829159617424011;0.5516839623451233;-0.31622397899627686;-0.848143994808197;0.6480640172958374;-13.816250801086426;-36.518123626708984;168.93624877929688
1936;0.0;0.0;0.0;-0.3123199939727783;-0.9223200082778931;0.6636799573898315;0.0;0.0;0.0
1938;0.0;0.0;0.0;-0.30451199412345886;-1.0043039321899414;0.6402559876441956;0.0;0.0;0.0
1940;0.0;0.0;0.0;-0.284991979598999;-1.0823839902877808;0.6724640130996704;0.0;0.0;0.0
1942;-0.4252919852733612;-0.8735199570655823;0.5380200147628784;-0.3201279938220978;-1.1370400190353394;0.6880800127983093;-18.016250610351562;-31.338125228881836;161.79624938964844
1944;0.0;0.0;0.0;-0.2537599802017212;-1.3205280303955078;0.6197599768638611;0.0;0.0;0.0
1946;0.0;0.0;0.0;-0.2967039942741394;-1.4649759531021118;0.6441599726676941;0.0;0.0;0.0
1948;0.0;0.0;0.0;-0.2576639950275421;-1.5430560111999512;0.6558719873428345;0.0;0.0;0.0
1951;-0.38015198707580566;-1.3088159561157227;0.5226479768753052;-0.17958399653434753;-1.7070239782333374;0.6646559834480286;-25.646249771118164;-31.05812644958496;150.80624389648438
1953;0.0;0.0;0.0;-0.13761599361896515;-1.851472020149231;0.676367998123169;0.0;0.0;0.0
1955;0.0;0.0;0.0;-0.13371199369430542;-1.988111972808838;0.6558719873428345;0.0;0.0;0.0
1957;0.0;0.0;0.0;-0.10638399422168732;-2.1286559104919434;0.6724640130996704;0.0;0.0;0.0
1959;-0.25156399607658386;-1.8475679159164429;0.5494880080223083;-0.08686399459838867;-2.269199848175049;0.6724640130996704;-36.49625015258789;-11.73812484741211;131.2762451171875
1961;0.0;0.0;0.0;-0.08686399459838867;-2.3980319499969482;0.6968640089035034;0.0;0.0;0.0
1963;0.0;0.0;0.0;-0.10247999429702759;-2.5112478733062744;0.732975959777832;0.0;0.0;0.0
1965;0.0;0.0;0.0;-0.0907679945230484;-2.6244640350341797;0.7778719663619995;0.0;0.0;0.0
1968;-0.22374799847602844;-2.3768038749694824;0.6226879954338074;-0.08686399459838867;-2.7845280170440674;0.8139839768409729;-45.38624954223633;28.37187385559082;103.13624572753906
1970;0.0;0.0;0.0;-0.11419199407100677;-2.8782238960266113;0.8588799834251404;0.0;0.0;0.0
1972;0.0;0.0;0.0;-0.11028799414634705;-2.9758238792419434;0.9076799750328064;0.0;0.0;0.0
1974;0.0;0.0;0.0;-0.13371199369430542;-3.0656158924102783;0.9681919813156128;0.0;0.0;0.0
1976;-0.2349720001220703;-2.835279941558838;0.7876319885253906;-0.13371199369430542;-3.1554079055786133;1.0169919729232788;-49.58625030517578;67.36186981201172;69.18624877929688
1978;0.0;0.0;0.0;-0.187391996383667;-3.2608158588409424;1.0823839902877808;0.0;0.0;0.0
1980;0.0;0.0;0.0;-0.2420479953289032;-3.327183961868286;1.122399926185608;0.0;0.0;0.0
1982;0.0;0.0;0.0;-0.3201279938220978;-3.397455930709839;1.1877919435501099;0.0;0.0;0.0
1985;-0.3757599890232086;-3.1712679862976074;0.9886879920959473;-0.3630719780921936;-3.4403998851776123;1.2082879543304443;-46.15625;91.86186981201172;31.94624900817871
1987;0.0;0.0;0.0;-0.37088000774383545;-3.462847948074341;1.2248799800872803;0.0;0.0;0.0
1989;0.0;0.0;0.0;-0.4089439809322357;-3.466752052307129;1.2414720058441162;0.0;0.0;0.0
1991;0.0;0.0;0.0;-0.42846399545669556;-3.470655918121338;1.2531839609146118;0.0;0.0;0.0
1993;-0.5236240029335022;-3.3096158504486084;1.108247995376587;-0.42846399545669556;-3.4511358737945557;1.2287839651107788;-33.90625;80.31187438964844;-4.663750171661377
1995;0.0;0.0;0.0;-0.4323679804801941;-3.405263900756836;1.2004799842834473;0.0;0.0;0.0
1997;0.0;0.0;0.0;-0.436271995306015;-3.323279857635498;1.1965759992599487;0.0;0.0;0.0
1999;0.0;0.0;0.0;-0.3474559783935547;-3.2881438732147217;1.1145919561386108;0.0;0.0;0.0
2002;-0.5311880111694336;-3.1944479942321777;1.0313879251480103;-0.3201279938220978;-3.225679874420166;1.0491999387741089;-9.126250267028809;26.5518741607666;-37.77375030517578
2004;0.0;0.0;0.0;-0.28889599442481995;-3.0968480110168457;0.9964959621429443;0.0;0.0;0.0
2006;0.0;0.0;0.0;-0.20691199600696564;-3.0578079223632812;0.9037759900093079;0.0;0.0;0.0
2008;0.0;0.0;0.0;-0.1327359974384308;-2.936784029006958;0.8510719537734985;0.0;0.0;0.0
2010;-0.32427600026130676;-2.891155958175659;0.7981239557266235;-0.09857599437236786;-2.850895881652832;0.7612800002098083;21.393749237060547;-30.848125457763672;-67.52375030517578
2012;0.0;0.0;0.0;-0.0009759999811649323;-2.7181599140167236;0.6929599642753601;0.0;0.0;0.0
2014;0.0;0.0;0.0;0.053679998964071274;-2.6166560649871826;0.6070719957351685;0.0;0.0;0.0
2017;0.0;0.0;0.0;0.13078400492668152;-2.468303918838501;0.563152015209198;0.0;0.0;0.0
2019;-0.07149200141429901;-2.4612278938293457;0.5014199614524841;0.16201600432395935;-2.362895965576172;0.4772639870643616;46.59375;-55.90812301635742;-93.4937515258789
2021;0.0;0.0;0.0;0.22448000311851501;-2.198927879333496;0.4655520021915436;0.0;0.0;0.0
2023;0.0;0.0;0.0;0.2752319872379303;-2.08571195602417;0.4167519807815552;0.0;0.0;0.0
2025;0.0;0.0;0.0;0.3142719864845276;-1.9373599290847778;0.3962559998035431;0.0;0.0;0.0
2027;0.14615599811077118;-1.9376039505004883;0.3159799873828888;0.3484320044517517;-1.8436639308929443;0.3601439893245697;62.903751373291016;-39.73812484741211;-115.75375366210938
2029;0.0;0.0;0.0;0.3572160005569458;-1.7421599626541138;0.3718560039997101;0.0;0.0;0.0
2031;0.0;0.0;0.0;0.3718560039997101;-1.5899039506912231;0.3474559783935547;0.0;0.0;0.0
2034;0.0;0.0;0.0;0.3640480041503906;-1.484495997428894;0.3474559783935547;0.0;0.0;0.0
2036;0.2408279925584793;-1.4500919580459595;0.2547360062599182;0.3484320044517517;-1.3322399854660034;0.3845439851284027;68.01375579833984;11.641875267028809;-134.5137481689453
2038;0.0;0.0;0.0;0.34355199337005615;-1.2414720058441162;0.4001599848270416;0.0;0.0;0.0
2040;0.0;0.0;0.0;0.32500800490379333;-1.1594879627227783;0.4450559914112091;0.0;0.0;0.0
2042;0.0;0.0;0.0;0.27425599098205566;-1.0111359357833862;0.4938559830188751;0.0;0.0;0.0
2044;0.18544000387191772;-0.9891759753227234;0.3369639813899994;0.23131199181079865;-0.9252479672431946;0.5348479747772217;67.8737564086914;79.5418701171875;-147.32374572753906
2046;0.0;0.0;0.0;0.19227199256420135;-0.8159359693527222;0.6236639618873596;0.0;0.0;0.0
2048;0.0;0.0;0.0;0.14151999354362488;-0.7027199864387512;0.6929599642753601;0.0;0.0;0.0
2051;0.0;0.0;0.0;0.0605119988322258;-0.6012159585952759;0.7212640047073364;0.0;0.0;0.0
2053;0.005367999896407127;-0.5799880027770996;0.5572959780693054;0.037087999284267426;-0.5192319750785828;0.8266719579696655;66.96375274658203;138.7618865966797;-152.9237518310547
2055;0.0;0.0;0.0;-0.04391999915242195;-0.44993600249290466;0.8793759942054749;0.0;0.0;0.0
2057;0.0;0.0;0.0;-0.11028799414634705;-0.35624000430107117;0.9681919813156128;0.0;0.0;0.0
2059;0.0;0.0;0.0;-0.19519999623298645;-0.2898719906806946;1.0491999387741089;0.0;0.0;0.0
2061;-0.24131599068641663;-0.2479040026664734;0.8344799876213074;-0.2420479953289032;-0.24302399158477783;1.1350879669189453;69.13375091552734;166.62188720703125;-152.853759765625
2063;0.0;0.0;0.0;-0.29280000925064087;-0.17665599286556244;1.2209759950637817;0.0;0.0;0.0
2065;0.0;0.0;0.0;-0.3201279938220978;-0.11028799414634705;1.2570879459381104;0.0;0.0;0.0
2068;0.0;0.0;0.0;-0.374783992767334;-0.020495999604463577;1.3986079692840576;0.0;0.0;0.0
2070;-0.4579879939556122;0.030988000333309174;1.1504600048065186;-0.39820799231529236;0.03806399926543236;1.419103980064392;69.83375549316406;158.99188232421875;-149.21376037597656
2072;0.0;0.0;0.0;-0.447983980178833;0.0849120020866394;1.4962079524993896;0.0;0.0;0.0
2074;0.0;0.0;0.0;-0.45188799500465393;0.1395680010318756;1.5450079441070557;0.0;0.0;0.0
2076;0.0;0.0;0.0;-0.5065439939498901;0.205935999751091;1.5772159099578857;0.0;0.0;0.0
2078;-0.5873079895973206;0.28181999921798706;1.405195951461792;-0.5026400089263916;0.2879199981689453;1.6260160207748413;63.95375061035156;127.0718765258789;-145.0137481689453
2080;0.0;0.0;0.0;-0.5338720083236694;0.29572799801826477;1.6748160123825073;0.0;0.0;0.0
2082;0.0;0.0;0.0;-0.5065439939498901;0.38942399621009827;1.7031199932098389;0.0;0.0;0.0
2085;0.0;0.0;0.0;-0.5416799783706665;0.4440799951553345;1.7236160039901733;0.0;0.0;0.0
2087;-0.6592879891395569;0.521183967590332;1.5611119270324707;-0.5729119777679443;0.4870239794254303;1.7441120147705078;54.01374816894531;84.4418716430664;-141.16375732421875
2089;0.0;0.0;0.0;-0.5299679636955261;0.5260639786720276;1.7519199848175049;0.0;0.0;0.0
2091;0.0;0.0;0.0;-0.5338720083236694;0.5846239924430847;1.7519199848175049;0.0;0.0;0.0
2093;0.0;0.0;0.0;-0.5143519639968872;0.6080479621887207;1.7236160039901733;0.0;0.0;0.0
2095;-0.6546519994735718;0.7083320021629333;1.5930759906768799;-0.4909279942512512;0.6431840062141418;1.6914079189300537;39.59375;35.79187774658203;-136.61375427246094
2097;0.0;0.0;0.0;-0.42846399545669556;0.6627039909362793;1.6670079231262207;0.0;0.0;0.0
2099;0.0;0.0;0.0;-0.4323679804801941;0.7017439603805542;1.6094239950180054;0.0;0.0;0.0
2102;0.0;0.0;0.0;-0.3786879777908325;0.748591959476471;1.5899039506912231;0.0;0.0;0.0
2104;-0.5431439876556396;0.832040011882782;1.4774199724197388;-0.3513599932193756;0.7407839894294739;1.5206079483032227;26.50374984741211;-7.958125114440918;-130.45375061035156
2106;0.0;0.0;0.0;-0.3084160089492798;0.7524960041046143;1.4395999908447266;0.0;0.0;0.0
2108;0.0;0.0;0.0;-0.284991979598999;0.7642079591751099;1.4151999950408936;0.0;0.0;0.0
2110;0.0;0.0;0.0;-0.230335995554924;0.7798239588737488;1.370303988456726;0.0;0.0;0.0
2112;-0.4043079912662506;0.9076799750328064;1.2897839546203613;-0.19129599630832672;0.8422879576683044;1.3019839525222778;17.823749542236328;-37.358123779296875;-121.63375091552734
2114;0.0;0.0;0.0;-0.19519999623298645;0.8774240016937256;1.3019839525222778;0.0;0.0;0.0
2116;0.0;0.0;0.0;-0.1600639969110489;0.912559986114502;1.2326879501342773;0.0;0.0;0.0
2119;0.0;0.0;0.0;-0.0907679945230484;0.9164639711380005;1.1760799884796143;0.0;0.0;0.0
2121;-0.26449599862098694;1.0260199308395386;1.097756028175354;-0.028303999453783035;0.9359839558601379;1.1184959411621094;12.573749542236328;-49.81812286376953;-111.13375091552734
2123;0.0;0.0;0.0;-0.0058559998869895935;0.9759999513626099;1.0696959495544434;0.0;0.0;0.0
2125;0.0;0.0;0.0;0.0019519999623298645;1.0033279657363892;1.0657919645309448;0.0;0.0;0.0
2127;0.0;0.0;0.0;0.05270399898290634;1.0384639501571655;1.0130879878997803;0.0;0.0;0.0
2129;-0.10906799882650375;1.1475319862365723;0.9450119733810425;0.04879999905824661;1.1712000370025635;1.073599934577942;14.25374984741211;-42.88812255859375;-101.05374908447266
2131;0.0;0.0;0.0;0.0331839993596077;1.1165440082550049;1.0130879878997803;0.0;0.0;0.0
2133;0.0;0.0;0.0;0.0605119988322258;1.073599934577942;0.9525759816169739;0.0;0.0;0.0
2136;0.0;0.0;0.0;0.04879999905824661;1.1868159770965576;1.0003999471664429;0.0;0.0;0.0
2138;-0.06295199692249298;1.2705079317092896;0.8801079988479614;0.08393599838018417;1.2414720058441162;1.0413919687271118;21.95374870300293;-23.778125762939453;-86.77375030517578
2140;0.0;0.0;0.0;0.049775999039411545;1.2600159645080566;1.0247999429702759;0.0;0.0;0.0
2142;0.0;0.0;0.0;-0.00878399983048439;1.1858400106430054;0.9925919771194458;0.0;0.0;0.0
2144;0.0;0.0;0.0;0.057583998888731;1.377135992050171;1.0784800052642822;0.0;0.0;0.0
2146;-0.0849120020866394;1.4413080215454102;0.9237839579582214;0.018543999642133713;1.5176799297332764;1.1428959369659424;34.903751373291016;-0.6781250238418579;-69.06375122070312
2149;0.0;0.0;0.0;-0.032207999378442764;1.334191918373108;1.0940959453582764;0.0;0.0;0.0
2150;0.0;0.0;0.0;-0.004879999905824661;1.4981600046157837;1.2248799800872803;0.0;0.0;0.0
2153;0.0;0.0;0.0;0.018543999642133713;1.5489119291305542;1.2697759866714478;0.0;0.0;0.0
2155;-0.13859200477600098;1.6057639122009277;1.0784800052642822;-0.07905599474906921;1.5137759447097778;1.28929603099823;44.00374984741211;17.311874389648438;-50.443748474121094
2157;0.0;0.0;0.0;-0.08686399459838867;1.5684319734573364;1.3507839441299438;0.0;0.0;0.0
2159;0.0;0.0;0.0;-0.09857599437236786;1.6543200016021729;1.411296010017395;0.0;0.0;0.0
2161;0.0;0.0;0.0;-0.15225599706172943;1.6660319566726685;1.419103980064392;0.0;0.0;0.0
2163;-0.24155999720096588;1.7599719762802124;1.2514759302139282;-0.21081599593162537;1.708975911140442;1.4513119459152222;45.123748779296875;22.141874313354492;-31.75374984741211
2165;0.0;0.0;0.0;-0.17177599668502808;1.7831519842147827;1.4805920124053955;0.0;0.0;0.0
2167;0.0;0.0;0.0;-0.21081599593162537;1.8221919536590576;1.5528159141540527;0.0;0.0;0.0
2170;0.0;0.0;0.0;-0.2537599802017212;1.8221919536590576;1.5528159141540527;0.0;0.0;0.0
2172;-0.3450160026550293;1.9312599897384644;1.3888479471206665;-0.2810879945755005;1.857327938079834;1.5615999698638916;40.29375076293945;11.851875305175781;-12.85374927520752
2174;0.0;0.0;0.0;-0.30158400535583496;1.8856319189071655;1.5811200141906738;0.0;0.0;0.0
2176;0.0;0.0;0.0;-0.3093920052051544;1.8973439931869507;1.5528159141540527;0.0;0.0;0.0
2178;0.0;0.0;0.0;-0.3172000050544739;1.9207680225372314;1.5694079399108887;0.0;0.0;0.0
2180;-0.4365159869194031;2.0225160121917725;1.4281319379806519;-0.34062400460243225;1.9012479782104492;1.5850239992141724;31.403749465942383;-15.028124809265137;8.566250801086426
2182;0.0;0.0;0.0;-0.3211039900779724;1.8661119937896729;1.5450079441070557;0.0;0.0;0.0
2185;0.0;0.0;0.0;-0.34062400460243225;1.881727933883667;1.5284159183502197;0.0;0.0;0.0
2187;0.0;0.0;0.0;-0.27425599098205566;1.87391996383667;1.5040159225463867;0.0;0.0;0.0
2189;-0.4328559935092926;2.007143974304199;1.3837239742279053;-0.28596800565719604;1.8543999195098877;1.4474079608917236;17.613750457763672;-46.80812454223633;29.076250076293945
2191;0.0;0.0;0.0;-0.2664479911327362;1.8075519800186157;1.4317920207977295;0.0;0.0;0.0
2193;0.0;0.0;0.0;-0.22740799188613892;1.8192639350891113;1.3829920291900635;0.0;0.0;0.0
2195;0.0;0.0;0.0;-0.20788799226284027;1.7685120105743408;1.3498079776763916;0.0;0.0;0.0
2197;-0.36209598183631897;1.9293079376220703;1.254159927368164;-0.19227199256420135;1.7411839962005615;1.2932000160217285;-0.5862500667572021;-70.25812530517578;45.946250915527344
2200;0.0;0.0;0.0;-0.16103999316692352;1.7333760261535645;1.2609919309616089;0.0;0.0;0.0
2202;0.0;0.0;0.0;-0.1424959897994995;1.6943359375;1.1712000370025635;0.0;0.0;0.0
2204;0.0;0.0;0.0;-0.15030398964881897;1.6787199974060059;1.122399926185608;0.0;0.0;0.0
2206;-0.27669599652290344;1.8373199701309204;1.0533479452133179;-0.11126399785280228;1.6357759237289429;1.0618879795074463;-18.716251373291016;-83.9781265258789;61.136253356933594
2208;0.0;0.0;0.0;-0.07124799489974976;1.6269919872283936;1.0247999429702759;0.0;0.0;0.0
2210;0.0;0.0;0.0;-0.05563199892640114;1.5879520177841187;0.9769759774208069;0.0;0.0;0.0
2212;0.0;0.0;0.0;-0.0009759999811649323;1.5606240034103394;0.9525759816169739;0.0;0.0;0.0
2214;-0.17348399758338928;1.7194679975509644;0.8559519648551941;-0.024399999529123306;1.4981600046157837;0.9154880046844482;-30.966251373291016;-87.828125;77.37625122070312
2216;0.0;0.0;0.0;-0.01268799975514412;1.4708319902420044;0.8666880130767822;0.0;0.0;0.0
2219;0.0;0.0;0.0;-0.004879999905824661;1.4083679914474487;0.84716796875;0.0;0.0;0.0
2221;0.0;0.0;0.0;-0.01659199967980385;1.3615199327468872;0.8139839768409729;0.0;0.0;0.0
2223;-0.11882799863815308;1.5364680290222168;0.7246800065040588;-0.0009759999811649323;1.2990559339523315;0.8100799918174744;-40.13624954223633;-78.37812805175781;93.96624755859375
2225;0.0;0.0;0.0;0.0302559994161129;1.2287839651107788;0.8061760067939758;0.0;0.0;0.0
2227;0.0;0.0;0.0;0.0302559994161129;1.1741279363632202;0.7934879660606384;0.0;0.0;0.0
2229;0.0;0.0;0.0;-0.0009759999811649323;1.1233760118484497;0.8022719621658325;0.0;0.0;0.0
2231;-0.10467600077390671;1.30295991897583;0.6766119599342346;-0.0009759999811649323;1.0452959537506104;0.7778719663619995;-48.32625198364258;-57.448123931884766;107.89624786376953
2234;0.0;0.0;0.0;0.006831999868154526;0.9711199998855591;0.8022719621658325;0.0;0.0;0.0
2236;0.0;0.0;0.0;-0.0907679945230484;1.0570080280303955;0.84716796875;0.0;0.0;0.0
2238;0.0;0.0;0.0;-0.07124799489974976;0.9086560010910034;0.822767972946167;0.0;0.0;0.0
2240;-0.1705559939146042;1.099951982498169;0.6910079717636108;-0.09467199444770813;0.9008479714393616;0.822767972946167;-54.90625;-32.108123779296875;117.69625091552734
2242;0.0;0.0;0.0;-0.16787199676036835;0.822767972946167;0.8754720091819763;0.0;0.0;0.0
2244;0.0;0.0;0.0;-0.1756799966096878;0.7524960041046143;0.8510719537734985;0.0;0.0;0.0
2246;0.0;0.0;0.0;-0.2147199958562851;0.7134559750556946;0.84716796875;0.0;0.0;0.0
2248;-0.2971920073032379;0.8879159688949585;0.7271199822425842;-0.21862399578094482;0.6353759765625;0.8383839726448059;-59.946250915527344;-21.328125;128.05624389648438
2251;0.0;0.0;0.0;-0.21862399578094482;0.5533919930458069;0.8305760025978088;0.0;0.0;0.0
2253;0.0;0.0;0.0;-0.24595199525356293;0.4909279942512512;0.822767972946167;0.0;0.0;0.0
2255;0.0;0.0;0.0;-0.27327999472618103;0.4206559956073761;0.798367977142334;0.0;0.0;0.0
2257;-0.3640480041503906;0.6136599779129028;0.6949119567871094;-0.27327999472618103;0.29572799801826477;0.7895839810371399;-57.84625244140625;-27.6981258392334;136.9462432861328
2259;0.0;0.0;0.0;-0.2664479911327362;0.26156800985336304;0.8061760067939758;0.0;0.0;0.0
2261;0.0;0.0;0.0;-0.24302399158477783;0.18348799645900726;0.7856799960136414;0.0;0.0;0.0
2263;0.0;0.0;0.0;-0.27035200595855713;0.14444799721240997;0.7778719663619995;0.0;0.0;0.0
2265;-0.3764919936656952;0.31915199756622314;0.6544079780578613;-0.23131199181079865;0.08198399841785431;0.7856799960136414;-49.026248931884766;-42.88812255859375;144.2262420654297
2267;0.0;0.0;0.0;-0.2391199916601181;0.023423999547958374;0.7651839852333069;0.0;0.0;0.0
2270;0.0;0.0;0.0;-0.2820639908313751;-0.03903999924659729;0.7456640005111694;0.0;0.0;0.0
2272;0.0;0.0;0.0;-0.2508319914340973;-0.14444799721240997;0.7290719747543335;0.0;0.0;0.0
2274;-0.37331998348236084;0.07954400032758713;0.6268360018730164;-0.23131199181079865;-0.21081599593162537;0.7290719747543335;-42.58625030517578;-50.37812423706055;148.42625427246094
2276;0.0;0.0;0.0;-0.23814399540424347;-0.2937760055065155;0.708575963973999;0.0;0.0;0.0
2278;0.0;0.0;0.0;-0.2030079960823059;-0.36795198917388916;0.6880800127983093;0.0;0.0;0.0
2280;0.0;0.0;0.0;-0.23814399540424347;-0.4538399875164032;0.684175968170166;0.0;0.0;0.0
2282;-0.3533119857311249;-0.24814799427986145;0.5814520120620728;-0.21862399578094482;-0.5943840146064758;0.6890559792518616;-40.696250915527344;-47.0881233215332;149.4762420654297
2285;0.0;0.0;0.0;-0.24985599517822266;-0.6919839978218079;0.6685599684715271;0.0;0.0;0.0
2287;0.0;0.0;0.0;-0.24985599517822266;-0.7817760109901428;0.6724640130996704;0.0;0.0;0.0
2289;0.0;0.0;0.0;-0.2576639950275421;-0.8871839642524719;0.659775972366333;0.0;0.0;0.0
2291;-0.3752720057964325;-0.6563599705696106;0.5475360155105591;-0.28889599442481995;-1.012112021446228;0.6724640130996704;-37.82625198364258;-38.68812561035156;147.4462432861328
2293;0.0;0.0;0.0;-0.284991979598999;-1.101904034614563;0.676367998123169;0.0;0.0;0.0
2295;0.0;0.0;0.0;-0.2537599802017212;-1.2424479722976685;0.6685599684715271;0.0;0.0;0.0
2297;0.0;0.0;0.0;-0.2537599802017212;-1.3517600297927856;0.6685599684715271;0.0;0.0;0.0
2299;-0.3903999924659729;-1.1060519218444824;0.5504639744758606;-0.22252799570560455;-1.5274399518966675;0.6685599684715271;-36.84625244140625;-35.95812225341797;141.42625427246094
2302;0.0;0.0;0.0;-0.1600639969110489;-1.679695963859558;0.6685599684715271;0.0;0.0;0.0
2304;0.0;0.0;0.0;-0.15615999698638916;-1.800719976425171;0.7124800086021423;0.0;0.0;0.0
2306;0.0;0.0;0.0;-0.09857599437236786;-1.9217439889907837;0.749567985534668;0.0;0.0;0.0
2308;-0.27035200595855713;-1.6426079273223877;0.6046319603919983;-0.07124799489974976;-2.0427680015563965;0.798367977142334;-41.74625015258789;-22.868125915527344;126.51625061035156
2310;0.0;0.0;0.0;-0.04391999915242195;-2.1481759548187256;0.8383839726448059;0.0;0.0;0.0
2312;0.0;0.0;0.0;-0.06734399497509003;-2.2535839080810547;0.8754720091819763;0.0;0.0;0.0
2314;0.0;0.0;0.0;-0.1180959939956665;-2.277008056640625;0.9720959663391113;0.0;0.0;0.0
2316;-0.20495998859405518;-2.0905919075012207;0.7778719663619995;-0.06734399497509003;-2.4175519943237305;1.0208959579467773;-55.74625015258789;18.01187515258789;100.54624938964844
2319;0.0;0.0;0.0;-0.11028799414634705;-2.5190558433532715;1.101904034614563;0.0;0.0;0.0
2321;0.0;0.0;0.0;-0.14151999354362488;-2.546383857727051;1.2004799842834473;0.0;0.0;0.0
2323;0.0;0.0;0.0;-0.15323199331760406;-2.6244640350341797;1.2326879501342773;0.0;0.0;0.0
2325;-0.26327598094940186;-2.418527841567993;1.0418800115585327;-0.2147199958562851;-2.6908318996429443;1.2697759866714478;-77.23624420166016;68.76187133789062;66.5262451171875
2327;0.0;0.0;0.0;-0.30158400535583496;-2.7874560356140137;1.3420000076293945;0.0;0.0;0.0
2329;0.0;0.0;0.0;-0.3835679888725281;-2.8577280044555664;1.370303988456726;0.0;0.0;0.0
2331;0.0;0.0;0.0;-0.4411519765853882;-2.8889598846435547;1.419103980064392;0.0;0.0;0.0
2333;-0.4958080053329468;-2.6891238689422607;1.2414720058441162;-0.49190399050712585;-2.927999973297119;1.4552159309387207;-92.07624816894531;92.35187530517578;30.966249465942383
2336;0.0;0.0;0.0;-0.5387519598007202;-2.9670400619506836;1.467903971672058;0.0;0.0;0.0
2338;0.0;0.0;0.0;-0.562175989151001;-3.00217604637146;1.4796159267425537;0.0;0.0;0.0
2340;0.0;0.0;0.0;-0.5660799741744995;-3.0529279708862305;1.4395999908447266;0.0;0.0;0.0
2342;-0.6617279648780823;-2.8652918338775635;1.3283360004425049;-0.5270400047302246;-3.0529279708862305;1.4395999908447266;-87.5262451171875;57.00187683105469;-0.8837499618530273
2344;0.0;0.0;0.0;-0.5299679636955261;-3.046095848083496;1.4073920249938965;0.0;0.0;0.0
2346;0.0;0.0;0.0;-0.45579198002815247;-3.042191982269287;1.3498079776763916;0.0;0.0;0.0
2348;0.0;0.0;0.0;-0.42455998063087463;-3.0031518936157227;1.2814879417419434;0.0;0.0;0.0
2350;-0.5926759839057922;-2.8728559017181396;1.2048720121383667;-0.35526400804519653;-2.925071954727173;1.2121919393539429;-67.29624938964844;-17.618125915527344;-29.443750381469727
2353;0.0;0.0;0.0;-0.3240320086479187;-2.8704159259796143;1.0823839902877808;0.0;0.0;0.0
2355;0.0;0.0;0.0;-0.2537599802017212;-2.83137583732605;0.9847840070724487;0.0;0.0;0.0
2357;0.0;0.0;0.0;-0.14151999354362488;-2.7181599140167236;0.8754720091819763;0.0;0.0;0.0
2359;-0.3659999966621399;-2.65203595161438;0.8647359609603882;-0.11028799414634705;-2.6127519607543945;0.7817760109901428;-42.58625030517578;-86.00812530517578;-55.13374710083008
2361;0.0;0.0;0.0;0.018543999642133713;-2.565903902053833;0.700767993927002;0.0;0.0;0.0
2363;0.0;0.0;0.0;0.0849120020866394;-2.5112478733062744;0.5748639702796936;0.0;0.0;0.0
2365;0.0;0.0;0.0;0.13078400492668152;-2.4019360542297363;0.47336000204086304;0.0;0.0;0.0
2367;-0.054899998009204865;-2.3448400497436523;0.4787279963493347;0.19324800372123718;-2.3355679512023926;0.41284799575805664;-20.11625099182129;-115.0581283569336;-77.53375244140625
2370;0.0;0.0;0.0;0.2869440019130707;-2.2340638637542725;0.3396480083465576;0.0;0.0;0.0
2372;0.0;0.0;0.0;0.32207998633384705;-2.1247520446777344;0.2664479911327362;0.0;0.0;0.0
2374;0.0;0.0;0.0;0.3455039858818054;-2.101327896118164;0.1815359890460968;0.0;0.0;0.0
2376;0.17470400035381317;-2.0098278522491455;0.1512800008058548;0.34940800070762634;-1.988111972808838;0.14054399728775024;-1.216249942779541;-101.33812713623047;-97.48374938964844
2378;0.0;0.0;0.0;0.38649600744247437;-1.889535903930664;0.10052800178527832;0.0;0.0;0.0
2380;0.0;0.0;0.0;0.4333440065383911;-1.7997440099716187;0.07612799853086472;0.0;0.0;0.0
2382;0.0;0.0;0.0;0.45286399126052856;-1.6982399225234985;0.031231999397277832;0.0;0.0;0.0
2384;0.2984119951725006;-1.6567599773406982;-0.03660000115633011;0.48019200563430786;-1.6162559986114502;0.023423999547958374;14.883749961853027;-61.0881233215332;-115.89375305175781
2387;0.0;0.0;0.0;0.46457600593566895;-1.5108479261398315;0.023423999547958374;0.0;0.0;0.0
2389;0.0;0.0;0.0;0.48799997568130493;-1.4249600172042847;-0.0009759999811649323;0.0;0.0;0.0
2391;0.0;0.0;0.0;0.5114240050315857;-1.327359914779663;0.031231999397277832;0.0;0.0;0.0
2393;0.37331998348236084;-1.2856359481811523;-0.08173999935388565;0.48799997568130493;-1.1946239471435547;0.07222399860620499;25.38374900817871;0.5118750333786011;-130.59375
2395;0.0;0.0;0.0;0.48507198691368103;-1.1370400190353394;0.09662400186061859;0.0;0.0;0.0
