Timestamp(ms);LG-Accel x(g);LG-Accel y(g);LG-Accel z(g);HG-Accel x(g);HG-Accel y(g);HG-Accel z(g);Gyro x(dps);Gyro y(dps);Gyro z(dps)
68;0.0;0.0;0.0;0.28011199831962585;-0.1454239934682846;1.0872639417648315;0.0;0.0;0.0
71;0.0;0.0;0.0;0.260591983795166;-0.12199999392032623;1.0950720310211182;0.0;0.0;0.0
73;0.0;0.0;0.0;0.22545599937438965;-0.11419199407100677;1.1194720268249512;0.0;0.0;0.0
75;0.0;0.0;0.0;0.20203199982643127;-0.14151999354362488;1.1194720268249512;0.0;0.0;0.0
77;0.0;0.0;0.0;0.187391996383667;-0.1454239934682846;1.1145919561386108;0.0;0.0;0.0
79;0.0;0.0;0.0;0.21276798844337463;-0.1786080002784729;1.1038559675216675;0.0;0.0;0.0
81;0.0;0.0;0.0;0.20105600357055664;-0.16299200057983398;1.1038559675216675;0.0;0.0;0.0
83;0.0;0.0;0.0;0.17372798919677734;-0.1668960005044937;1.0677440166473389;0.0;0.0;0.0
85;0.0697840005159378;-0.03147599846124649;0.9677039980888367;0.1815359890460968;-0.16299200057983398;1.099951982498169;0.0;0.0;0.0
88;0.0;0.0;0.0;0.23228800296783447;-0.17080000042915344;1.0960479974746704;0.0;0.0;0.0
90;0.0;0.0;0.0;0.19324800372123718;-0.15908800065517426;1.0921440124511719;0.0;0.0;0.0
92;0.0;0.0;0.0;0.18544000387191772;-0.1786080002784729;1.0882400274276733;0.0;0.0;0.0
94;0.08442399650812149;-0.02391199953854084;0.9677039980888367;0.17372798919677734;-0.17470400035381317;1.075551986694336;0.0;0.0;0.0
96;0.0;0.0;0.0;0.17763200402259827;-0.1668960005044937;1.0804319381713867;0.0;0.0;0.0
98;0.0;0.0;0.0;0.16201600432395935;-0.17080000042915344;1.0394400358200073;0.0;0.0;0.0
100;0.0;0.0;0.0;0.20495998859405518;-0.16299200057983398;1.0355359315872192;0.0;0.0;0.0
102;0.07027199864387512;-0.023423999547958374;0.9225639700889587;0.236191987991333;-0.16299200057983398;1.0394400358200073;0.0;0.0;0.0
105;0.0;0.0;0.0;0.27132800221443176;-0.13176000118255615;1.0394400358200073;0.0;0.0;0.0
107;0.0;0.0;0.0;0.29475200176239014;-0.1668960005044937;0.9945439696311951;0.0;0.0;0.0
109;0.0;0.0;0.0;0.2635200023651123;-0.17470400035381317;0.9789279699325562;0.0;0.0;0.0
111;0.14469200372695923;-0.033427998423576355;0.8769359588623047;0.2596159875392914;-0.19812799990177155;0.937936007976532;0.0;0.0;0.0
113;0.0;0.0;0.0;0.29475200176239014;-0.19715198874473572;0.9515999555587769;0.0;0.0;0.0
115;0.0;0.0;0.0;0.2869440019130707;-0.20495998859405518;0.9311040043830872;0.0;0.0;0.0
117;0.0;0.0;0.0;0.2752319872379303;-0.17763200402259827;0.9594079852104187;0.0;0.0;0.0
119;0.16250400245189667;-0.03660000115633011;0.8220359683036804;0.2908479869365692;-0.13468798995018005;0.9515999555587769;0.0;0.0;0.0
122;0.0;0.0;0.0;0.28303998708724976;-0.1424959897994995;0.9467200040817261;0.0;0.0;0.0
124;0.0;0.0;0.0;0.2791360020637512;-0.09955199807882309;0.9594079852104187;0.0;0.0;0.0
126;0.0;0.0;0.0;0.27132800221443176;-0.07612799853086472;0.9428159594535828;0.0;0.0;0.0
128;0.1600639969110489;0.0226919986307621;0.8281359672546387;0.25571200251579285;-0.09174399822950363;1.012112021446228;9.961874961853027;11.983124732971191;-4.252500057220459
130;0.0;0.0;0.0;0.2518079876899719;-0.09174399822950363;0.9799039959907532;0.0;0.0;0.0
132;0.0;0.0;0.0;0.23228800296783447;-0.07222399860620499;0.9877119660377502;0.0;0.0;0.0
134;0.0;0.0;0.0;0.20495998859405518;-0.07612799853086472;1.012112021446228;0.0;0.0;0.0
136;0.10955599695444107;0.05563199892640114;0.8698599934577942;0.21276798844337463;-0.08003199845552444;1.0238239765167236;13.391875267028809;25.143125534057617;-3.762500047683716
139;0.0;0.0;0.0;0.20105600357055664;-0.08393599838018417;1.044319987297058;0.0;0.0;0.0
141;0.0;0.0;0.0;0.13468798995018005;-0.10735999792814255;1.0560319423675537;0.0;0.0;0.0
143;0.0;0.0;0.0;0.15811198949813843;-0.029279999434947968;1.0843359231948853;0.0;0.0;0.0
145;0.042211998254060745;0.07417599856853485;0.9340319633483887;0.16201600432395935;-0.0019519999623298645;1.0970239639282227;16.121875762939453;33.47312545776367;-3.762500047683716
147;0.0;0.0;0.0;0.15030398964881897;0.0019519999623298645;1.1536319255828857;0.0;0.0;0.0
149;0.0;0.0;0.0;0.12297599762678146;0.02537599951028824;1.1741279363632202;0.0;0.0;0.0
151;0.0;0.0;0.0;0.08100800216197968;0.037087999284267426;1.2151199579238892;0.0;0.0;0.0
153;-0.017079999670386314;0.15371999144554138;1.050663948059082;0.06148799881339073;0.040991999208927155;1.2434239387512207;15.071874618530273;37.113128662109375;-4.952499866485596
156;0.0;0.0;0.0;0.0302559994161129;0.044895999133586884;1.2268320322036743;0.0;0.0;0.0
158;0.0;0.0;0.0;0.006831999868154526;0.06441599875688553;1.2473279237747192;0.0;0.0;0.0
160;0.0;0.0;0.0;0.014639999717473984;0.06831999868154526;1.2512320280075073;0.0;0.0;0.0
162;-0.1012599989771843;0.1815359890460968;1.1084920167922974;0.022447999566793442;0.06441599875688553;1.2551360130310059;8.911874771118164;34.87312698364258;-7.332499980926514
164;0.0;0.0;0.0;-0.01268799975514412;0.06441599875688553;1.2922239303588867;0.0;0.0;0.0
166;0.0;0.0;0.0;0.014639999717473984;0.04879999905824661;1.2795360088348389;0.0;0.0;0.0
168;0.0;0.0;0.0;-0.024399999529123306;0.044895999133586884;1.2795360088348389;0.0;0.0;0.0
170;-0.13053999841213226;0.18836799263954163;1.1421639919281006;-0.004879999905824661;0.08003199845552444;1.2717279195785522;3.9418749809265137;23.953125;-9.292500495910645
173;0.0;0.0;0.0;-0.0009759999811649323;0.09174399822950363;1.2922239303588867;0.0;0.0;0.0
175;0.0;0.0;0.0;-0.04782399907708168;0.07222399860620499;1.2717279195785522;0.0;0.0;0.0
177;0.0;0.0;0.0;-0.00878399983048439;0.11907199770212173;1.2922239303588867;0.0;0.0;0.0
179;-0.14761999249458313;0.2239919900894165;1.152411937713623;-0.04391999915242195;0.1268799901008606;1.2922239303588867;-1.868125081062317;17.86312484741211;-12.862500190734863
181;0.0;0.0;0.0;-0.024399999529123306;0.1542080044746399;1.2756320238113403;0.0;0.0;0.0
183;0.0;0.0;0.0;-0.00878399983048439;0.1424959897994995;1.2512320280075073;0.0;0.0;0.0
185;0.0;0.0;0.0;-0.04001599922776222;0.19324800372123718;1.2395199537277222;0.0;0.0;0.0
188;-0.15567199885845184;0.29401999711990356;1.1250839233398438;-0.01659199967980385;0.20105600357055664;1.2229279279708862;-6.278124809265137;9.463125228881836;-14.542500495910645
190;0.0;0.0;0.0;0.0029279999434947968;0.20495998859405518;1.2395199537277222;0.0;0.0;0.0
192;0.0;0.0;0.0;0.014639999717473984;0.24009600281715393;1.1985279321670532;0.0;0.0;0.0
194;0.0;0.0;0.0;0.0029279999434947968;0.23228800296783447;1.1985279321670532;0.0;0.0;0.0
196;-0.11492399871349335;0.36453598737716675;1.077015995979309;0.022447999566793442;0.25571200251579285;1.1536319255828857;-6.20812463760376;-1.456874966621399;-14.542500495910645
198;0.0;0.0;0.0;0.08881600201129913;0.2752319872379303;1.1780319213867188;0.0;0.0;0.0
200;0.0;0.0;0.0;0.115167997777462;0.25571200251579285;1.1624159812927246;0.0;0.0;0.0
202;0.0;0.0;0.0;0.11907199770212173;0.2752319872379303;1.1136159896850586;0.0;0.0;0.0
205;-0.017324000597000122;0.3974759876728058;1.0194319486618042;0.16591998934745789;0.2479040026664734;1.1136159896850586;-4.318124771118164;-7.686875343322754;-12.162500381469727
207;0.0;0.0;0.0;0.1698240041732788;0.2791360020637512;1.085312008857727;0.0;0.0;0.0
209;0.0;0.0;0.0;0.19324800372123718;0.2791360020637512;1.0726239681243896;0.0;0.0;0.0
211;0.0;0.0;0.0;0.17372798919677734;0.27132800221443176;1.0892159938812256;0.0;0.0;0.0
213;0.052216000854969025;0.3967439830303192;0.9564799666404724;0.19715198874473572;0.2908479869365692;1.0892159938812256;-0.5381250381469727;-8.526875495910645;-8.3125
215;0.0;0.0;0.0;0.19324800372123718;0.2752319872379303;1.085312008857727;0.0;0.0;0.0
217;0.0;0.0;0.0;0.17763200402259827;0.28303998708724976;1.1009279489517212;0.0;0.0;0.0
219;0.0;0.0;0.0;0.1815359890460968;0.32598400115966797;1.1136159896850586;0.0;0.0;0.0
221;0.06197600066661835;0.4311479926109314;0.9725840091705322;0.1815359890460968;0.32207998633384705;1.1253279447555542;1.5618749856948853;1.2731250524520874;-6.702500343322754
224;0.0;0.0;0.0;0.17763200402259827;0.32207998633384705;1.0931199789047241;0.0;0.0;0.0
226;0.0;0.0;0.0;0.1424959897994995;0.3455039858818054;1.1663199663162231;0.0;0.0;0.0
228;0.0;0.0;0.0;0.1424959897994995;0.36111998558044434;1.134112000465393;0.0;0.0;0.0
230;0.029767999425530434;0.47165200114250183;1.0201640129089355;0.13078400492668152;0.34940800070762634;1.1819360256195068;-0.6081249713897705;16.11312484741211;-6.492500305175781
232;0.0;0.0;0.0;0.10735999792814255;0.3845439851284027;1.2024319171905518;0.0;0.0;0.0
234;0.0;0.0;0.0;0.09564799815416336;0.36502400040626526;1.1819360256195068;0.0;0.0;0.0
236;0.0;0.0;0.0;0.09662400186061859;0.41577598452568054;1.2024319171905518;0.0;0.0;0.0
239;-0.021959999576210976;0.5245999693870544;1.0638400316238403;0.09272000193595886;0.41577598452568054;1.2151199579238892;-1.4481250047683716;22.693124771118164;-4.112500190734863
241;0.0;0.0;0.0;0.07710400223731995;0.411871999502182;1.2434239387512207;0.0;0.0;0.0
243;0.0;0.0;0.0;0.06539200246334076;0.4274879992008209;1.2434239387512207;0.0;0.0;0.0
245;0.0;0.0;0.0;0.06929600238800049;0.4470079839229584;1.2473279237747192;0.0;0.0;0.0
247;-0.044652000069618225;0.5714479684829712;1.099463939666748;0.0849120020866394;0.4899519979953766;1.2756320238113403;0.6518750190734863;18.63312530517578;1.627500057220459
249;0.0;0.0;0.0;0.09272000193595886;0.48214399814605713;1.2883199453353882;0.0;0.0;0.0
251;0.0;0.0;0.0;0.06929600238800049;0.48214399814605713;1.2678239345550537;0.0;0.0;0.0
253;0.0;0.0;0.0;0.04196799919009209;0.513375997543335;1.2834399938583374;0.0;0.0;0.0
256;-0.05319199711084366;0.6175639629364014;1.1426520347595215;0.06539200246334076;0.5055679678916931;1.2795360088348389;1.8418749570846558;13.663125038146973;8.697500228881836
258;0.0;0.0;0.0;0.06148799881339073;0.5328959822654724;1.2756320238113403;0.0;0.0;0.0
260;0.0;0.0;0.0;0.06929600238800049;0.521183967590332;1.2961280345916748;0.0;0.0;0.0
262;0.0;0.0;0.0;0.057583998888731;0.5250880122184753;1.2834399938583374;0.0;0.0;0.0
264;-0.06173199787735939;0.6463559865951538;1.1472879648208618;0.08100800216197968;0.536799967288971;1.2756320238113403;0.9318749904632568;9.743124961853027;15.837499618530273
266;0.0;0.0;0.0;0.08100800216197968;0.5250880122184753;1.2717279195785522;0.0;0.0;0.0
268;0.0;0.0;0.0;0.045871999114751816;0.536799967288971;1.2590399980545044;0.0;0.0;0.0
270;0.0;0.0;0.0;0.049775999039411545;0.536799967288971;1.2639199495315552;0.0;0.0;0.0
273;-0.06709999591112137;0.6634359955787659;1.1385040283203125;0.04196799919009209;0.5485119819641113;1.2717279195785522;1.9118750095367432;6.943124771118164;24.09749984741211
275;0.0;0.0;0.0;0.045871999114751816;0.5485119819641113;1.262943983078003;0.0;0.0;0.0
277;0.0;0.0;0.0;0.049775999039411545;0.5250880122184753;1.2795360088348389;0.0;0.0;0.0
279;0.0;0.0;0.0;0.049775999039411545;0.5289919972419739;1.2795360088348389;0.0;0.0;0.0
281;-0.07368800044059753;0.6629480123519897;1.1394799947738647;0.0302559994161129;0.5289919972419739;1.2795360088348389;3.801874876022339;3.093125104904175;33.757503509521484
283;0.0;0.0;0.0;0.02635199949145317;0.513375997543335;1.2678239345550537;0.0;0.0;0.0
285;0.0;0.0;0.0;0.018543999642133713;0.48604798316955566;1.3078399896621704;0.0;0.0;0.0
287;0.0;0.0;0.0;0.010735999792814255;0.47043198347091675;1.3205280303955078;0.0;0.0;0.0
290;-0.1227319985628128;0.6246399879455566;1.176811933517456;-0.024399999529123306;0.4782399833202362;1.3449280261993408;3.661875009536743;-0.12687499821186066;43.27750015258789
292;0.0;0.0;0.0;-0.05953599885106087;0.48604798316955566;1.3644479513168335;0.0;0.0;0.0
294;0.0;0.0;0.0;-0.05953599885106087;0.4391999840736389;1.3566399812698364;0.0;0.0;0.0
296;0.0;0.0;0.0;-0.0907679945230484;0.41967999935150146;1.352735996246338;0.0;0.0;0.0
298;-0.18763600289821625;0.5702279806137085;1.2143880128860474;-0.09467199444770813;0.4001599848270416;1.3156479597091675;-3.6181249618530273;-5.306875228881836;48.73750305175781
300;0.0;0.0;0.0;-0.08686399459838867;0.3845439851284027;1.3322399854660034;0.0;0.0;0.0
302;0.0;0.0;0.0;-0.12590399384498596;0.3533119857311249;1.3000320196151733;0.0;0.0;0.0
304;0.0;0.0;0.0;-0.10638399422168732;0.34940800070762634;1.3322399854660034;0.0;0.0;0.0
307;-0.21911199390888214;0.48775598406791687;1.1919399499893188;-0.0907679945230484;0.3181760013103485;1.3283360004425049;-11.248125076293945;-14.826875686645508;49.9275016784668
309;0.0;0.0;0.0;-0.06734399497509003;0.3298879861831665;1.3322399854660034;0.0;0.0;0.0
311;0.0;0.0;0.0;-0.07905599474906921;0.3142719864845276;1.3244320154190063;0.0;0.0;0.0
313;0.0;0.0;0.0;-0.05953599885106087;0.30646398663520813;1.3244320154190063;0.0;0.0;0.0
315;-0.19690799713134766;0.4450559914112091;1.1853519678115845;-0.05953599885106087;0.2752319872379303;1.311743974685669;-19.158124923706055;-27.216875076293945;48.87750244140625
317;0.0;0.0;0.0;-0.05172799900174141;0.236191987991333;1.287343978881836;0.0;0.0;0.0
319;0.0;0.0;0.0;-0.024399999529123306;0.20495998859405518;1.2512320280075073;0.0;0.0;0.0
321;0.0;0.0;0.0;0.02635199949145317;0.16591998934745789;1.2151199579238892;0.0;0.0;0.0
324;-0.12785600125789642;0.33476799726486206;1.1150799989700317;0.07710400223731995;0.15811198949813843;1.1702239513397217;-30.078125;-43.316871643066406;48.45750045776367
326;0.0;0.0;0.0;0.09272000193595886;0.16591998934745789;1.1536319255828857;0.0;0.0;0.0
328;0.0;0.0;0.0;0.1542080044746399;0.16591998934745789;1.1175199747085571;0.0;0.0;0.0
330;0.0;0.0;0.0;0.16591998934745789;0.09955199807882309;1.019919991493225;0.0;0.0;0.0
332;0.017079999670386314;0.2618120014667511;0.9686799645423889;0.17372798919677734;0.04879999905824661;0.9994239807128906;-36.868125915527344;-52.066871643066406;49.85750198364258
334;0.0;0.0;0.0;0.14640000462532043;0.01756799966096878;0.9711199998855591;0.0;0.0;0.0
336;0.0;0.0;0.0;0.1815359890460968;-0.06831999868154526;0.9262239933013916;0.0;0.0;0.0
339;0.0;0.0;0.0;0.20495998859405518;-0.08393599838018417;0.8657119870185852;0.0;0.0;0.0
341;0.07466399669647217;0.09393999725580215;0.7973920106887817;0.29865598678588867;-0.08393599838018417;0.8579039573669434;-36.02812576293945;-59.486873626708984;56.507503509521484
343;0.0;0.0;0.0;0.33769598603248596;-0.13859200477600098;0.8374080061912537;0.0;0.0;0.0
345;0.0;0.0;0.0;0.35233598947525024;-0.17372798919677734;0.7886079549789429;0.0;0.0;0.0
347;0.0;0.0;0.0;0.3640480041503906;-0.20105600357055664;0.7642079591751099;0.0;0.0;0.0
349;0.23423999547958374;-0.0424560010433197;0.6819800138473511;0.4108960032463074;-0.24009600281715393;0.748591959476471;-33.01812744140625;-59.9068717956543;63.5775032043457
351;0.0;0.0;0.0;0.387472003698349;-0.2791360020637512;0.7642079591751099;0.0;0.0;0.0
353;0.0;0.0;0.0;0.4030880033969879;-0.3337920010089874;0.7446879744529724;0.0;0.0;0.0
355;0.0;0.0;0.0;0.4108960032463074;-0.3962559998035431;0.7681120038032532;0.0;0.0;0.0
358;0.26571598649024963;-0.20276398956775665;0.6187840104103088;0.4030880033969879;-0.4470079839229584;0.7075999975204468;-32.66812515258789;-43.10687255859375;67.07749938964844
360;0.0;0.0;0.0;0.39528000354766846;-0.45481598377227783;0.6958879828453064;0.0;0.0;0.0
362;0.0;0.0;0.0;0.3835679888725281;-0.5016639828681946;0.7115039825439453;0.0;0.0;0.0
364;0.0;0.0;0.0;0.39528000354766846;-0.5602239966392517;0.7524960041046143;0.0;0.0;0.0
366;0.26205599308013916;-0.3803959786891937;0.5909680128097534;0.4030880033969879;-0.5953599810600281;0.7847039699554443;-34.76812744140625;-19.936874389648438;66.5875015258789
368;0.0;0.0;0.0;0.3757599890232086;-0.5992639660835266;0.7925119996070862;0.0;0.0;0.0
370;0.0;0.0;0.0;0.35624000430107117;-0.6656320095062256;0.7925119996070862;0.0;0.0;0.0
372;0.0;0.0;0.0;0.29475200176239014;-0.6890559792518616;0.7847039699554443;0.0;0.0;0.0
375;0.22179599106311798;-0.5231360197067261;0.66075199842453;0.24399998784065247;-0.7437120079994202;0.8051999807357788;-40.7181282043457;8.483124732971191;64.48750305175781
377;0.0;0.0;0.0;0.2088640034198761;-0.8061760067939758;0.8335039615631104;0.0;0.0;0.0
379;0.0;0.0;0.0;0.19715198874473572;-0.87254399061203;0.8783999681472778;0.0;0.0;0.0
381;0.0;0.0;0.0;0.17763200402259827;-0.9154880046844482;0.9232959747314453;0.0;0.0;0.0
383;0.08271599560976028;-0.7271199822425842;0.7576199769973755;0.14640000462532043;-1.0052800178527832;0.9711199998855591;-43.30812454223633;31.373125076293945;63.01750183105469
385;0.0;0.0;0.0;0.10443200170993805;-1.0404160022735596;0.9799039959907532;0.0;0.0;0.0
387;0.0;0.0;0.0;0.07320000231266022;-1.0677440166473389;1.036512017250061;0.0;0.0;0.0
389;0.0;0.0;0.0;0.014639999717473984;-1.126304030418396;1.0570080280303955;0.0;0.0;0.0
392;-0.0500199981033802;-0.937936007976532;0.9018239974975586;0.014639999717473984;-1.134112000465393;1.1292319297790527;-41.34812545776367;44.46312713623047;60.497501373291016
394;0.0;0.0;0.0;-0.032207999378442764;-1.1575360298156738;1.1175199747085571;0.0;0.0;0.0
396;0.0;0.0;0.0;-0.10247999429702759;-1.223904013633728;1.1624159812927246;0.0;0.0;0.0
398;0.0;0.0;0.0;-0.10247999429702759;-1.2512320280075073;1.2102400064468384;0.0;0.0;0.0
400;-0.18226799368858337;-1.0818959474563599;1.0360239744186401;-0.07124799489974976;-1.2941759824752808;1.2512320280075073;-35.4681282043457;35.363128662109375;56.29750061035156
402;0.0;0.0;0.0;-0.06441599875688553;-1.3722559213638306;1.2434239387512207;0.0;0.0;0.0
404;0.0;0.0;0.0;-0.07612799853086472;-1.4151999950408936;1.2229279279708862;0.0;0.0;0.0
406;0.0;0.0;0.0;-0.10345599800348282;-1.4542399644851685;1.1907199621200562;0.0;0.0;0.0
409;-0.20178799331188202;-1.2631880044937134;1.0892159938812256;-0.09174399822950363;-1.4620479345321655;1.1780319213867188;-30.288124084472656;9.183124542236328;49.437503814697266
411;0.0;0.0;0.0;-0.07222399860620499;-1.5049920082092285;1.1419199705123901;0.0;0.0;0.0
413;0.0;0.0;0.0;-0.05270399898290634;-1.547935962677002;1.1419199705123901;0.0;0.0;0.0
415;0.0;0.0;0.0;-0.02537599951028824;-1.5596479177474976;1.1292319297790527;0.0;0.0;0.0
417;-0.1722639948129654;-1.397387981414795;1.006011962890625;0.01756799966096878;-1.5674560070037842;1.0970239639282227;-21.888124465942383;-17.556875228881836;38.37750244140625
419;0.0;0.0;0.0;0.018543999642133713;-1.5830719470977783;1.0687199831008911;0.0;0.0;0.0
421;0.0;0.0;0.0;0.0302559994161129;-1.5908799171447754;1.0238239765167236;0.0;0.0;0.0
424;0.0;0.0;0.0;0.02635199949145317;-1.598688006401062;0.9711199998855591;0.0;0.0;0.0
426;-0.09662400186061859;-1.454483985900879;0.8996279835700989;0.06148799881339073;-1.5791679620742798;0.9799039959907532;-14.328125;-26.656875610351562;21.857500076293945
428;0.0;0.0;0.0;0.13468798995018005;-1.547935962677002;0.9799039959907532;0.0;0.0;0.0
430;0.0;0.0;0.0;0.12297599762678146;-1.547935962677002;0.9271999597549438;0.0;0.0;0.0
432;0.0;0.0;0.0;0.1698240041732788;-1.4932799339294434;0.9067040085792542;0.0;0.0;0.0
434;0.01439599972218275;-1.4039759635925293;0.8132519721984863;0.18544000387191772;-1.4737600088119507;0.8862079977989197;-7.818124771118164;-23.576875686645508;2.887500047683716
436;0.0;0.0;0.0;0.20495998859405518;-1.45033597946167;0.8618080019950867;0.0;0.0;0.0
438;0.0;0.0;0.0;0.24399998784065247;-1.419103980064392;0.8374080061912537;0.0;0.0;0.0
441;0.0;0.0;0.0;0.2596159875392914;-1.3449280261993408;0.8130080103874207;0.0;0.0;0.0
443;0.11541199684143066;-1.256111979484558;0.7244359850883484;0.2791360020637512;-1.313696026802063;0.8208159804344177;-0.11812499910593033;-14.336874961853027;-13.072500228881836
445;0.0;0.0;0.0;0.29865598678588867;-1.278559923171997;0.8169119954109192;0.0;0.0;0.0
447;0.0;0.0;0.0;0.32598400115966797;-1.223904013633728;0.7847039699554443;0.0;0.0;0.0
449;0.0;0.0;0.0;0.3142719864845276;-1.2082879543304443;0.7925119996070862;0.0;0.0;0.0
451;0.1849519908428192;-1.099463939666748;0.6795399785041809;0.3298879861831665;-1.1458239555358887;0.8130080103874207;11.711874961853027;-2.5768749713897705;-23.22249984741211
453;0.0;0.0;0.0;0.3445279896259308;-1.1145919561386108;0.8169119954109192;0.0;0.0;0.0
455;0.0;0.0;0.0;0.32207998633384705;-1.044319987297058;0.8208159804344177;0.0;0.0;0.0
458;0.0;0.0;0.0;0.2908479869365692;-1.0247999429702759;0.8295999765396118;0.0;0.0;0.0
460;0.19349199533462524;-0.9201239943504333;0.6985719799995422;0.2635200023651123;-0.9662399888038635;0.8413119912147522;22.981876373291016;8.063124656677246;-28.892499923706055
462;0.0;0.0;0.0;0.22838398814201355;-0.9311040043830872;0.8696159720420837;0.0;0.0;0.0
464;0.0;0.0;0.0;0.236191987991333;-0.8608319759368896;0.8823039531707764;0.0;0.0;0.0
466;0.0;0.0;0.0;0.2479040026664734;-0.8452159762382507;0.9106079936027527;0.0;0.0;0.0
468;0.13224799931049347;-0.7366359829902649;0.7507879734039307;0.20495998859405518;-0.7710399627685547;0.9428159594535828;29.56187629699707;15.763124465942383;-34.5625
470;0.0;0.0;0.0;0.20398399233818054;-0.7476159930229187;0.9428159594535828;0.0;0.0;0.0
472;0.0;0.0;0.0;0.1571359932422638;-0.7437120079994202;0.9467200040817261;0.0;0.0;0.0
475;0.0;0.0;0.0;0.17665599286556244;-0.685151994228363;0.9799039959907532;0.0;0.0;0.0
477;0.07149200141429901;-0.5973119735717773;0.8208159804344177;0.14932799339294434;-0.6812480092048645;0.9994239807128906;29.981876373291016;24.5831241607666;-39.182498931884766
479;0.0;0.0;0.0;0.1298079937696457;-0.6265919804573059;0.9838079810142517;0.0;0.0;0.0
481;0.0;0.0;0.0;0.16494399309158325;-0.6187840104103088;1.012112021446228;0.0;0.0;0.0
483;0.0;0.0;0.0;0.12590399384498596;-0.5797439813613892;1.036512017250061;0.0;0.0;0.0
485;0.01781199872493744;-0.47750797867774963;0.8837679624557495;0.1298079937696457;-0.5602239966392517;1.0570080280303955;29.701875686645508;28.713125228881836;-41.912498474121094
487;0.0;0.0;0.0;0.10052800178527832;-0.5328959822654724;1.0726239681243896;0.0;0.0;0.0
489;0.0;0.0;0.0;0.12297599762678146;-0.49775999784469604;1.1009279489517212;0.0;0.0;0.0
492;0.0;0.0;0.0;0.0849120020866394;-0.48214399814605713;1.134112000465393;0.0;0.0;0.0
494;-0.01634800061583519;-0.3740519881248474;0.9637999534606934;0.09272000193595886;-0.4782399833202362;1.134112000465393;29.281875610351562;28.29312515258789;-43.3125
496;0.0;0.0;0.0;0.09272000193595886;-0.47043198347091675;1.1624159812927246;0.0;0.0;0.0
498;0.0;0.0;0.0;0.07710400223731995;-0.4470079839229584;1.1868159770965576;0.0;0.0;0.0
500;0.0;0.0;0.0;0.053679998964071274;-0.44310399889945984;1.2063360214233398;0.0;0.0;0.0
502;-0.054655998945236206;-0.3123199939727783;1.0474920272827148;0.045871999114751816;-0.43139198422431946;1.2102400064468384;25.361875534057617;24.79312515258789;-44.36249923706055
504;0.0;0.0;0.0;0.0302559994161129;-0.4079679846763611;1.2190239429473877;0.0;0.0;0.0
506;0.0;0.0;0.0;0.022447999566793442;-0.3845439851284027;1.2512320280075073;0.0;0.0;0.0
509;0.0;0.0;0.0;-0.01268799975514412;-0.4001599848270416;1.2307360172271729;0.0;0.0;0.0
511;-0.1029679998755455;-0.2747440040111542;1.0967799425125122;0.03806399926543236;-0.3845439851284027;1.2346400022506714;18.361875534057617;17.303125381469727;-45.13249969482422
513;0.0;0.0;0.0;0.02635199949145317;-0.36502400040626526;1.2512320280075073;0.0;0.0;0.0
515;0.0;0.0;0.0;0.02635199949145317;-0.3142719864845276;1.262943983078003;0.0;0.0;0.0
517;0.0;0.0;0.0;0.022447999566793442;-0.28303998708724976;1.2473279237747192;0.0;0.0;0.0
519;-0.09613599628210068;-0.20154400169849396;1.1214239597320557;0.010735999792814255;-0.2908479869365692;1.2346400022506714;10.591875076293945;7.783124923706055;-46.60249710083008
521;0.0;0.0;0.0;0.0302559994161129;-0.2908479869365692;1.2434239387512207;0.0;0.0;0.0
523;0.0;0.0;0.0;0.022447999566793442;-0.2596159875392914;1.2151199579238892;0.0;0.0;0.0
526;0.0;0.0;0.0;0.045871999114751816;-0.2479040026664734;1.2063360214233398;0.0;0.0;0.0
528;-0.09052399545907974;-0.14225199818611145;1.0943399667739868;0.08881600201129913;-0.2479040026664734;1.1868159770965576;2.2618749141693115;-6.216875076293945;-46.3224983215332
530;0.0;0.0;0.0;0.06148799881339073;-0.2518079876899719;1.1819360256195068;0.0;0.0;0.0
532;0.0;0.0;0.0;0.10052800178527832;-0.22448000311851501;1.1497279405593872;0.0;0.0;0.0
534;0.0;0.0;0.0;0.08100800216197968;-0.21667200326919556;1.134112000465393;0.0;0.0;0.0
536;-0.048312000930309296;-0.09491600096225739;1.0201640129089355;0.08881600201129913;-0.21276798844337463;1.10971200466156;-5.368124961853027;-20.356874465942383;-45.62249755859375
538;0.0;0.0;0.0;0.1268799901008606;-0.18934398889541626;1.0804319381713867;0.0;0.0;0.0
540;0.0;0.0;0.0;0.1424959897994995;-0.1542080044746399;1.044319987297058;0.0;0.0;0.0
543;0.0;0.0;0.0;0.17372798919677734;-0.1542080044746399;1.019919991493225;0.0;0.0;0.0
545;0.023180000483989716;-0.03415999934077263;0.9069479703903198;0.19324800372123718;-0.13859200477600098;0.9799039959907532;-12.718125343322754;-31.13687515258789;-44.85249710083008
547;0.0;0.0;0.0;0.22448000311851501;-0.1268799901008606;0.9428159594535828;0.0;0.0;0.0
549;0.0;0.0;0.0;0.21667200326919556;-0.1268799901008606;0.9106079936027527;0.0;0.0;0.0
551;0.0;0.0;0.0;0.2791360020637512;-0.15030398964881897;0.8696159720420837;0.0;0.0;0.0
553;0.1180959939956665;-0.014639999717473984;0.7878760099411011;0.2635200023651123;-0.15811198949813843;0.8657119870185852;-17.338125228881836;-32.46687316894531;-43.38249969482422
555;0.0;0.0;0.0;0.26254400610923767;-0.15030398964881897;0.8618080019950867;0.0;0.0;0.0
557;0.0;0.0;0.0;0.2781600058078766;-0.13859200477600098;0.8295999765396118;0.0;0.0;0.0
560;0.0;0.0;0.0;0.30158400535583496;-0.15030398964881897;0.8256959915161133;0.0;0.0;0.0
562;0.17006799578666687;-0.014883999712765217;0.7161399722099304;0.29767999053001404;-0.15811198949813843;0.8051999807357788;-19.158124923706055;-21.896875381469727;-46.252498626708984
564;0.0;0.0;0.0;0.3211039900779724;-0.12297599762678146;0.8012959957122803;0.0;0.0;0.0
566;0.0;0.0;0.0;0.3172000050544739;-0.13078400492668152;0.7925119996070862;0.0;0.0;0.0
568;0.0;0.0;0.0;0.33671998977661133;-0.13859200477600098;0.8169119954109192;0.0;0.0;0.0
570;0.20788799226284027;-0.013419999741017818;0.6905199885368347;0.3601439893245697;-0.13078400492668152;0.8374080061912537;-20.2081241607666;-4.116875171661377;-53.46249771118164
573;0.0;0.0;0.0;0.3640480041503906;-0.11907199770212173;0.8539999723434448;0.0;0.0;0.0
574;0.0;0.0;0.0;0.3757599890232086;-0.07222399860620499;0.8657119870185852;0.0;0.0;0.0
577;0.0;0.0;0.0;0.35624000430107117;-0.05270399898290634;0.8823039531707764;0.0;0.0;0.0
579;0.24741598963737488;0.06758800148963928;0.7393199801445007;0.3601439893245697;0.02147199958562851;0.8940159678459167;-19.088125228881836;19.54312515258789;-62.21249771118164
581;0.0;0.0;0.0;0.3142719864845276;0.08003199845552444;0.9223200082778931;0.0;0.0;0.0
583;0.0;0.0;0.0;0.2596159875392914;0.11126399785280228;0.9428159594535828;0.0;0.0;0.0
585;0.0;0.0;0.0;0.26742398738861084;0.1698240041732788;0.9145119786262512;0.0;0.0;0.0
587;0.16250400245189667;0.25400400161743164;0.799344003200531;0.2596159875392914;0.2088640034198761;0.9389119744300842;-14.468125343322754;39.63312530517578;-66.48249816894531
590;0.0;0.0;0.0;0.2937760055065155;0.2791360020637512;0.9672159552574158;0.0;0.0;0.0
591;0.0;0.0;0.0;0.3054879903793335;0.3416000008583069;1.012112021446228;0.0;0.0;0.0
594;0.0;0.0;0.0;0.2898719906806946;0.37673598527908325;1.019919991493225;0.0;0.0;0.0
596;0.15567199885845184;0.4513999819755554;0.8713240027427673;0.2820639908313751;0.37673598527908325;1.0560319423675537;-2.9181251525878906;43.55312728881836;-62.5625
598;0.0;0.0;0.0;0.27035200595855713;0.4352959990501404;1.0687199831008911;0.0;0.0;0.0
600;0.0;0.0;0.0;0.19617599248886108;0.47433599829673767;1.0970239639282227;0.0;0.0;0.0
602;0.0;0.0;0.0;0.2000799924135208;0.4626239836215973;1.1048319339752197;0.0;0.0;0.0
604;0.10906799882650375;0.5838919878005981;0.949891984462738;0.1844639927148819;0.4899519979953766;1.1331360340118408;10.171875;42.50312805175781;-51.78249740600586
607;0.0;0.0;0.0;0.12297599762678146;0.5250880122184753;1.1819360256195068;0.0;0.0;0.0
609;0.0;0.0;0.0;0.09662400186061859;0.5407040119171143;1.2063360214233398;0.0;0.0;0.0
611;0.0;0.0;0.0;0.0849120020866394;0.6226879954338074;1.2268320322036743;0.0;0.0;0.0
613;-0.028303999453783035;0.6890559792518616;1.0757960081100464;0.006831999868154526;0.6031680107116699;1.3000320196151733;17.10187530517578;43.48312759399414;-43.87249755859375
615;0.0;0.0;0.0;0.02635199949145317;0.6539199948310852;1.3166239261627197;0.0;0.0;0.0
617;0.0;0.0;0.0;0.06539200246334076;0.6734399795532227;1.3283360004425049;0.0;0.0;0.0
619;0.0;0.0;0.0;0.02635199949145317;0.6656320095062256;1.3400479555130005;0.0;0.0;0.0
621;-0.07710400223731995;0.8032479882240295;1.1875479221343994;0.057583998888731;0.7241919636726379;1.3244320154190063;12.83187484741211;42.22312545776367;-39.53249740600586
623;0.0;0.0;0.0;0.0605119988322258;0.7163839936256409;1.3449280261993408;0.0;0.0;0.0
626;0.0;0.0;0.0;0.06441599875688553;0.7398079633712769;1.3488320112228394;0.0;0.0;0.0
628;0.0;0.0;0.0;0.06831999868154526;0.774944007396698;1.377135992050171;0.0;0.0;0.0
630;-0.048555999994277954;0.8864519596099854;1.2173160314559937;0.06831999868154526;0.7905600070953369;1.3732320070266724;8.001874923706055;34.73312759399414;-34.21249771118164
632;0.0;0.0;0.0;0.05660799890756607;0.8374080061912537;1.3400479555130005;0.0;0.0;0.0
634;0.0;0.0;0.0;0.040991999208927155;0.8217920064926147;1.3449280261993408;0.0;0.0;0.0
636;0.0;0.0;0.0;0.037087999284267426;0.8608319759368896;1.3322399854660034;0.0;0.0;0.0
638;-0.05148399993777275;0.9520879983901978;1.2129240036010742;0.09564799815416336;0.8374080061912537;1.3244320154190063;6.391875267028809;18.703125;-27.422500610351562
641;0.0;0.0;0.0;0.13078400492668152;0.8178879618644714;1.3244320154190063;0.0;0.0;0.0
643;0.0;0.0;0.0;0.115167997777462;0.774944007396698;1.2834399938583374;0.0;0.0;0.0
645;0.0;0.0;0.0;0.14640000462532043;0.7944639921188354;1.2678239345550537;0.0;0.0;0.0
647;0.007319999858736992;0.9332999587059021;1.161195993423462;0.13078400492668152;0.7905600070953369;1.2473279237747192;6.111875057220459;7.853124618530273;-20.912500381469727
649;0.0;0.0;0.0;0.1424959897994995;0.8022719621658325;1.2473279237747192;0.0;0.0;0.0
651;0.0;0.0;0.0;0.11907199770212173;0.8295999765396118;1.2590399980545044;0.0;0.0;0.0
653;0.0;0.0;0.0;0.13859200477600098;0.8100799918174744;1.2473279237747192;0.0;0.0;0.0
655;0.016835998743772507;0.941107988357544;1.128499984741211;0.11907199770212173;0.8100799918174744;1.2434239387512207;9.471875190734863;14.223124504089355;-13.142499923706055
658;0.0;0.0;0.0;0.10638399422168732;0.8530240058898926;1.2434239387512207;0.0;0.0;0.0
660;0.0;0.0;0.0;0.08003199845552444;0.9115839600563049;1.2590399980545044;0.0;0.0;0.0
662;0.0;0.0;0.0;0.06831999868154526;0.9037759900093079;1.2834399938583374;0.0;0.0;0.0
664;-0.037087999284267426;1.0077199935913086;1.1294759511947632;0.07222399860620499;0.9115839600563049;1.2834399938583374;13.1118745803833;20.873125076293945;-2.012500047683716
666;0.0;0.0;0.0;0.029279999434947968;0.9428159594535828;1.2834399938583374;0.0;0.0;0.0
668;0.0;0.0;0.0;-0.0019519999623298645;0.962336003780365;1.2756320238113403;0.0;0.0;0.0
670;0.0;0.0;0.0;0.013663999736309052;0.9545279741287231;1.2512320280075073;0.0;0.0;0.0
672;-0.09637999534606934;1.0743319988250732;1.1324039697647095;0.013663999736309052;0.962336003780365;1.2346400022506714;15.9818754196167;22.553125381469727;12.407500267028809
675;0.0;0.0;0.0;0.006831999868154526;0.9467200040817261;1.2346400022506714;0.0;0.0;0.0
677;0.0;0.0;0.0;-0.0009759999811649323;0.9545279741287231;1.262943983078003;0.0;0.0;0.0
679;0.0;0.0;0.0;-0.024399999529123306;0.9076799750328064;1.2678239345550537;0.0;0.0;0.0
681;-0.13053999841213226;1.070915937423706;1.1231319904327393;-0.05563199892640114;0.9037759900093079;1.2756320238113403;22.211875915527344;25.143125534057617;28.857500076293945
683;0.0;0.0;0.0;-0.04782399907708168;0.8842560052871704;1.3078399896621704;0.0;0.0;0.0
685;0.0;0.0;0.0;-0.05953599885106087;0.9076799750328064;1.3166239261627197;0.0;0.0;0.0
687;0.0;0.0;0.0;-0.09467199444770813;0.888159990310669;1.311743974685669;0.0;0.0;0.0
689;-0.20227599143981934;1.0330959558486938;1.172663927078247;-0.12590399384498596;0.8998720049858093;1.3322399854660034;27.0418758392334;29.063125610351562;43.69750213623047
692;0.0;0.0;0.0;-0.15225599706172943;0.8686400055885315;1.3449280261993408;0.0;0.0;0.0
694;0.0;0.0;0.0;-0.15615999698638916;0.87254399061203;1.377135992050171;0.0;0.0;0.0
696;0.0;0.0;0.0;-0.21862399578094482;0.8413119912147522;1.377135992050171;0.0;0.0;0.0
698;-0.2881639897823334;0.9884439706802368;1.2217079401016235;-0.2030079960823059;0.8100799918174744;1.377135992050171;27.111875534057617;30.88312530517578;55.73750305175781
700;0.0;0.0;0.0;-0.23423999547958374;0.7866559624671936;1.3810399770736694;0.0;0.0;0.0
702;0.0;0.0;0.0;-0.2420479953289032;0.7788479924201965;1.4132479429244995;0.0;0.0;0.0
704;0.0;0.0;0.0;-0.284991979598999;0.7593280076980591;1.4298399686813354;0.0;0.0;0.0
706;-0.387472003698349;0.9242720007896423;1.287343978881836;-0.33183997869491577;0.7593280076980591;1.458143949508667;24.171875;33.47312545776367;63.29750061035156
708;0.0;0.0;0.0;-0.35526400804519653;0.7476159930229187;1.433743953704834;0.0;0.0;0.0
711;0.0;0.0;0.0;-0.3903999924659729;0.6773439645767212;1.4298399686813354;0.0;0.0;0.0
713;0.0;0.0;0.0;-0.3786879777908325;0.685151994228363;1.4054399728775024;0.0;0.0;0.0
715;-0.4904399812221527;0.8493639826774597;1.299299955368042;-0.38259199261665344;0.6773439645767212;1.4376479387283325;21.65187644958496;25.563125610351562;68.89749908447266
717;0.0;0.0;0.0;-0.33183997869491577;0.6148799657821655;1.401535987854004;0.0;0.0;0.0
719;0.0;0.0;0.0;-0.3513599932193756;0.6070719957351685;1.3976320028305054;0.0;0.0;0.0
721;0.0;0.0;0.0;-0.33183997869491577;0.5641279816627502;1.4054399728775024;0.0;0.0;0.0
723;-0.45115599036216736;0.7176039814949036;1.2651399374008179;-0.27718400955200195;0.49775999784469604;1.352735996246338;24.31187629699707;3.443125009536743;73.65750122070312
726;0.0;0.0;0.0;-0.2391199916601181;0.47433599829673767;1.3488320112228394;0.0;0.0;0.0
728;0.0;0.0;0.0;-0.21959999203681946;0.45871999859809875;1.2961280345916748;0.0;0.0;0.0
730;0.0;0.0;0.0;-0.20788799226284027;0.4079679846763611;1.2717279195785522;0.0;0.0;0.0
732;-0.3403799831867218;0.587552011013031;1.1704679727554321;-0.18836799263954163;0.41967999935150146;1.2346400022506714;27.81187629699707;-21.966875076293945;77.29750061035156
734;0.0;0.0;0.0;-0.1268799901008606;0.39235198497772217;1.1624159812927246;0.0;0.0;0.0
736;0.0;0.0;0.0;-0.09564799815416336;0.411871999502182;1.1419199705123901;0.0;0.0;0.0
738;0.0;0.0;0.0;-0.08393599838018417;0.3728320002555847;1.085312008857727;0.0;0.0;0.0
740;-0.23058000206947327;0.5241119861602783;1.0167479515075684;-0.037087999284267426;0.36502400040626526;1.060912013053894;28.301876068115234;-36.736873626708984;76.80750274658203
743;0.0;0.0;0.0;0.01756799966096878;0.3455039858818054;1.019919991493225;0.0;0.0;0.0
745;0.0;0.0;0.0;0.02147199958562851;0.34940800070762634;0.9955199956893921;0.0;0.0;0.0
747;0.0;0.0;0.0;0.0878399983048439;0.3455039858818054;0.9672159552574158;0.0;0.0;0.0
749;-0.06709999591112137;0.4845840036869049;0.8754720091819763;0.13371199369430542;0.36502400040626526;0.9515999555587769;27.60187530517578;-32.396873474121094;74.98750305175781
751;0.0;0.0;0.0;0.16884799301624298;0.3689279854297638;0.9311040043830872;0.0;0.0;0.0
753;0.0;0.0;0.0;0.18055999279022217;0.34940800070762634;0.9389119744300842;0.0;0.0;0.0
755;0.0;0.0;0.0;0.1844639927148819;0.3845439851284027;0.9428159594535828;0.0;0.0;0.0
757;0.044895999133586884;0.49434399604797363;0.8161799907684326;0.18836799263954163;0.3533119857311249;0.9223200082778931;25.15187644958496;-11.6068754196167;76.80750274658203
760;0.0;0.0;0.0;0.18544000387191772;0.3533119857311249;0.9594079852104187;0.0;0.0;0.0
762;0.0;0.0;0.0;0.18544000387191772;0.3416000008583069;0.9711199998855591;0.0;0.0;0.0
764;0.0;0.0;0.0;0.1424959897994995;0.29865598678588867;0.9916160106658936;0.0;0.0;0.0
766;0.04879999905824661;0.4665279984474182;0.8347240090370178;0.1268799901008606;0.28303998708724976;0.9955199956893921;20.60187530517578;13.033124923706055;82.54750061035156
768;0.0;0.0;0.0;0.10052800178527832;0.2596159875392914;1.0482239723205566;0.0;0.0;0.0
770;0.0;0.0;0.0;0.06539200246334076;0.22448000311851501;1.0570080280303955;0.0;0.0;0.0
772;0.0;0.0;0.0;0.06539200246334076;0.19715198874473572;1.1253279447555542;0.0;0.0;0.0
774;-0.04562800005078316;0.3518480062484741;0.9418399930000305;0.0302559994161129;0.13078400492668152;1.1292319297790527;13.531874656677246;34.73312759399414;89.54750061035156
777;0.0;0.0;0.0;-0.020495999604463577;0.09955199807882309;1.1858400106430054;0.0;0.0;0.0
779;0.0;0.0;0.0;-0.07515199482440948;0.0605119988322258;1.2268320322036743;0.0;0.0;0.0
781;0.0;0.0;0.0;-0.11028799414634705;0.013663999736309052;1.2551360130310059;0.0;0.0;0.0
783;-0.18885599076747894;0.1925159990787506;1.0945839881896973;-0.15615999698638916;-0.02537599951028824;1.2795360088348389;4.851875305175781;43.273128509521484;96.47750091552734
785;0.0;0.0;0.0;-0.19910399615764618;-0.06441599875688553;1.3566399812698364;0.0;0.0;0.0
787;0.0;0.0;0.0;-0.23423999547958374;-0.09174399822950363;1.377135992050171;0.0;0.0;0.0
789;0.0;0.0;0.0;-0.24985599517822266;-0.14640000462532043;1.4376479387283325;0.0;0.0;0.0
791;-0.3474559783935547;0.02000799961388111;1.2470840215682983;-0.2967039942741394;-0.2205759882926941;1.4542399644851685;-5.228124618530273;32.91312789916992;102.21749877929688
794;0.0;0.0;0.0;-0.28596800565719604;-0.26742398738861084;1.4620479345321655;0.0;0.0;0.0
796;0.0;0.0;0.0;-0.2937760055065155;-0.32598400115966797;1.4825439453125;0.0;0.0;0.0
798;0.0;0.0;0.0;-0.29767999053001404;-0.39235198497772217;1.474735975265503;0.0;0.0;0.0
800;-0.41235998272895813;-0.20032399892807007;1.3346799612045288;-0.2781600058078766;-0.48214399814605713;1.4952319860458374;-19.018123626708984;6.033124923706055;103.47750091552734
802;0.0;0.0;0.0;-0.22740799188613892;-0.5524159669876099;1.465951919555664;0.0;0.0;0.0
804;0.0;0.0;0.0;-0.21569599211215973;-0.6187840104103088;1.4376479387283325;0.0;0.0;0.0
806;0.0;0.0;0.0;-0.17665599286556244;-0.7124800086021423;1.441551923751831;0.0;0.0;0.0
808;-0.3230559825897217;-0.48677998781204224;1.317355990409851;-0.1268799901008606;-0.7827519774436951;1.392751932144165;-35.328125;-25.746875762939453;99.20750427246094
811;0.0;0.0;0.0;-0.0878399983048439;-0.8335039615631104;1.3449280261993408;0.0;0.0;0.0
813;0.0;0.0;0.0;-0.04879999905824661;-0.9428159594535828;1.311743974685669;0.0;0.0;0.0
815;0.0;0.0;0.0;-0.037087999284267426;-1.0287039279937744;1.2756320238113403;0.0;0.0;0.0
817;-0.16713999211788177;-0.8217920064926147;1.1821799278259277;0.0058559998869895935;-1.1419199705123901;1.2268320322036743;-50.16812515258789;-52.13687515258789;92.20750427246094
819;0.0;0.0;0.0;0.037087999284267426;-1.2356159687042236;1.1663199663162231;0.0;0.0;0.0
821;0.0;0.0;0.0;0.10247999429702759;-1.3293119668960571;1.1702239513397217;0.0;0.0;0.0
823;0.0;0.0;0.0;0.12199999392032623;-1.4230079650878906;1.1136159896850586;0.0;0.0;0.0
825;-0.028303999453783035;-1.189255952835083;1.022603988647461;0.16103999316692352;-1.5127999782562256;1.060912013053894;-62.83812713623047;-65.22687530517578;78.4175033569336
828;0.0;0.0;0.0;0.15323199331760406;-1.5713599920272827;1.0287039279937744;0.0;0.0;0.0
830;0.0;0.0;0.0;0.19227199256420135;-1.6611520051956177;0.9799039959907532;0.0;0.0;0.0
832;0.0;0.0;0.0;0.2664479911327362;-1.7275199890136719;0.9350079894065857;0.0;0.0;0.0
834;0.10687199980020523;-1.5157279968261719;0.8588799834251404;0.32500800490379333;-1.8173120021820068;0.8901119828224182;-73.0581283569336;-64.9468765258789;56.64750289916992
836;0.0;0.0;0.0;0.3484320044517517;-1.8173120021820068;0.8862079977989197;0.0;0.0;0.0
838;0.0;0.0;0.0;0.4147999882698059;-1.8719679117202759;0.7807999849319458;0.0;0.0;0.0
840;0.0;0.0;0.0;0.42163199186325073;-1.9422399997711182;0.7075999975204468;0.0;0.0;0.0
842;0.2810879945755005;-1.738987922668457;0.6661199927330017;0.472383975982666;-1.9695680141448975;0.6548959612846375;-75.43812561035156;-57.666873931884766;34.597503662109375
845;0.0;0.0;0.0;0.4958080053329468;-2.020319938659668;0.6470879912376404;0.0;0.0;0.0
847;0.0;0.0;0.0;0.5153279900550842;-2.004703998565674;0.6139039993286133;0.0;0.0;0.0
849;0.0;0.0;0.0;0.5504639744758606;-2.03983998298645;0.5816959738731384;0.0;0.0;0.0
851;0.40162399411201477;-1.8736759424209595;0.49727198481559753;0.5465599894523621;-2.028127908706665;0.545583963394165;-61.01812744140625;-44.01687240600586;18.84749984741211
853;0.0;0.0;0.0;0.5582720041275024;-2.028127908706665;0.513375997543335;0.0;0.0;0.0
855;0.0;0.0;0.0;0.5582720041275024;-2.020319938659668;0.4928799867630005;0.0;0.0;0.0
857;0.0;0.0;0.0;0.5973119735717773;-2.024224042892456;0.45579198002815247;0.0;0.0;0.0
859;0.4572559893131256;-1.8863639831542969;0.37331998348236084;0.5816959738731384;-2.008607864379883;0.48019200563430786;-37.078125;-31.626874923706055;8.907500267028809
862;0.0;0.0;0.0;0.6246399879455566;-1.9968959093093872;0.472383975982666;0.0;0.0;0.0
864;0.0;0.0;0.0;0.6051200032234192;-2.0007998943328857;0.43139198422431946;0.0;0.0;0.0
866;0.0;0.0;0.0;0.5895040035247803;-1.9929919242858887;0.44017598032951355;0.0;0.0;0.0
868;0.48019200563430786;-1.8585479259490967;0.3198840022087097;0.562175989151001;-1.9695680141448975;0.44017598032951355;-10.338125228881836;-19.09687614440918;-0.7524999976158142
870;0.0;0.0;0.0;0.5738880038261414;-1.9617599248886108;0.46457600593566895;0.0;0.0;0.0
872;0.0;0.0;0.0;0.5934079885482788;-1.9188159704208374;0.436271995306015;0.0;0.0;0.0
874;0.0;0.0;0.0;0.5543680191040039;-1.8875839710235596;0.436271995306015;0.0;0.0;0.0
876;0.46042799949645996;-1.7709519863128662;0.3274479806423187;0.6012159585952759;-1.8446400165557861;0.44017598032951355;10.871874809265137;-2.366874933242798;-15.032500267028809
879;0.0;0.0;0.0;0.569983959197998;-1.8134080171585083;0.460671991109848;0.0;0.0;0.0
881;0.0;0.0;0.0;0.5895040035247803;-1.7509440183639526;0.4928799867630005;0.0;0.0;0.0
883;0.0;0.0;0.0;0.5660799741744995;-1.6806719303131104;0.4967840015888214;0.0;0.0;0.0
885;0.45993998646736145;-1.611132025718689;0.3608759939670563;0.5660799741744995;-1.6103999614715576;0.5084959864616394;24.661876678466797;17.093124389648438;-31.97249984741211
887;0.0;0.0;0.0;0.5348479747772217;-1.547935962677002;0.5006880164146423;0.0;0.0;0.0
889;0.0;0.0;0.0;0.4840959906578064;-1.497183918952942;0.545583963394165;0.0;0.0;0.0
891;0.0;0.0;0.0;0.4997119903564453;-1.3917759656906128;0.5494880080223083;0.0;0.0;0.0
893;0.3879599869251251;-1.340291976928711;0.41455599665641785;0.4997119903564453;-1.3332159519195557;0.569983959197998;33.271873474121094;35.363128662109375;-47.932498931884766
896;0.0;0.0;0.0;0.4840959906578064;-1.2590399980545044;0.5904799699783325;0.0;0.0;0.0
898;0.0;0.0;0.0;0.47628799080848694;-1.2200000286102295;0.6060959696769714;0.0;0.0;0.0
900;0.0;0.0;0.0;0.5036159753799438;-1.1614400148391724;0.6060959696769714;0.0;0.0;0.0
902;0.3723439872264862;-1.0684759616851807;0.47921597957611084;0.4958080053329468;-1.126304030418396;0.6383039951324463;38.73187255859375;46.493125915527344;-58.432498931884766
904;0.0;0.0;0.0;0.48019200563430786;-1.0091840028762817;0.6627039909362793;0.0;0.0;0.0
906;0.0;0.0;0.0;0.4147999882698059;-0.9896639585494995;0.7154079675674438;0.0;0.0;0.0
908;0.0;0.0;0.0;0.40699198842048645;-0.9193919897079468;0.7437120079994202;0.0;0.0;0.0
910;0.31915199756622314;-0.8413119912147522;0.578279972076416;0.37966400384902954;-0.8686400055885315;0.7642079591751099;42.9318733215332;58.743125915527344;-63.47249984741211
913;0.0;0.0;0.0;0.3328160047531128;-0.8256959915161133;0.8169119954109192;0.0;0.0;0.0
915;0.0;0.0;0.0;0.30158400535583496;-0.7905600070953369;0.8539999723434448;0.0;0.0;0.0
917;0.0;0.0;0.0;0.31329599022865295;-0.7124800086021423;0.8735199570655823;0.0;0.0;0.0
919;0.20178799331188202;-0.6263479590415955;0.7134559750556946;0.26254400610923767;-0.6656320095062256;0.9223200082778931;42.44187545776367;70.15312194824219;-65.85250091552734
921;0.0;0.0;0.0;0.25863999128341675;-0.6031680107116699;0.9506239891052246;0.0;0.0;0.0
923;0.0;0.0;0.0;0.25863999128341675;-0.5719360113143921;1.012112021446228;0.0;0.0;0.0
925;0.0;0.0;0.0;0.2117919921875;-0.5485119819641113;1.036512017250061;0.0;0.0;0.0
927;0.10735999792814255;-0.43309998512268066;0.8671759963035583;0.16494399309158325;-0.4626239836215973;1.0570080280303955;36.84187316894531;75.12312316894531;-66.4124984741211
930;0.0;0.0;0.0;0.1180959939956665;-0.4391999840736389;1.1497279405593872;0.0;0.0;0.0
932;0.0;0.0;0.0;0.07222399860620499;-0.44310399889945984;1.1819360256195068;0.0;0.0;0.0
934;0.0;0.0;0.0;0.01756799966096878;-0.40406399965286255;1.2268320322036743;0.0;0.0;0.0
936;-0.049775999039411545;-0.2903600037097931;1.0401719808578491;-0.037087999284267426;-0.3806400001049042;1.2551360130310059;23.47187614440918;75.89311981201172;-67.60250091552734
938;0.0;0.0;0.0;-0.0331839993596077;-0.36111998558044434;1.2922239303588867;0.0;0.0;0.0
940;0.0;0.0;0.0;-0.07612799853086472;-0.34940800070762634;1.3166239261627197;0.0;0.0;0.0
942;0.0;0.0;0.0;-0.11126399785280228;-0.33769598603248596;1.3244320154190063;0.0;0.0;0.0
944;-0.20056799054145813;-0.20398399233818054;1.1760799884796143;-0.1424959897994995;-0.3337920010089874;1.3283360004425049;1.8418749570846558;77.71311950683594;-75.1624984741211
947;0.0;0.0;0.0;-0.19227199256420135;-0.32207998633384705;1.336143970489502;0.0;0.0;0.0
949;0.0;0.0;0.0;-0.1454239934682846;-0.24009600281715393;1.360543966293335;0.0;0.0;0.0
951;0.0;0.0;0.0;-0.1844639927148819;-0.18934398889541626;1.425935983657837;0.0;0.0;0.0
953;-0.28547999262809753;-0.12321999669075012;1.2336640357971191;-0.19227199256420135;-0.16591998934745789;1.417151927947998;-15.16812515258789;72.3231201171875;-85.24250030517578
955;0.0;0.0;0.0;-0.23131199181079865;-0.15030398964881897;1.4054399728775024;0.0;0.0;0.0
957;0.0;0.0;0.0;-0.25863999128341675;-0.13468798995018005;1.4220319986343384;0.0;0.0;0.0
959;0.0;0.0;0.0;-0.22740799188613892;-0.12297599762678146;1.4132479429244995;0.0;0.0;0.0
961;-0.3533119857311249;-0.0014639999717473984;1.2648959159851074;-0.27035200595855713;-0.12297599762678146;1.3644479513168335;-24.968124389648438;55.173126220703125;-91.75249481201172
964;0.0;0.0;0.0;-0.24985599517822266;-0.07612799853086472;1.3644479513168335;0.0;0.0;0.0
966;0.0;0.0;0.0;-0.17958399653434753;-0.0058559998869895935;1.417151927947998;0.0;0.0;0.0
968;0.0;0.0;0.0;-0.19910399615764618;0.029279999434947968;1.3644479513168335;0.0;0.0;0.0
970;-0.34306398034095764;0.10443200170993805;1.2326879501342773;-0.22252799570560455;0.07612799853086472;1.3488320112228394;-25.59812355041504;29.343124389648438;-94.62249755859375
972;0.0;0.0;0.0;-0.2420479953289032;0.09174399822950363;1.3322399854660034;0.0;0.0;0.0
974;0.0;0.0;0.0;-0.2147199958562851;0.09955199807882309;1.3205280303955078;0.0;0.0;0.0
976;0.0;0.0;0.0;-0.20691199600696564;0.10345599800348282;1.3078399896621704;0.0;0.0;0.0
978;-0.3198840022087097;0.2378999888896942;1.181447982788086;-0.1298079937696457;0.11907199770212173;1.2639199495315552;-22.86812400817871;6.663125038146973;-93.4324951171875
981;0.0;0.0;0.0;-0.09564799815416336;0.1424959897994995;1.262943983078003;0.0;0.0;0.0
983;0.0;0.0;0.0;-0.07222399860620499;0.16591998934745789;1.1985279321670532;0.0;0.0;0.0
985;0.0;0.0;0.0;-0.05270399898290634;0.19324800372123718;1.2063360214233398;0.0;0.0;0.0
987;-0.1937360018491745;0.29304400086402893;1.0945839881896973;-0.040991999208927155;0.21276798844337463;1.1741279363632202;-19.298124313354492;-4.956875324249268;-87.8324966430664
989;0.0;0.0;0.0;-0.06441599875688553;0.2479040026664734;1.1907199621200562;0.0;0.0;0.0
991;0.0;0.0;0.0;-0.08393599838018417;0.2869440019130707;1.1907199621200562;0.0;0.0;0.0
993;0.0;0.0;0.0;-0.05270399898290634;0.3142719864845276;1.1858400106430054;0.0;0.0;0.0
996;-0.19764000177383423;0.4089439809322357;1.0579839944839478;-0.07222399860620499;0.32598400115966797;1.1702239513397217;-14.258125305175781;-2.366874933242798;-80.0625
998;0.0;0.0;0.0;-0.0878399983048439;0.3416000008583069;1.1624159812927246;0.0;0.0;0.0
1000;0.0;0.0;0.0;-0.07612799853086472;0.33769598603248596;1.1497279405593872;0.0;0.0;0.0
1002;0.0;0.0;0.0;-0.0605119988322258;0.32598400115966797;1.1292319297790527;0.0;0.0;0.0
1004;-0.19397999346256256;0.4596959948539734;1.024067997932434;-0.06831999868154526;0.3298879861831665;1.134112000465393;-11.528125762939453;4.633124828338623;-71.80249786376953
1006;0.0;0.0;0.0;-0.06831999868154526;0.30646398663520813;1.1536319255828857;0.0;0.0;0.0
1008;0.0;0.0;0.0;-0.0878399983048439;0.2869440019130707;1.1419199705123901;0.0;0.0;0.0
1010;0.0;0.0;0.0;-0.13468798995018005;0.3025600016117096;1.1380159854888916;0.0;0.0;0.0
1013;-0.2147199958562851;0.4345639944076538;1.0216280221939087;-0.1571359932422638;0.29865598678588867;1.1985279321670532;-3.828125;10.653124809265137;-63.682498931884766
1015;0.0;0.0;0.0;-0.12297599762678146;0.3845439851284027;1.2229279279708862;0.0;0.0;0.0
1017;0.0;0.0;0.0;-0.15323199331760406;0.4001599848270416;1.2307360172271729;0.0;0.0;0.0
1019;0.0;0.0;0.0;-0.2000799924135208;0.4001599848270416;1.2434239387512207;0.0;0.0;0.0
1021;-0.2874319851398468;0.5243560075759888;1.0948280096054077;-0.19617599248886108;0.4470079839229584;1.2551360130310059;0.5818749666213989;11.423125267028809;-58.9224967956543
1023;0.0;0.0;0.0;-0.2235039919614792;0.43139198422431946;1.2151199579238892;0.0;0.0;0.0
1025;0.0;0.0;0.0;-0.18055999279022217;0.47043198347091675;1.2473279237747192;0.0;0.0;0.0
1027;0.0;0.0;0.0;-0.18836799263954163;0.45481598377227783;1.2190239429473877;0.0;0.0;0.0
1030;-0.31573599576950073;0.5860880017280579;1.0943399667739868;-0.19227199256420135;0.49775999784469604;1.2024319171905518;-0.3981249928474426;6.313124656677246;-57.1724967956543
1032;0.0;0.0;0.0;-0.15323199331760406;0.521183967590332;1.2151199579238892;0.0;0.0;0.0
1034;0.0;0.0;0.0;-0.12297599762678146;0.5563200116157532;1.1819360256195068;0.0;0.0;0.0
1036;0.0;0.0;0.0;-0.11126399785280228;0.5914559960365295;1.1868159770965576;0.0;0.0;0.0
1038;-0.25107598304748535;0.6844199895858765;1.063107967376709;-0.08393599838018417;0.6187840104103088;1.1624159812927246;2.681874990463257;0.7131249904632568;-54.37249755859375
1040;0.0;0.0;0.0;-0.07612799853086472;0.6617279648780823;1.1907199621200562;0.0;0.0;0.0
1042;0.0;0.0;0.0;-0.06441599875688553;0.7124800086021423;1.1907199621200562;0.0;0.0;0.0
1044;0.0;0.0;0.0;-0.07222399860620499;0.7241919636726379;1.1702239513397217;0.0;0.0;0.0
1047;-0.18177999556064606;0.8213039636611938;1.0535919666290283;-0.07612799853086472;0.7437120079994202;1.1780319213867188;6.881875038146973;-1.736875057220459;-47.582496643066406
1049;0.0;0.0;0.0;-0.0331839993596077;0.7788479924201965;1.1741279363632202;0.0;0.0;0.0
1051;0.0;0.0;0.0;-0.07222399860620499;0.7632319927215576;1.1907199621200562;0.0;0.0;0.0
1053;0.0;0.0;0.0;-0.044895999133586884;0.7905600070953369;1.1780319213867188;0.0;0.0;0.0
1055;-0.1739719957113266;0.9091439843177795;1.0494439601898193;-0.02537599951028824;0.8061760067939758;1.1868159770965576;8.631875038146973;3.093125104904175;-38.342498779296875
1057;0.0;0.0;0.0;-0.06831999868154526;0.8295999765396118;1.1985279321670532;0.0;0.0;0.0
1059;0.0;0.0;0.0;-0.07612799853086472;0.8374080061912537;1.2190239429473877;0.0;0.0;0.0
1061;0.0;0.0;0.0;-0.11907199770212173;0.8647359609603882;1.2229279279708862;0.0;0.0;0.0
1064;-0.2147199958562851;0.9686799645423889;1.0865319967269897;-0.1424959897994995;0.8217920064926147;1.2473279237747192;8.701874732971191;14.573124885559082;-28.332500457763672
1066;0.0;0.0;0.0;-0.1571359932422638;0.8569279909133911;1.2678239345550537;0.0;0.0;0.0
1068;0.0;0.0;0.0;-0.1424959897994995;0.8452159762382507;1.2756320238113403;0.0;0.0;0.0
1070;0.0;0.0;0.0;-0.13859200477600098;0.8335039615631104;1.3205280303955078;0.0;0.0;0.0
1072;-0.2681559920310974;0.9762439727783203;1.1568039655685425;-0.15811198949813843;0.8530240058898926;1.3283360004425049;6.181875228881836;23.88312530517578;-19.162500381469727
1074;0.0;0.0;0.0;-0.17665599286556244;0.8295999765396118;1.352735996246338;0.0;0.0;0.0
1076;0.0;0.0;0.0;-0.16884799301624298;0.8178879618644714;1.3449280261993408;0.0;0.0;0.0
1078;0.0;0.0;0.0;-0.17665599286556244;0.8256959915161133;1.352735996246338;0.0;0.0;0.0
1081;-0.30573198199272156;0.9520879983901978;1.2212200164794922;-0.20398399233818054;0.8256959915161133;1.360543966293335;3.731874942779541;27.52312469482422;-11.392499923706055
1083;0.0;0.0;0.0;-0.21081599593162537;0.8295999765396118;1.3693280220031738;0.0;0.0;0.0
1085;0.0;0.0;0.0;-0.21862399578094482;0.8178879618644714;1.401535987854004;0.0;0.0;0.0
1087;0.0;0.0;0.0;-0.16787199676036835;0.8217920064926147;1.4054399728775024;0.0;0.0;0.0
1089;-0.31207600235939026;0.9569680094718933;1.2490359544754028;-0.1600639969110489;0.8178879618644714;1.3888479471206665;5.061875343322754;20.593124389648438;-2.992500066757202
1091;0.0;0.0;0.0;-0.17177599668502808;0.8295999765396118;1.392751932144165;0.0;0.0;0.0
1093;0.0;0.0;0.0;-0.17177599668502808;0.8100799918174744;1.392751932144165;0.0;0.0;0.0
1095;0.0;0.0;0.0;-0.187391996383667;0.8139839768409729;1.425935983657837;0.0;0.0;0.0
1098;-0.2881639897823334;0.9459879994392395;1.2622119188308716;-0.17958399653434753;0.8100799918174744;1.401535987854004;8.491874694824219;12.193124771118164;7.017499923706055
1100;0.0;0.0;0.0;-0.19910399615764618;0.8295999765396118;1.3937280178070068;0.0;0.0;0.0
1102;0.0;0.0;0.0;-0.1483519971370697;0.8256959915161133;1.3810399770736694;0.0;0.0;0.0
1104;0.0;0.0;0.0;-0.17958399653434753;0.8374080061912537;1.3937280178070068;0.0;0.0;0.0
1106;-0.29060399532318115;0.9586759805679321;1.252695918083191;-0.18348799645900726;0.8413119912147522;1.3732320070266724;11.221875190734863;6.453125;17.727500915527344
1108;0.0;0.0;0.0;-0.12199999392032623;0.8256959915161133;1.384943962097168;0.0;0.0;0.0
1110;0.0;0.0;0.0;-0.1454239934682846;0.8061760067939758;1.3566399812698364;0.0;0.0;0.0
1112;0.0;0.0;0.0;-0.10247999429702759;0.8374080061912537;1.352735996246338;0.0;0.0;0.0
1115;-0.2508319914340973;0.9574559926986694;1.2275639772415161;-0.13371199369430542;0.8022719621658325;1.3205280303955078;13.671875;4.42312479019165;29.0674991607666
1117;0.0;0.0;0.0;-0.1424959897994995;0.798367977142334;1.3205280303955078;0.0;0.0;0.0
1119;0.0;0.0;0.0;-0.15811198949813843;0.7944639921188354;1.3488320112228394;0.0;0.0;0.0
1121;0.0;0.0;0.0;-0.11907199770212173;0.7710399627685547;1.352735996246338;0.0;0.0;0.0
1123;-0.2508319914340973;0.9123159646987915;1.2090200185775757;-0.13859200477600098;0.7788479924201965;1.3693280220031738;20.251874923706055;8.413125038146973;41.597503662109375
1125;0.0;0.0;0.0;-0.16884799301624298;0.7632319927215576;1.3976320028305054;0.0;0.0;0.0
1127;0.0;0.0;0.0;-0.18055999279022217;0.7593280076980591;1.4132479429244995;0.0;0.0;0.0
1129;0.0;0.0;0.0;-0.20788799226284027;0.7632319927215576;1.433743953704834;0.0;0.0;0.0
1132;-0.30329200625419617;0.9015799760818481;1.2690439224243164;-0.22740799188613892;0.7710399627685547;1.4220319986343384;26.831876754760742;11.423125267028809;53.777503967285156
1134;0.0;0.0;0.0;-0.23521599173545837;0.7632319927215576;1.45033597946167;0.0;0.0;0.0
1136;0.0;0.0;0.0;-0.24692799150943756;0.7515199780464172;1.45033597946167;0.0;0.0;0.0
1138;0.0;0.0;0.0;-0.27035200595855713;0.685151994228363;1.4464319944381714;0.0;0.0;0.0
1140;-0.38649600744247437;0.8486319780349731;1.3151599168777466;-0.28596800565719604;0.6734399795532227;1.4542399644851685;29.071876525878906;2.6731250286102295;62.73750305175781
1142;0.0;0.0;0.0;-0.30158400535583496;0.6344000101089478;1.45033597946167;0.0;0.0;0.0
1144;0.0;0.0;0.0;-0.2547360062599182;0.6226879954338074;1.45033597946167;0.0;0.0;0.0
1146;0.0;0.0;0.0;-0.2117919921875;0.6265919804573059;1.465951919555664;0.0;0.0;0.0
1149;-0.3689279854297638;0.7671359777450562;1.3146719932556152;-0.19227199256420135;0.6070719957351685;1.4425280094146729;28.091875076293945;-16.36687469482422;67.14749908447266
1151;0.0;0.0;0.0;-0.17665599286556244;0.6187840104103088;1.4132479429244995;0.0;0.0;0.0
1153;0.0;0.0;0.0;-0.15030398964881897;0.610975980758667;1.3566399812698364;0.0;0.0;0.0
1155;0.0;0.0;0.0;-0.115167997777462;0.6344000101089478;1.3449280261993408;0.0;0.0;0.0
1157;-0.26571598649024963;0.7439559698104858;1.2309799194335938;-0.11126399785280228;0.5953599810600281;1.3039360046386719;24.661876678466797;-33.58687210083008;70.4375
1159;0.0;0.0;0.0;-0.07612799853086472;0.6226879954338074;1.2922239303588867;0.0;0.0;0.0
1161;0.0;0.0;0.0;-0.08003199845552444;0.6344000101089478;1.2512320280075073;0.0;0.0;0.0
1163;0.0;0.0;0.0;-0.04879999905824661;0.6304959654808044;1.2112159729003906;0.0;0.0;0.0
1166;-0.18544000387191772;0.7627440094947815;1.1236200332641602;-0.037087999284267426;0.610975980758667;1.1868159770965576;21.371875762939453;-44.576873779296875;73.86750030517578
1168;0.0;0.0;0.0;0.013663999736309052;0.610975980758667;1.1292319297790527;0.0;0.0;0.0
1170;0.0;0.0;0.0;0.04879999905824661;0.5719360113143921;1.085312008857727;0.0;0.0;0.0
1172;0.0;0.0;0.0;0.09857599437236786;0.5836479663848877;1.0687199831008911;0.0;0.0;0.0
1174;-0.05904799699783325;0.7144320011138916;0.973315954208374;0.1454239934682846;0.536799967288971;1.036512017250061;18.15187644958496;-48.63687515258789;77.92750549316406
1176;0.0;0.0;0.0;0.18836799263954163;0.513375997543335;1.019919991493225;0.0;0.0;0.0
1178;0.0;0.0;0.0;0.2391199916601181;0.5055679678916931;1.012112021446228;0.0;0.0;0.0
1181;0.0;0.0;0.0;0.2508319914340973;0.4782399833202362;0.9750239849090576;0.0;0.0;0.0
1183;0.1076039969921112;0.6487959623336792;0.8735199570655823;0.2508319914340973;0.5172799825668335;0.9877119660377502;18.641876220703125;-40.796875;83.59750366210938
1185;0.0;0.0;0.0;0.26254400610923767;0.48604798316955566;0.9633119702339172;0.0;0.0;0.0
1187;0.0;0.0;0.0;0.24692799150943756;0.48604798316955566;0.9467200040817261;0.0;0.0;0.0
1189;0.0;0.0;0.0;0.2508319914340973;0.47433599829673767;0.9672159552574158;0.0;0.0;0.0
1191;0.1349319964647293;0.6041439771652222;0.8396039605140686;0.2235039919614792;0.4391999840736389;0.9467200040817261;17.661876678466797;-20.63687515258789;89.40750122070312
1194;0.0;0.0;0.0;0.2508319914340973;0.4274879992008209;1.0082080364227295;0.0;0.0;0.0
1195;0.0;0.0;0.0;0.18836799263954163;0.3962559998035431;1.019919991493225;0.0;0.0;0.0
1197;0.0;0.0;0.0;0.15323199331760406;0.34940800070762634;1.036512017250061;0.0;0.0;0.0
1200;0.06539200246334076;0.508251965045929;0.8886479735374451;0.10345599800348282;0.29475200176239014;1.0687199831008911;15.631875038146973;4.353124618530273;93.1875
1202;0.0;0.0;0.0;0.06441599875688553;0.2479040026664734;1.1048319339752197;0.0;0.0;0.0
1204;0.0;0.0;0.0;-0.02537599951028824;0.20105600357055664;1.1009279489517212;0.0;0.0;0.0
1206;0.0;0.0;0.0;-0.009759999811649323;0.19324800372123718;1.1292319297790527;0.0;0.0;0.0
1208;-0.10784799605607986;0.35575199127197266;0.97843998670578;-0.0058559998869895935;0.17372798919677734;1.1702239513397217;12.551875114440918;21.433124542236328;94.30750274658203
1210;0.0;0.0;0.0;0.009759999811649323;0.1815359890460968;1.2151199579238892;0.0;0.0;0.0
1212;0.0;0.0;0.0;-0.06441599875688553;0.13468798995018005;1.2102400064468384;0.0;0.0;0.0
1215;0.0;0.0;0.0;-0.09955199807882309;0.09564799815416336;1.2151199579238892;0.0;0.0;0.0
1217;-0.17958399653434753;0.2542479932308197;1.0840920209884644;-0.115167997777462;0.044895999133586884;1.2590399980545044;10.661874771118164;16.533124923706055;97.17750549316406
1219;0.0;0.0;0.0;-0.12297599762678146;-0.013663999736309052;1.2395199537277222;0.0;0.0;0.0
1221;0.0;0.0;0.0;-0.1424959897994995;-0.01756799966096878;1.2678239345550537;0.0;0.0;0.0
1223;0.0;0.0;0.0;-0.1727519929409027;-0.0331839993596077;1.2834399938583374;0.0;0.0;0.0
1225;-0.28133198618888855;0.11077599972486496;1.1209360361099243;-0.24302399158477783;-0.07612799853086472;1.2024319171905518;8.561874389648438;2.463124990463257;98.0875015258789
1227;0.0;0.0;0.0;-0.27035200595855713;-0.13468798995018005;1.2590399980545044;0.0;0.0;0.0
1229;0.0;0.0;0.0;-0.22740799188613892;-0.1815359890460968;1.2717279195785522;0.0;0.0;0.0
1232;0.0;0.0;0.0;-0.21959999203681946;-0.2205759882926941;1.2795360088348389;0.0;0.0;0.0
1234;-0.34769999980926514;-0.03635599836707115;1.1272799968719482;-0.16591998934745789;-0.2205759882926941;1.2639199495315552;3.801874876022339;-17.556875228881836;95.77750396728516
1236;0.0;0.0;0.0;-0.1727519929409027;-0.24399998784065247;1.2268320322036743;0.0;0.0;0.0
1238;0.0;0.0;0.0;-0.1571359932422638;-0.24399998784065247;1.1624159812927246;0.0;0.0;0.0
1240;0.0;0.0;0.0;-0.16201600432395935;-0.23228800296783447;1.134112000465393;0.0;0.0;0.0
1242;-0.29475200176239014;-0.10613999515771866;1.0411479473114014;-0.1424959897994995;-0.25571200251579285;1.10971200466156;-6.838124752044678;-31.626874923706055;90.94750213623047
1244;0.0;0.0;0.0;-0.10735999792814255;-0.24399998784065247;1.0570080280303955;0.0;0.0;0.0
1246;0.0;0.0;0.0;-0.08003199845552444;-0.27132800221443176;1.036512017250061;0.0;0.0;0.0
1249;0.0;0.0;0.0;-0.037087999284267426;-0.2908479869365692;1.0082080364227295;0.0;0.0;0.0
1251;-0.18690399825572968;-0.1525000035762787;0.9062159657478333;-0.01756799966096878;-0.3455039858818054;0.9428159594535828;-14.188125610351562;-43.03687286376953;86.11750030517578
1253;0.0;0.0;0.0;0.0605119988322258;-0.3337920010089874;0.9672159552574158;0.0;0.0;0.0
1255;0.0;0.0;0.0;0.1454239934682846;-0.3728320002555847;0.9067040085792542;0.0;0.0;0.0
1257;0.0;0.0;0.0;0.1454239934682846;-0.4001599848270416;0.8744959831237793;0.0;0.0;0.0
1259;-0.023180000483989716;-0.23253199458122253;0.8022719621658325;0.10638399422168732;-0.4274879992008209;0.8735199570655823;-20.838125228881836;-43.03687286376953;82.6875
1261;0.0;0.0;0.0;0.10247999429702759;-0.47043198347091675;0.8940159678459167;0.0;0.0;0.0
1263;0.0;0.0;0.0;0.12199999392032623;-0.5289919972419739;0.8744959831237793;0.0;0.0;0.0
1266;0.0;0.0;0.0;0.19227199256420135;-0.5446079969406128;0.8862079977989197;0.0;0.0;0.0
1268;0.013419999741017818;-0.37331998348236084;0.7481039762496948;0.16103999316692352;-0.5563200116157532;0.8491199612617493;-28.608123779296875;-30.50687599182129;78.69750213623047
1270;0.0;0.0;0.0;0.1454239934682846;-0.6070719957351685;0.8335039615631104;0.0;0.0;0.0
1272;0.0;0.0;0.0;0.1454239934682846;-0.6578239798545837;0.8579039573669434;0.0;0.0;0.0
1274;0.0;0.0;0.0;0.14932799339294434;-0.6773439645767212;0.8783999681472778;0.0;0.0;0.0
1276;0.02757199853658676;-0.506056010723114;0.7300480008125305;0.13371199369430542;-0.6695359945297241;0.9467200040817261;-34.69812774658203;-12.026875495910645;75.05750274658203
1278;0.0;0.0;0.0;0.12199999392032623;-0.6734399795532227;0.9106079936027527;0.0;0.0;0.0
1280;0.0;0.0;0.0;0.04879999905824661;-0.7280960083007812;0.9184159636497498;0.0;0.0;0.0
1283;0.0;0.0;0.0;0.0058559998869895935;-0.7788479924201965;0.9799039959907532;0.0;0.0;0.0
1285;-0.06368400156497955;-0.5995079874992371;0.8095920085906982;0.0019519999623298645;-0.8452159762382507;0.9633119702339172;-38.828125;5.823124885559082;67.77750396728516
1287;0.0;0.0;0.0;-0.02147199958562851;-0.9232959747314453;0.9389119744300842;0.0;0.0;0.0
1289;0.0;0.0;0.0;0.0058559998869895935;-0.9779520034790039;0.9467200040817261;0.0;0.0;0.0
1291;0.0;0.0;0.0;0.05270399898290634;-1.0287039279937744;0.9555040001869202;0.0;0.0;0.0
1293;-0.10784799605607986;-0.8332599997520447;0.822767972946167;0.06831999868154526;-1.0404160022735596;0.9711199998855591;-40.50812530517578;5.33312463760376;60.847503662109375
1295;0.0;0.0;0.0;0.040991999208927155;-1.0794559717178345;0.9877119660377502;0.0;0.0;0.0
1297;0.0;0.0;0.0;0.07222399860620499;-1.075551986694336;0.9799039959907532;0.0;0.0;0.0
1300;0.0;0.0;0.0;0.029279999434947968;-1.1145919561386108;0.9750239849090576;0.0;0.0;0.0
1302;-0.06612399965524673;-0.9508680105209351;0.8361879587173462;0.040991999208927155;-1.1692479848861694;0.9350079894065857;-35.39812469482422;0.3631250262260437;53.497501373291016
1304;0.0;0.0;0.0;0.09955199807882309;-1.1887680292129517;0.8940159678459167;0.0;0.0;0.0
1306;0.0;0.0;0.0;0.10345599800348282;-1.1965759992599487;0.8823039531707764;0.0;0.0;0.0
1308;0.0;0.0;0.0;0.1698240041732788;-1.2278079986572266;0.8500959873199463;0.0;0.0;0.0
1310;0.0024399999529123306;-1.0699399709701538;0.749567985534668;0.19324800372123718;-1.2356159687042236;0.8461920022964478;-26.928125381469727;-11.186875343322754;48.247501373291016
1313;0.0;0.0;0.0;0.24399998784065247;-1.2590399980545044;0.8217920064926147;0.0;0.0;0.0
1314;0.0;0.0;0.0;0.2869440019130707;-1.2512320280075073;0.8051999807357788;0.0;0.0;0.0
1317;0.0;0.0;0.0;0.2791360020637512;-1.270751953125;0.7729920148849487;0.0;0.0;0.0
1319;0.1420079916715622;-1.1287440061569214;0.6778320074081421;0.2635200023651123;-1.2824640274047852;0.7807999849319458;-13.628125190734863;-13.846875190734863;46.917503356933594
1321;0.0;0.0;0.0;0.26254400610923767;-1.3176000118255615;0.7807999849319458;0.0;0.0;0.0
1323;0.0;0.0;0.0;0.2664479911327362;-1.2863680124282837;0.7847039699554443;0.0;0.0;0.0
1325;0.0;0.0;0.0;0.2391199916601181;-1.2941759824752808;0.8051999807357788;0.0;0.0;0.0
1327;0.13541999459266663;-1.1597319841384888;0.6739279627799988;0.20788799226284027;-1.2941759824752808;0.8256959915161133;-3.758125066757202;-0.19687500596046448;44.46750259399414
1329;0.0;0.0;0.0;0.22740799188613892;-1.2824640274047852;0.8491199612617493;0.0;0.0;0.0
1331;0.0;0.0;0.0;0.18836799263954163;-1.2941759824752808;0.8735199570655823;0.0;0.0;0.0
1334;0.0;0.0;0.0;0.1727519929409027;-1.3332159519195557;0.9027999639511108;0.0;0.0;0.0
1336;0.07320000231266022;-1.1858400106430054;0.7649399638175964;0.16884799301624298;-1.3449280261993408;0.9311040043830872;-2.3581249713897705;22.8331241607666;37.04750061035156
1338;0.0;0.0;0.0;0.11419199407100677;-1.3878719806671143;0.9467200040817261;0.0;0.0;0.0
1340;0.0;0.0;0.0;0.0878399983048439;-1.3956799507141113;0.9994239807128906;0.0;0.0;0.0
1342;0.0;0.0;0.0;0.0878399983048439;-1.4386240243911743;1.0160160064697266;0.0;0.0;0.0
1344;-0.022447999566793442;-1.2739239931106567;0.8737639784812927;0.037087999284267426;-1.4386240243911743;1.0726239681243896;-5.648124694824219;40.1931266784668;26.337499618530273
1346;0.0;0.0;0.0;-0.01756799966096878;-1.4464319944381714;1.085312008857727;0.0;0.0;0.0
1348;0.0;0.0;0.0;-0.02147199958562851;-1.4776639938354492;1.1009279489517212;0.0;0.0;0.0
1351;0.0;0.0;0.0;-0.04879999905824661;-1.4737600088119507;1.0931199789047241;0.0;0.0;0.0
1353;-0.14469200372695923;-1.338339924812317;0.9691680073738098;-0.08003199845552444;-1.50108802318573;1.1331360340118408;-7.328125;38.72312545776367;13.59749984741211
1355;0.0;0.0;0.0;-0.044895999133586884;-1.5206079483032227;1.1380159854888916;0.0;0.0;0.0
1357;0.0;0.0;0.0;-0.04879999905824661;-1.5245119333267212;1.1292319297790527;0.0;0.0;0.0
1359;0.0;0.0;0.0;-0.04879999905824661;-1.547935962677002;1.1087360382080078;0.0;0.0;0.0
1361;-0.17909599840641022;-1.401535987854004;0.9894199967384338;-0.01756799966096878;-1.5869759321212769;1.085312008857727;-8.028124809265137;20.663124084472656;-0.05250000208616257
1363;0.0;0.0;0.0;-0.009759999811649323;-1.5791679620742798;1.085312008857727;0.0;0.0;0.0
1365;0.0;0.0;0.0;-0.0331839993596077;-1.5791679620742798;1.060912013053894;0.0;0.0;0.0
1368;0.0;0.0;0.0;-0.02537599951028824;-1.606495976448059;1.044319987297058;0.0;0.0;0.0
1370;-0.14859600365161896;-1.4508240222930908;0.9359839558601379;-0.029279999434947968;-1.6182079315185547;1.0648159980773926;-6.768125057220459;7.993124961853027;-15.032500267028809
1372;0.0;0.0;0.0;-0.037087999284267426;-1.6025919914245605;1.019919991493225;0.0;0.0;0.0
1374;0.0;0.0;0.0;-0.0058559998869895935;-1.6103999614715576;1.0277279615402222;0.0;0.0;0.0
1376;0.0;0.0;0.0;0.009759999811649323;-1.598688006401062;0.9955199956893921;0.0;0.0;0.0
1378;-0.130295991897583;-1.45033597946167;0.8825479745864868;0.029279999434947968;-1.5440319776535034;0.9877119660377502;-4.528124809265137;7.503124713897705;-31.482500076293945
1380;0.0;0.0;0.0;0.0058559998869895935;-1.508895993232727;0.9633119702339172;0.0;0.0;0.0
1383;0.0;0.0;0.0;0.01756799966096878;-1.465951919555664;0.9838079810142517;0.0;0.0;0.0
1385;0.0;0.0;0.0;0.037087999284267426;-1.4542399644851685;0.9759999513626099;0.0;0.0;0.0
1387;-0.0954039990901947;-1.360055923461914;0.8476560115814209;0.0331839993596077;-1.4425280094146729;0.9594079852104187;-1.868125081062317;12.753125190734863;-46.04249954223633
1389;0.0;0.0;0.0;0.0302559994161129;-1.4230079650878906;0.9594079852104187;0.0;0.0;0.0
1391;0.0;0.0;0.0;0.03806399926543236;-1.411296010017395;0.9672159552574158;0.0;0.0;0.0
1393;0.0;0.0;0.0;0.07320000231266022;-1.411296010017395;0.9838079810142517;0.0;0.0;0.0
1395;-0.07539600133895874;-1.281243920326233;0.8359439969062805;0.049775999039411545;-1.3839679956436157;0.9711199998855591;2.681874990463257;17.513124465942383;-56.40250015258789
1398;0.0;0.0;0.0;0.03415999934077263;-1.3800640106201172;0.9633119702339172;0.0;0.0;0.0
1400;0.0;0.0;0.0;0.0029279999434947968;-1.32150399684906;0.9594079852104187;0.0;0.0;0.0
1402;0.0;0.0;0.0;-0.0009759999811649323;-1.270751953125;0.9838079810142517;0.0;0.0;0.0
1404;-0.10589599609375;-1.193892002105713;0.8552199602127075;-0.020495999604463577;-1.262943983078003;1.0238239765167236;7.651875019073486;23.253124237060547;-65.4324951171875
1406;0.0;0.0;0.0;-0.029279999434947968;-1.2121919393539429;1.019919991493225;0.0;0.0;0.0
1408;0.0;0.0;0.0;-0.0331839993596077;-1.1692479848861694;1.036512017250061;0.0;0.0;0.0
1410;0.0;0.0;0.0;-0.05660799890756607;-1.1614400148391724;1.0033279657363892;0.0;0.0;0.0
1412;-0.1651879996061325;-1.0611560344696045;0.8869400024414062;-0.08003199845552444;-1.1302080154418945;1.036512017250061;11.01187515258789;24.513124465942383;-73.13249969482422
1415;0.0;0.0;0.0;-0.05270399898290634;-1.0521279573440552;1.019919991493225;0.0;0.0;0.0
1417;0.0;0.0;0.0;-0.0331839993596077;-1.0482239723205566;1.044319987297058;0.0;0.0;0.0
1419;0.0;0.0;0.0;-0.06831999868154526;-1.0130879878997803;1.0326080322265625;0.0;0.0;0.0
1421;-0.18592800199985504;-0.901091992855072;0.90938800573349;-0.09174399822950363;-0.9662399888038635;1.0287039279937744;11.711874961853027;20.24312400817871;-80.34249877929688
1423;0.0;0.0;0.0;-0.09174399822950363;-0.9232959747314453;1.044319987297058;0.0;0.0;0.0
1425;0.0;0.0;0.0;-0.11907199770212173;-0.8491199612617493;1.0521279573440552;0.0;0.0;0.0
1427;0.0;0.0;0.0;-0.0605119988322258;-0.8217920064926147;1.0482239723205566;0.0;0.0;0.0
1429;-0.20227599143981934;-0.7429800033569336;0.9115839600563049;-0.08393599838018417;-0.7866559624671936;1.0404160022735596;9.26187515258789;16.88312530517578;-88.67250061035156
1432;0.0;0.0;0.0;-0.02147199958562851;-0.7515199780464172;1.036512017250061;0.0;0.0;0.0
1434;0.0;0.0;0.0;-0.009759999811649323;-0.6890559792518616;1.0482239723205566;0.0;0.0;0.0
1436;0.0;0.0;0.0;-0.009759999811649323;-0.6265919804573059;1.036512017250061;0.0;0.0;0.0
1438;-0.13639599084854126;-0.5680319666862488;0.912559986114502;0.01756799966096878;-0.6265919804573059;1.0648159980773926;6.811875343322754;18.77312469482422;-96.65249633789062
1440;0.0;0.0;0.0;0.0331839993596077;-0.5836479663848877;1.0404160022735596;0.0;0.0;0.0
1442;0.0;0.0;0.0;0.037087999284267426;-0.5172799825668335;1.0326080322265625;0.0;0.0;0.0
1444;0.0;0.0;0.0;0.037087999284267426;-0.49775999784469604;1.0160160064697266;0.0;0.0;0.0
1446;-0.09052399545907974;-0.40113598108291626;0.8988959789276123;0.05270399898290634;-0.41577598452568054;1.0521279573440552;8.561874389648438;19.963125228881836;-98.9625015258789
1449;0.0;0.0;0.0;0.0878399983048439;-0.3806400001049042;1.0570080280303955;0.0;0.0;0.0
1451;0.0;0.0;0.0;0.08393599838018417;-0.3142719864845276;1.0404160022735596;0.0;0.0;0.0
1453;0.0;0.0;0.0;0.0878399983048439;-0.3181760013103485;1.044319987297058;0.0;0.0;0.0
1455;-0.04001599922776222;-0.21447598934173584;0.9132919907569885;0.06441599875688553;-0.3298879861831665;1.0277279615402222;12.901874542236328;16.603124618530273;-95.74250030517578
1457;0.0;0.0;0.0;0.05270399898290634;-0.3025600016117096;1.044319987297058;0.0;0.0;0.0
1459;0.0;0.0;0.0;0.009759999811649323;-0.2869440019130707;1.0560319423675537;0.0;0.0;0.0
1461;0.0;0.0;0.0;-0.013663999736309052;-0.2479040026664734;1.0726239681243896;0.0;0.0;0.0
1463;-0.10272400081157684;-0.14103199541568756;0.9279319643974304;-0.02537599951028824;-0.2205759882926941;1.1331360340118408;16.121875762939453;19.053125381469727;-94.4124984741211
1465;0.0;0.0;0.0;-0.07612799853086472;-0.16591998934745789;1.1702239513397217;0.0;0.0;0.0
1468;0.0;0.0;0.0;-0.11126399785280228;-0.044895999133586884;1.2063360214233398;0.0;0.0;0.0
1470;0.0;0.0;0.0;-0.2000799924135208;-0.01756799966096878;1.1946239471435547;0.0;0.0;0.0
1472;-0.2454639971256256;0.05831599980592728;1.0516400337219238;-0.20788799226284027;0.0605119988322258;1.2590399980545044;9.541874885559082;29.343124389648438;-99.73249816894531
1474;0.0;0.0;0.0;-0.14640000462532043;0.037087999284267426;1.2590399980545044;0.0;0.0;0.0
1476;0.0;0.0;0.0;-0.05660799890756607;0.0019519999623298645;1.2229279279708862;0.0;0.0;0.0
1478;0.0;0.0;0.0;-0.12297599762678146;0.21667200326919556;1.287343978881836;0.0;0.0;0.0
1480;-0.23301999270915985;0.2281399965286255;1.1319159269332886;-0.1180959939956665;0.27132800221443176;1.3410239219665527;-6.068124771118164;33.333126068115234;-105.6824951171875
1483;0.0;0.0;0.0;-0.14932799339294434;0.23228800296783447;1.2834399938583374;0.0;0.0;0.0
1485;0.0;0.0;0.0;-0.18836799263954163;0.20495998859405518;1.2307360172271729;0.0;0.0;0.0
1487;0.0;0.0;0.0;-0.13078400492668152;0.26742398738861084;1.262943983078003;0.0;0.0;0.0
1489;-0.2747440040111542;0.3869839906692505;1.13264799118042;-0.08393599838018417;0.30646398663520813;1.2834399938583374;-16.358123779296875;25.563125610351562;-104.14250183105469
1491;0.0;0.0;0.0;-0.10735999792814255;0.3142719864845276;1.2190239429473877;0.0;0.0;0.0
1493;0.0;0.0;0.0;-0.08393599838018417;0.3533119857311249;1.2795360088348389;0.0;0.0;0.0
1495;0.0;0.0;0.0;-0.0605119988322258;0.3845439851284027;1.287343978881836;0.0;0.0;0.0
1497;-0.20739999413490295;0.4696999788284302;1.130452036857605;-0.115167997777462;0.3806400001049042;1.2395199537277222;-15.308125495910645;11.843124389648438;-100.92250061035156
1500;0.0;0.0;0.0;-0.11907199770212173;0.36502400040626526;1.2307360172271729;0.0;0.0;0.0
1502;0.0;0.0;0.0;-0.13468798995018005;0.3689279854297638;1.2395199537277222;0.0;0.0;0.0
1504;0.0;0.0;0.0;-0.11126399785280228;0.3806400001049042;1.2678239345550537;0.0;0.0;0.0
1506;-0.234484001994133;0.508251965045929;1.116055965423584;-0.11907199770212173;0.38844799995422363;1.2473279237747192;-9.778125762939453;3.7231249809265137;-95.04249572753906
1508;0.0;0.0;0.0;-0.09564799815416336;0.4079679846763611;1.2756320238113403;0.0;0.0;0.0
1510;0.0;0.0;0.0;-0.07612799853086472;0.40406399965286255;1.2795360088348389;0.0;0.0;0.0
1512;0.0;0.0;0.0;-0.05270399898290634;0.44310399889945984;1.311743974685669;0.0;0.0;0.0
1514;-0.2071560025215149;0.5433880090713501;1.1470439434051514;-0.10345599800348282;0.45871999859809875;1.2834399938583374;-3.338124990463257;1.203125;-91.19249725341797
1517;0.0;0.0;0.0;-0.06441599875688553;0.5055679678916931;1.3000320196151733;0.0;0.0;0.0
1519;0.0;0.0;0.0;-0.115167997777462;0.5250880122184753;1.3039360046386719;0.0;0.0;0.0
1521;0.0;0.0;0.0;-0.11126399785280228;0.5797439813613892;1.3166239261627197;0.0;0.0;0.0
1523;-0.22155199944972992;0.6619719862937927;1.1804720163345337;-0.09955199807882309;0.6031680107116699;1.3205280303955078;1.421875;-0.4768750071525574;-89.1624984741211
1525;0.0;0.0;0.0;-0.08003199845552444;0.6968640089035034;1.3410239219665527;0.0;0.0;0.0
1527;0.0;0.0;0.0;-0.09564799815416336;0.7515199780464172;1.336143970489502;0.0;0.0;0.0
1529;0.0;0.0;0.0;-0.09174399822950363;0.8061760067939758;1.3322399854660034;0.0;0.0;0.0
1531;-0.20398399233818054;0.8742519617080688;1.197551965713501;-0.05660799890756607;0.8608319759368896;1.3410239219665527;5.411875247955322;-10.066875457763672;-84.47249603271484
1534;0.0;0.0;0.0;-0.0019519999623298645;0.9428159594535828;1.3283360004425049;0.0;0.0;0.0
1536;0.0;0.0;0.0;-0.0058559998869895935;1.0052800178527832;1.3449280261993408;0.0;0.0;0.0
1538;0.0;0.0;0.0;-0.009759999811649323;1.0404160022735596;1.2922239303588867;0.0;0.0;0.0
1540;-0.1285879909992218;1.1219120025634766;1.1890119314193726;0.009759999811649323;1.0872639417648315;1.2922239303588867;7.161875247955322;-22.176876068115234;-74.95249938964844
1542;0.0;0.0;0.0;0.040991999208927155;1.1184959411621094;1.2678239345550537;0.0;0.0;0.0
1544;0.0;0.0;0.0;0.0605119988322258;1.1380159854888916;1.2678239345550537;0.0;0.0;0.0
1546;0.0;0.0;0.0;0.05660799890756607;1.1536319255828857;1.2551360130310059;0.0;0.0;0.0
1548;-0.07027199864387512;1.2641639709472656;1.13264799118042;0.08393599838018417;1.1575360298156738;1.2151199579238892;7.721875190734863;-29.176876068115234;-62.21249771118164
1551;0.0;0.0;0.0;0.07222399860620499;1.1965759992599487;1.2434239387512207;0.0;0.0;0.0
1553;0.0;0.0;0.0;0.10345599800348282;1.223904013633728;1.2434239387512207;0.0;0.0;0.0
1555;0.0;0.0;0.0;0.10638399422168732;1.2395199537277222;1.2717279195785522;0.0;0.0;0.0
1557;-0.037087999284267426;1.3434640169143677;1.1145919561386108;0.06831999868154526;1.2668479681015015;1.2346400022506714;8.211874961853027;-24.13687515258789;-50.38249969482422
1559;0.0;0.0;0.0;0.05270399898290634;1.2434239387512207;1.2551360130310059;0.0;0.0;0.0
1561;0.0;0.0;0.0;0.06831999868154526;1.262943983078003;1.2434239387512207;0.0;0.0;0.0
1563;0.0;0.0;0.0;0.0907679945230484;1.2941759824752808;1.2395199537277222;0.0;0.0;0.0
1565;-0.04001599922776222;1.4090999364852905;1.1133719682693481;0.10247999429702759;1.2863680124282837;1.2434239387512207;8.071874618530273;-19.656875610351562;-37.5724983215332
1568;0.0;0.0;0.0;0.11028799414634705;1.2590399980545044;1.23854398727417;0.0;0.0;0.0
1570;0.0;0.0;0.0;0.0878399983048439;1.231711983680725;1.2346400022506714;0.0;0.0;0.0
1572;0.0;0.0;0.0;0.11419199407100677;1.2160959243774414;1.23854398727417;0.0;0.0;0.0
1574;-0.03391600027680397;1.368839979171753;1.0989760160446167;0.08003199845552444;1.2121919393539429;1.2190239429473877;9.541874885559082;-18.326875686645508;-23.502500534057617
1576;0.0;0.0;0.0;0.0605119988322258;1.1887680292129517;1.2063360214233398;0.0;0.0;0.0
1578;0.0;0.0;0.0;0.07222399860620499;1.2082879543304443;1.2063360214233398;0.0;0.0;0.0
1580;0.0;0.0;0.0;0.06831999868154526;1.1848639249801636;1.1702239513397217;0.0;0.0;0.0
1582;-0.053679998964071274;1.3246759176254272;1.0643279552459717;0.05660799890756607;1.2004799842834473;1.1702239513397217;14.161874771118164;-20.9168758392334;-11.532500267028809
1585;0.0;0.0;0.0;0.05270399898290634;1.2121919393539429;1.1497279405593872;0.0;0.0;0.0
1587;0.0;0.0;0.0;0.07222399860620499;1.223904013633728;1.1419199705123901;0.0;0.0;0.0
1589;0.0;0.0;0.0;0.0878399983048439;1.2512320280075073;1.1009279489517212;0.0;0.0;0.0
1591;-0.05660799890756607;1.3678640127182007;0.9991799592971802;0.10735999792814255;1.2434239387512207;1.0931199789047241;18.22187614440918;-28.896875381469727;0.5074999928474426
1593;0.0;0.0;0.0;0.12199999392032623;1.2434239387512207;1.060912013053894;0.0;0.0;0.0
1595;0.0;0.0;0.0;0.1727519929409027;1.2824640274047852;1.012112021446228;0.0;0.0;0.0
1597;0.0;0.0;0.0;0.22740799188613892;1.2473279237747192;0.9633119702339172;0.0;0.0;0.0
1599;0.057339999824762344;1.4012919664382935;0.8781560063362122;0.26254400610923767;1.278559923171997;0.9067040085792542;21.7918758392334;-34.77687454223633;16.467500686645508
1602;0.0;0.0;0.0;0.29767999053001404;1.2668479681015015;0.9067040085792542;0.0;0.0;0.0
1604;0.0;0.0;0.0;0.32891198992729187;1.262943983078003;0.8452159762382507;0.0;0.0;0.0
1606;0.0;0.0;0.0;0.33671998977661133;1.2590399980545044;0.8579039573669434;0.0;0.0;0.0
1608;0.19885998964309692;1.3846999406814575;0.7441999912261963;0.3093920052051544;1.2356159687042236;0.8491199612617493;29.281875610351562;-29.036874771118164;38.79750061035156
1610;0.0;0.0;0.0;0.30158400535583496;1.2473279237747192;0.8579039573669434;0.0;0.0;0.0
1612;0.0;0.0;0.0;0.27035200595855713;1.2121919393539429;0.8696159720420837;0.0;0.0;0.0
1614;0.0;0.0;0.0;0.22740799188613892;1.2082879543304443;0.8862079977989197;0.0;0.0;0.0
1616;0.1437159925699234;1.3517600297927856;0.7346839904785156;0.1727519929409027;1.1965759992599487;0.9067040085792542;35.30187225341797;-1.2468750476837158;58.95750045776367
1619;0.0;0.0;0.0;0.16884799301624298;1.1926720142364502;0.9350079894065857;0.0;0.0;0.0
1621;0.0;0.0;0.0;0.11419199407100677;1.165343999862671;0.9877119660377502;0.0;0.0;0.0
1623;0.0;0.0;0.0;0.07222399860620499;1.1184959411621094;1.0326080322265625;0.0;0.0;0.0
1625;-0.0009759999811649323;1.2778279781341553;0.8469240069389343;0.029279999434947968;1.075551986694336;1.044319987297058;32.361873626708984;30.673124313354492;73.79750061035156
1627;0.0;0.0;0.0;-0.0019519999623298645;1.0169919729232788;1.0804319381713867;0.0;0.0;0.0
1629;0.0;0.0;0.0;-0.0331839993596077;0.9740479588508606;1.1214239597320557;0.0;0.0;0.0
1631;0.0;0.0;0.0;-0.15323199331760406;0.9193919897079468;1.1780319213867188;0.0;0.0;0.0
1633;-0.177387997508049;1.107759952545166;0.9884439706802368;-0.16884799301624298;0.8803519606590271;1.2151199579238892;24.31187629699707;51.88312530517578;82.19750213623047
1636;0.0;0.0;0.0;-0.18055999279022217;0.8608319759368896;1.2717279195785522;0.0;0.0;0.0
1638;0.0;0.0;0.0;-0.21959999203681946;0.8022719621658325;1.3039360046386719;0.0;0.0;0.0
1640;0.0;0.0;0.0;-0.27035200595855713;0.7671359777450562;1.3400479555130005;0.0;0.0;0.0
1642;-0.3396480083465576;0.9298839569091797;1.1672959327697754;-0.29767999053001404;0.708575963973999;1.3566399812698364;14.931875228881836;54.263126373291016;84.15750122070312
1644;0.0;0.0;0.0;-0.3093920052051544;0.708575963973999;1.3888479471206665;0.0;0.0;0.0
1646;0.0;0.0;0.0;-0.3630719780921936;0.6695359945297241;1.4132479429244995;0.0;0.0;0.0
1648;0.0;0.0;0.0;-0.3474559783935547;0.6344000101089478;1.433743953704834;0.0;0.0;0.0
1650;-0.45701199769973755;0.7934879660606384;1.264407992362976;-0.34355199337005615;0.6031680107116699;1.4181280136108398;3.4518749713897705;40.89312744140625;82.05750274658203
1653;0.0;0.0;0.0;-0.3396480083465576;0.5563200116157532;1.384943962097168;0.0;0.0;0.0
1655;0.0;0.0;0.0;-0.32891198992729187;0.5524159669876099;1.3976320028305054;0.0;0.0;0.0
1657;0.0;0.0;0.0;-0.27035200595855713;0.5446079969406128;1.4181280136108398;0.0;0.0;0.0
1659;-0.4311479926109314;0.6712439656257629;1.2714840173721313;-0.2781600058078766;0.45871999859809875;1.3693280220031738;-4.108124732971191;16.88312530517578;80.79750061035156
1661;0.0;0.0;0.0;-0.2820639908313751;0.4001599848270416;1.3644479513168335;0.0;0.0;0.0
1663;0.0;0.0;0.0;-0.25863999128341675;0.3728320002555847;1.3449280261993408;0.0;0.0;0.0
1665;0.0;0.0;0.0;-0.24302399158477783;0.38844799995422363;1.3488320112228394;0.0;0.0;0.0
1667;-0.36868399381637573;0.5316759943962097;1.2158520221710205;-0.19617599248886108;0.3806400001049042;1.3205280303955078;-6.418124675750732;-6.496875286102295;82.82749938964844
1670;0.0;0.0;0.0;-0.23521599173545837;0.3806400001049042;1.2795360088348389;0.0;0.0;0.0
1672;0.0;0.0;0.0;-0.18836799263954163;0.3806400001049042;1.2346400022506714;0.0;0.0;0.0
1674;0.0;0.0;0.0;-0.16103999316692352;0.39235198497772217;1.2434239387512207;0.0;0.0;0.0
1676;-0.3037799894809723;0.5160599946975708;1.1192280054092407;-0.0878399983048439;0.36502400040626526;1.1780319213867188;-8.72812557220459;-20.216875076293945;85.97750091552734
1678;0.0;0.0;0.0;-0.05660799890756607;0.30646398663520813;1.1575360298156738;0.0;0.0;0.0
1680;0.0;0.0;0.0;-0.044895999133586884;0.236191987991333;1.1175199747085571;0.0;0.0;0.0
1682;0.0;0.0;0.0;-0.01756799966096878;0.1698240041732788;1.0970239639282227;0.0;0.0;0.0
1684;-0.16591998934745789;0.3911319971084595;1.0086959600448608;0.013663999736309052;0.25571200251579285;1.1702239513397217;-10.128125190734863;-21.196874618530273;90.10750579833984
1687;0.0;0.0;0.0;-0.044895999133586884;0.10345599800348282;1.10971200466156;0.0;0.0;0.0
1689;0.0;0.0;0.0;-0.09955199807882309;0.07612799853086472;1.0970239639282227;0.0;0.0;0.0
1691;0.0;0.0;0.0;-0.14151999354362488;0.0605119988322258;1.1497279405593872;0.0;0.0;0.0
1693;-0.2025199979543686;0.22911599278450012;1.0016199350357056;-0.13078400492668152;0.037087999284267426;1.1702239513397217;-9.848125457763672;2.253124952316284;88.70750427246094
1695;0.0;0.0;0.0;-0.12590399384498596;-0.05660799890756607;1.1702239513397217;0.0;0.0;0.0
1697;0.0;0.0;0.0;-0.1268799901008606;0.009759999811649323;1.2717279195785522;0.0;0.0;0.0
1699;0.0;0.0;0.0;-0.21959999203681946;0.029279999434947968;1.2512320280075073;0.0;0.0;0.0
1701;-0.2669360041618347;0.12517200410366058;1.0914119482040405;-0.16103999316692352;0.0058559998869895935;1.2590399980545044;-11.598125457763672;13.733124732971191;87.51750183105469
1704;0.0;0.0;0.0;-0.14640000462532043;-0.0058559998869895935;1.2590399980545044;0.0;0.0;0.0
1706;0.0;0.0;0.0;-0.1424959897994995;-0.0331839993596077;1.2268320322036743;0.0;0.0;0.0
1708;0.0;0.0;0.0;-0.1424959897994995;-0.115167997777462;1.1868159770965576;0.0;0.0;0.0
1710;-0.2640079855918884;0.08076399564743042;1.097756028175354;-0.13468798995018005;-0.15030398964881897;1.1985279321670532;-16.288124084472656;11.353124618530273;89.61750030517578
1712;0.0;0.0;0.0;-0.16884799301624298;-0.11907199770212173;1.2229279279708862;0.0;0.0;0.0
1714;0.0;0.0;0.0;-0.16201600432395935;-0.16201600432395935;1.2229279279708862;0.0;0.0;0.0
1716;0.0;0.0;0.0;-0.20398399233818054;-0.1815359890460968;1.2590399980545044;0.0;0.0;0.0
1718;-0.29767999053001404;-0.026839999482035637;1.0997079610824585;-0.21959999203681946;-0.22838398814201355;1.2512320280075073;-11.528125762939453;10.723124504089355;91.57749938964844
1721;0.0;0.0;0.0;-0.22740799188613892;-0.21276798844337463;1.3283360004425049;0.0;0.0;0.0
1723;0.0;0.0;0.0;-0.2391199916601181;-0.22838398814201355;1.3166239261627197;0.0;0.0;0.0
1725;0.0;0.0;0.0;-0.21569599211215973;-0.25571200251579285;1.3205280303955078;0.0;0.0;0.0
1727;-0.35941198468208313;-0.11419199407100677;1.1877919435501099;-0.2508319914340973;-0.3181760013103485;1.360543966293335;-5.578125;3.1631250381469727;95.00749969482422
1729;0.0;0.0;0.0;-0.2576639950275421;-0.3455039858818054;1.3976320028305054;0.0;0.0;0.0
1731;0.0;0.0;0.0;-0.27718400955200195;-0.36502400040626526;1.4132479429244995;0.0;0.0;0.0
1733;0.0;0.0;0.0;-0.30060797929763794;-0.37673598527908325;1.4054399728775024;0.0;0.0;0.0
1735;-0.4055279791355133;-0.22594399750232697;1.2648959159851074;-0.3240320086479187;-0.45871999859809875;1.4054399728775024;-5.718124866485596;-12.656875610351562;95.2874984741211
1738;0.0;0.0;0.0;-0.3201279938220978;-0.43139198422431946;1.392751932144165;0.0;0.0;0.0
1740;0.0;0.0;0.0;-0.32793599367141724;-0.4938559830188751;1.377135992050171;0.0;0.0;0.0
1742;0.0;0.0;0.0;-0.33183997869491577;-0.5250880122184753;1.360543966293335;0.0;0.0;0.0
1744;-0.452131986618042;-0.3555079996585846;1.2475719451904297;-0.3123199939727783;-0.5641279816627502;1.360543966293335;-11.598125457763672;-29.106874465942383;89.05750274658203
1746;0.0;0.0;0.0;-0.27425599098205566;-0.6148799657821655;1.336143970489502;0.0;0.0;0.0
1748;0.0;0.0;0.0;-0.2547360062599182;-0.610975980758667;1.352735996246338;0.0;0.0;0.0
1750;0.0;0.0;0.0;-0.20788799226284027;-0.6383039951324463;1.3566399812698364;0.0;0.0;0.0
1753;-0.38429999351501465;-0.4921479821205139;1.1977959871292114;-0.2898719906806946;-0.7046719789505005;1.2434239387512207;-16.7081241607666;-44.576873779296875;76.94750213623047
1755;0.0;0.0;0.0;-0.2898719906806946;-0.774944007396698;1.2395199537277222;0.0;0.0;0.0
1757;0.0;0.0;0.0;-0.21959999203681946;-0.8413119912147522;1.2229279279708862;0.0;0.0;0.0
1759;0.0;0.0;0.0;-0.16884799301624298;-0.8217920064926147;1.1819360256195068;0.0;0.0;0.0
1761;-0.34477198123931885;-0.6768559813499451;1.085312008857727;-0.15323199331760406;-0.8647359609603882;1.1575360298156738;-21.18812370300293;-59.13687515258789;65.60750579833984
1763;0.0;0.0;0.0;-0.1571359932422638;-0.8491199612617493;1.10971200466156;0.0;0.0;0.0
1765;0.0;0.0;0.0;-0.15323199331760406;-0.8569279909133911;1.0726239681243896;0.0;0.0;0.0
1767;0.0;0.0;0.0;-0.13078400492668152;-0.8178879618644714;1.044319987297058;0.0;0.0;0.0
1769;-0.25522398948669434;-0.7000359892845154;0.9445239901542664;-0.07612799853086472;-0.8022719621658325;0.9916160106658936;-25.4581241607666;-69.49687957763672;55.667503356933594
1772;0.0;0.0;0.0;-0.0058559998869895935;-0.7905600070953369;0.9184159636497498;0.0;0.0;0.0
1774;0.0;0.0;0.0;0.08003199845552444;-0.8178879618644714;0.8579039573669434;0.0;0.0;0.0
1776;0.0;0.0;0.0;0.15323199331760406;-0.8686400055885315;0.748591959476471;0.0;0.0;0.0
1778;-0.04172400012612343;-0.6993039846420288;0.7154079675674438;0.21959999203681946;-0.9076799750328064;0.6627039909362793;-29.378124237060547;-79.43687438964844;51.95750045776367
1780;0.0;0.0;0.0;0.29475200176239014;-0.9740479588508606;0.5982879996299744;0.0;0.0;0.0
1782;0.0;0.0;0.0;0.3328160047531128;-1.0091840028762817;0.569983959197998;0.0;0.0;0.0
1784;0.0;0.0;0.0;0.3640480041503906;-1.0521279573440552;0.536799967288971;0.0;0.0;0.0
1786;0.19885998964309692;-0.8630279898643494;0.4638440012931824;0.36795198917388916;-1.044319987297058;0.5816959738731384;-17.75812530517578;-67.95687866210938;56.997501373291016
1789;0.0;0.0;0.0;0.34062400460243225;-1.0716480016708374;0.5816959738731384;0.0;0.0;0.0
1791;0.0;0.0;0.0;0.29865598678588867;-1.0560319423675537;0.6100000143051147;0.0;0.0;0.0
1793;0.0;0.0;0.0;0.26742398738861084;-1.0326080322265625;0.6383039951324463;0.0;0.0;0.0
1795;0.17665599286556244;-0.9120720028877258;0.48921999335289;0.22448000311851501;-1.0560319423675537;0.6627039909362793;-5.718124866485596;-30.43687629699707;57.977500915527344
1797;0.0;0.0;0.0;0.18055999279022217;-1.0794559717178345;0.7202879786491394;0.0;0.0;0.0
1799;0.0;0.0;0.0;0.18836799263954163;-1.1184959411621094;0.7807999849319458;0.0;0.0;0.0
1801;0.0;0.0;0.0;0.13761599361896515;-1.1614400148391724;0.8051999807357788;0.0;0.0;0.0
1804;0.06124399974942207;-0.9833199977874756;0.6285439729690552;0.1454239934682846;-1.1848639249801636;0.8500959873199463;-7.258124828338623;10.653124809265137;49.157501220703125
1806;0.0;0.0;0.0;0.16494399309158325;-1.1887680292129517;0.8657119870185852;0.0;0.0;0.0
1808;0.0;0.0;0.0;0.12590399384498596;-1.1848639249801636;0.8862079977989197;0.0;0.0;0.0
1810;0.0;0.0;0.0;0.08393599838018417;-1.1926720142364502;0.9350079894065857;0.0;0.0;0.0
1812;0.0021959999576210976;-1.0479799509048462;0.7786039710044861;0.07612799853086472;-1.1692479848861694;0.9877119660377502;-12.088125228881836;38.65312576293945;37.817501068115234
1814;0.0;0.0;0.0;0.05270399898290634;-1.2200000286102295;1.0482239723205566;0.0;0.0;0.0
1816;0.0;0.0;0.0;0.009759999811649323;-1.2395199537277222;1.0687199831008911;0.0;0.0;0.0
1818;0.0;0.0;0.0;-0.04879999905824661;-1.2512320280075073;1.0765279531478882;0.0;0.0;0.0
1821;-0.11443600058555603;-1.0801880359649658;0.9306159615516663;-0.07612799853086472;-1.2512320280075073;1.1009279489517212;-12.158124923706055;35.15312576293945;28.087499618530273
1823;0.0;0.0;0.0;-0.07222399860620499;-1.2473279237747192;1.1214239597320557;0.0;0.0;0.0
1825;0.0;0.0;0.0;-0.08003199845552444;-1.2551360130310059;1.1292319297790527;0.0;0.0;0.0
1827;0.0;0.0;0.0;-0.0878399983048439;-1.2434239387512207;1.1136159896850586;0.0;0.0;0.0
1829;-0.20471599698066711;-1.1143479347229004;0.9830759763717651;-0.05660799890756607;-1.2551360130310059;1.1009279489517212;-13.278125762939453;11.353124618530273;18.84749984741211
1831;0.0;0.0;0.0;-0.04879999905824661;-1.2980799674987793;1.0687199831008911;0.0;0.0;0.0
1833;0.0;0.0;0.0;-0.04879999905824661;-1.3449280261993408;1.0404160022735596;0.0;0.0;0.0
1835;0.0;0.0;0.0;-0.02147199958562851;-1.360543966293335;1.0033279657363892;0.0;0.0;0.0
1838;-0.16250400245189667;-1.1956000328063965;0.912559986114502;0.009759999811649323;-1.3917759656906128;0.9838079810142517;-14.118124961853027;-11.746874809265137;10.09749984741211
1840;0.0;0.0;0.0;0.013663999736309052;-1.3800640106201172;0.9711199998855591;0.0;0.0;0.0
1842;0.0;0.0;0.0;0.06441599875688553;-1.3800640106201172;0.9467200040817261;0.0;0.0;0.0
1844;0.0;0.0;0.0;0.05660799890756607;-1.4386240243911743;0.8618080019950867;0.0;0.0;0.0
1846;-0.0785679966211319;-1.2651399374008179;0.7976359724998474;0.07612799853086472;-1.4269119501113892;0.8657119870185852;-12.438125610351562;-19.936874389648438;0.6474999785423279
1848;0.0;0.0;0.0;0.1180959939956665;-1.4269119501113892;0.8618080019950867;0.0;0.0;0.0
1850;0.0;0.0;0.0;0.13761599361896515;-1.4269119501113892;0.8256959915161133;0.0;0.0;0.0
1852;0.0;0.0;0.0;0.13761599361896515;-1.3956799507141113;0.7964159846305847;0.0;0.0;0.0
1855;0.010735999792814255;-1.2763639688491821;0.7071120142936707;0.16103999316692352;-1.3566399812698364;0.7524960041046143;-10.268125534057617;-18.11687469482422;-8.942500114440918
1857;0.0;0.0;0.0;0.19617599248886108;-1.4073920249938965;0.7319999933242798;0.0;0.0;0.0
1859;0.0;0.0;0.0;0.1844639927148819;-1.3878719806671143;0.6753919720649719;0.0;0.0;0.0
1861;0.0;0.0;0.0;0.2117919921875;-1.3995839357376099;0.7036960124969482;0.0;0.0;0.0
1863;0.07149200141429901;-1.258795976638794;0.589747965335846;0.2508319914340973;-1.4269119501113892;0.6871039867401123;-7.04812479019165;-8.94687557220459;-15.732500076293945
1865;0.0;0.0;0.0;0.26254400610923767;-1.4776639938354492;0.6753919720649719;0.0;0.0;0.0
1867;0.0;0.0;0.0;0.24692799150943756;-1.4932799339294434;0.6588000059127808;0.0;0.0;0.0
1869;0.0;0.0;0.0;0.2391199916601181;-1.45033597946167;0.6958879828453064;0.0;0.0;0.0
1872;0.11028799414634705;-1.338339924812317;0.5638839602470398;0.1844639927148819;-1.458143949508667;0.7359039783477783;1.8418749570846558;14.853124618530273;-23.99250030517578
1874;0.0;0.0;0.0;0.14932799339294434;-1.4073920249938965;0.7642079591751099;0.0;0.0;0.0
1876;0.0;0.0;0.0;0.09174399822950363;-1.3878719806671143;0.7934879660606384;0.0;0.0;0.0
1878;0.0;0.0;0.0;0.04879999905824661;-1.3644479513168335;0.8335039615631104;0.0;0.0;0.0
1880;-0.026108000427484512;-1.256600022315979;0.6695359945297241;0.009759999811649323;-1.3449280261993408;0.8500959873199463;11.01187515258789;38.513126373291016;-35.682498931884766
1882;0.0;0.0;0.0;-0.004879999905824661;-1.3332159519195557;0.8901119828224182;0.0;0.0;0.0
1884;0.0;0.0;0.0;-0.032207999378442764;-1.313696026802063;0.9262239933013916;0.0;0.0;0.0
1886;0.0;0.0;0.0;-0.05172799900174141;-1.2824640274047852;0.9506239891052246;0.0;0.0;0.0
1889;-0.16274799406528473;-1.1697360277175903;0.7954399585723877;-0.07905599474906921;-1.2473279237747192;1.0082080364227295;15.491874694824219;45.513126373291016;-49.89249801635742
1891;0.0;0.0;0.0;-0.12199999392032623;-1.2082879543304443;1.0238239765167236;0.0;0.0;0.0
1893;0.0;0.0;0.0;-0.1298079937696457;-1.1770559549331665;1.0160160064697266;0.0;0.0;0.0
1895;0.0;0.0;0.0;-0.1600639969110489;-1.1575360298156738;1.0326080322265625;0.0;0.0;0.0
1897;-0.2564440071582794;-1.0433440208435059;0.9006040096282959;-0.15225599706172943;-1.1028800010681152;1.019919991493225;15.211874961853027;40.263126373291016;-64.38249969482422
1899;0.0;0.0;0.0;-0.14444799721240997;-1.0560319423675537;1.044319987297058;0.0;0.0;0.0
1901;0.0;0.0;0.0;-0.19519999623298645;-1.044319987297058;1.036512017250061;0.0;0.0;0.0
1903;0.0;0.0;0.0;-0.1571359932422638;-0.9974719882011414;1.0560319423675537;0.0;0.0;0.0
1906;-0.28303998708724976;-0.9030439853668213;0.9054839611053467;-0.1483519971370697;-0.9428159594535828;1.036512017250061;15.071874618530273;29.973125457763672;-74.60250091552734
1908;0.0;0.0;0.0;-0.14151999354362488;-0.87254399061203;1.0404160022735596;0.0;0.0;0.0
1910;0.0;0.0;0.0;-0.1727519929409027;-0.8686400055885315;1.012112021446228;0.0;0.0;0.0
1912;0.0;0.0;0.0;-0.16396799683570862;-0.8608319759368896;0.9877119660377502;0.0;0.0;0.0
1914;-0.2823079824447632;-0.7461519837379456;0.8893799781799316;-0.18348799645900726;-0.8608319759368896;0.9994239807128906;17.10187530517578;21.783124923706055;-79.15249633789062
1916;0.0;0.0;0.0;-0.21569599211215973;-0.8413119912147522;1.0238239765167236;0.0;0.0;0.0
1918;0.0;0.0;0.0;-0.21959999203681946;-0.8413119912147522;1.060912013053894;0.0;0.0;0.0
1920;0.0;0.0;0.0;-0.2235039919614792;-0.8217920064926147;1.0648159980773926;0.0;0.0;0.0
1923;-0.3428199887275696;-0.7117480039596558;0.908411979675293;-0.2547360062599182;-0.87254399061203;1.0482239723205566;19.83187484741211;18.213125228881836;-84.3324966430664
1925;0.0;0.0;0.0;-0.2117919921875;-0.7437120079994202;1.134112000465393;0.0;0.0;0.0
1927;0.0;0.0;0.0;-0.24692799150943756;-0.6890559792518616;1.1458239555358887;0.0;0.0;0.0
1929;0.0;0.0;0.0;-0.2547360062599182;-0.6656320095062256;1.1175199747085571;0.0;0.0;0.0
1931;-0.3608759939670563;-0.5787680149078369;0.9906399846076965;-0.29767999053001404;-0.6226879954338074;1.1175199747085571;14.931875228881836;20.593124389648438;-93.78250122070312
1933;0.0;0.0;0.0;-0.23814399540424347;-0.5719360113143921;1.1048319339752197;0.0;0.0;0.0
1935;0.0;0.0;0.0;-0.17958399653434753;-0.5289919972419739;1.0970239639282227;0.0;0.0;0.0
1937;0.0;0.0;0.0;-0.11028799414634705;-0.5172799825668335;1.1009279489517212;0.0;0.0;0.0
1940;-0.30695199966430664;-0.4206559956073761;0.9735599756240845;-0.09857599437236786;-0.521183967590332;1.0570080280303955;7.931875228881836;9.323124885559082;-100.50249481201172
1942;0.0;0.0;0.0;-0.03611199930310249;-0.423583984375;1.1175199747085571;0.0;0.0;0.0
1944;0.0;0.0;0.0;-0.05953599885106087;-0.3962559998035431;1.0970239639282227;0.0;0.0;0.0
1946;0.0;0.0;0.0;-0.04782399907708168;-0.3572160005569458;1.012112021446228;0.0;0.0;0.0
1948;-0.1756799966096878;-0.26571598649024963;0.9376919865608215;-0.07124799489974976;-0.32598400115966797;1.0043039321899414;3.801874876022339;0.5731250047683716;-102.8125
1950;0.0;0.0;0.0;-0.04001599922776222;-0.3142719864845276;0.9799039959907532;0.0;0.0;0.0
1952;0.0;0.0;0.0;0.022447999566793442;-0.25571200251579285;0.9750239849090576;0.0;0.0;0.0
1954;0.0;0.0;0.0;0.057583998888731;-0.24399998784065247;1.0033279657363892;0.0;0.0;0.0
1957;-0.10809199512004852;-0.13590799272060394;0.8583920001983643;0.09174399822950363;-0.236191987991333;0.9838079810142517;4.991875171661377;-4.116875171661377;-101.48249816894531
1959;0.0;0.0;0.0;0.06929600238800049;-0.2518079876899719;0.9711199998855591;0.0;0.0;0.0
1961;0.0;0.0;0.0;0.06148799881339073;-0.12297599762678146;1.0482239723205566;0.0;0.0;0.0
1963;0.0;0.0;0.0;0.022447999566793442;-0.08393599838018417;0.9955199956893921;0.0;0.0;0.0
1965;-0.07978799939155579;-0.02659599855542183;0.8625400066375732;0.018543999642133713;-0.07222399860620499;0.9916160106658936;6.601875305175781;8.203125;-101.69249725341797
1967;0.0;0.0;0.0;-0.0058559998869895935;-0.06831999868154526;1.0160160064697266;0.0;0.0;0.0
1969;0.0;0.0;0.0;0.02147199958562851;-0.044895999133586884;1.0648159980773926;0.0;0.0;0.0
1971;0.0;0.0;0.0;-0.029279999434947968;0.1424959897994995;1.1663199663162231;0.0;0.0;0.0
1974;-0.1285879909992218;0.16079600155353546;0.9320799708366394;-0.029279999434947968;0.1424959897994995;1.1175199747085571;6.811875343322754;19.193124771118164;-100.29249572753906
1976;0.0;0.0;0.0;-0.07222399860620499;0.1815359890460968;1.1048319339752197;0.0;0.0;0.0
1978;0.0;0.0;0.0;-0.044895999133586884;0.17372798919677734;1.1175199747085571;0.0;0.0;0.0
1980;0.0;0.0;0.0;-0.01756799966096878;0.1815359890460968;1.1214239597320557;0.0;0.0;0.0
1982;-0.15957599878311157;0.32427600026130676;0.9962520003318787;-0.0331839993596077;0.24009600281715393;1.134112000465393;1.771875023841858;22.203125;-97.07250213623047
1984;0.0;0.0;0.0;-0.02147199958562851;0.2752319872379303;1.1946239471435547;0.0;0.0;0.0
1986;0.0;0.0;0.0;-0.06441599875688553;0.18544000387191772;1.1380159854888916;0.0;0.0;0.0
1989;0.0;0.0;0.0;-0.040991999208927155;0.2596159875392914;1.287343978881836;0.0;0.0;0.0
1991;-0.16103999316692352;0.3730759918689728;1.0718920230865479;-0.06441599875688553;0.31036800146102905;1.2756320238113403;-0.9581249952316284;19.683124542236328;-94.62249755859375
1993;0.0;0.0;0.0;-0.1424959897994995;0.3142719864845276;1.2678239345550537;0.0;0.0;0.0
1995;0.0;0.0;0.0;-0.16884799301624298;0.31036800146102905;1.3205280303955078;0.0;0.0;0.0
1997;0.0;0.0;0.0;-0.19227199256420135;0.33769598603248596;1.3166239261627197;0.0;0.0;0.0
1999;-0.2723039984703064;0.4501799941062927;1.1682720184326172;-0.1727519929409027;0.3416000008583069;1.3488320112228394;-7.818124771118164;20.103124618530273;-94.34249877929688
2001;0.0;0.0;0.0;-0.16494399309158325;0.40406399965286255;1.3644479513168335;0.0;0.0;0.0
2003;0.0;0.0;0.0;-0.1268799901008606;0.40406399965286255;1.384943962097168;0.0;0.0;0.0
2006;0.0;0.0;0.0;-0.13468798995018005;0.45481598377227783;1.352735996246338;0.0;0.0;0.0
2008;-0.2686440050601959;0.5482679605484009;1.2309799194335938;-0.13078400492668152;0.4782399833202362;1.352735996246338;-15.378125190734863;13.453125;-94.90249633789062
2010;0.0;0.0;0.0;-0.10345599800348282;0.5055679678916931;1.3488320112228394;0.0;0.0;0.0
2012;0.0;0.0;0.0;-0.0605119988322258;0.5446079969406128;1.3449280261993408;0.0;0.0;0.0
2014;0.0;0.0;0.0;-0.044895999133586884;0.5094720125198364;1.3283360004425049;0.0;0.0;0.0
2016;-0.1937360018491745;0.6544079780578613;1.2026759386062622;-0.01756799966096878;0.5055679678916931;1.3078399896621704;-16.428123474121094;-11.95687484741211;-88.67250061035156
2018;0.0;0.0;0.0;-0.013663999736309052;0.521183967590332;1.2717279195785522;0.0;0.0;0.0
2020;0.0;0.0;0.0;0.013663999736309052;0.521183967590332;1.2434239387512207;0.0;0.0;0.0
2023;0.0;0.0;0.0;0.0878399983048439;0.5250880122184753;1.2395199537277222;0.0;0.0;0.0
2025;-0.08051999658346176;0.6588000059127808;1.108247995376587;0.11028799414634705;0.536799967288971;1.1985279321670532;-14.398125648498535;-35.896873474121094;-82.23249816894531
2027;0.0;0.0;0.0;0.14151999354362488;0.5563200116157532;1.1458239555358887;0.0;0.0;0.0
2029;0.0;0.0;0.0;0.18055999279022217;0.5641279816627502;1.0892159938812256;0.0;0.0;0.0
2031;0.0;0.0;0.0;0.2508319914340973;0.587552011013031;1.0726239681243896;0.0;0.0;0.0
2033;0.06783200055360794;0.700767993927002;0.9799039959907532;0.28596800565719604;0.6070719957351685;1.044319987297058;-14.398125648498535;-45.13687515258789;-78.73249816894531
2035;0.0;0.0;0.0;0.32500800490379333;0.6265919804573059;1.0316319465637207;0.0;0.0;0.0
2037;0.0;0.0;0.0;0.35624000430107117;0.6578239798545837;1.0326080322265625;0.0;0.0;0.0
2040;0.0;0.0;0.0;0.36795198917388916;0.6578239798545837;1.0082080364227295;0.0;0.0;0.0
2042;0.2239919900894165;0.7842159867286682;0.9003599882125854;0.3757599890232086;0.6773439645767212;0.9877119660377502;-12.928125381469727;-34.77687454223633;-75.44249725341797
2044;0.0;0.0;0.0;0.4060159921646118;0.685151994228363;1.012112021446228;0.0;0.0;0.0
2046;0.0;0.0;0.0;0.4108960032463074;0.685151994228363;1.0082080364227295;0.0;0.0;0.0
2048;0.0;0.0;0.0;0.399183988571167;0.7398079633712769;1.0277279615402222;0.0;0.0;0.0
2050;0.2820639908313751;0.8432639837265015;0.8901119828224182;0.4060159921646118;0.7788479924201965;1.0687199831008911;-9.91812515258789;-11.186875343322754;-70.05249786376953
2052;0.0;0.0;0.0;0.36795198917388916;0.8022719621658325;1.0931199789047241;0.0;0.0;0.0
2054;0.0;0.0;0.0;0.3054879903793335;0.8022719621658325;1.1136159896850586;0.0;0.0;0.0
2057;0.0;0.0;0.0;0.31329599022865295;0.8100799918174744;1.1458239555358887;0.0;0.0;0.0
2059;0.2088640034198761;0.9306159615516663;0.9894199967384338;0.2820639908313751;0.8335039615631104;1.1741279363632202;-5.928124904632568;13.313124656677246;-63.19249725341797
2061;0.0;0.0;0.0;0.2547360062599182;0.8530240058898926;1.2024319171905518;0.0;0.0;0.0
2063;0.0;0.0;0.0;0.2664479911327362;0.8764479756355286;1.2395199537277222;0.0;0.0;0.0
2065;0.0;0.0;0.0;0.27425599098205566;0.888159990310669;1.2678239345550537;0.0;0.0;0.0
2067;0.14054399728775024;1.0074759721755981;1.1004400253295898;0.23131199181079865;0.895967960357666;1.2678239345550537;-3.268125057220459;21.36312484741211;-54.162498474121094
2069;0.0;0.0;0.0;0.25571200251579285;0.9350079894065857;1.2590399980545044;0.0;0.0;0.0
2071;0.0;0.0;0.0;0.26742398738861084;0.9662399888038635;1.2795360088348389;0.0;0.0;0.0
2074;0.0;0.0;0.0;0.25571200251579285;0.9584319591522217;1.287343978881836;0.0;0.0;0.0
2076;0.1361519992351532;1.0848239660263062;1.150704026222229;0.26742398738861084;0.985759973526001;1.262943983078003;-0.11812499910593033;13.173125267028809;-41.35249710083008
2078;0.0;0.0;0.0;0.27132800221443176;0.9662399888038635;1.2756320238113403;0.0;0.0;0.0
2080;0.0;0.0;0.0;0.28303998708724976;0.9662399888038635;1.2590399980545044;0.0;0.0;0.0
2082;0.0;0.0;0.0;0.2752319872379303;0.9584319591522217;1.2395199537277222;0.0;0.0;0.0
2084;0.15396399796009064;1.0933640003204346;1.125815987586975;0.2791360020637512;0.9311040043830872;1.2512320280075073;4.081875324249268;4.143124580383301;-26.02250099182129
2086;0.0;0.0;0.0;0.2937760055065155;0.9428159594535828;1.2434239387512207;0.0;0.0;0.0
2088;0.0;0.0;0.0;0.2664479911327362;0.9389119744300842;1.2151199579238892;0.0;0.0;0.0
2091;0.0;0.0;0.0;0.3054879903793335;0.8842560052871704;1.2346400022506714;0.0;0.0;0.0
2093;0.1681160032749176;1.0416359901428223;1.0923880338668823;0.2781600058078766;0.8920639753341675;1.2473279237747192;9.121874809265137;7.363124847412109;-11.182499885559082
2095;0.0;0.0;0.0;0.2664479911327362;0.8569279909133911;1.2229279279708862;0.0;0.0;0.0
2097;0.0;0.0;0.0;0.25863999128341675;0.8413119912147522;1.2268320322036743;0.0;0.0;0.0
2099;0.0;0.0;0.0;0.21569599211215973;0.8374080061912537;1.2639199495315552;0.0;0.0;0.0
2101;0.12419600039720535;0.9762439727783203;1.118008017539978;0.16103999316692352;0.8217920064926147;1.2795360088348389;13.671875;21.853124618530273;1.4875000715255737
2103;0.0;0.0;0.0;0.1298079937696457;0.8022719621658325;1.3078399896621704;0.0;0.0;0.0
2105;0.0;0.0;0.0;0.12199999392032623;0.7593280076980591;1.3283360004425049;0.0;0.0;0.0
2108;0.0;0.0;0.0;0.05270399898290634;0.7788479924201965;1.377135992050171;0.0;0.0;0.0
2110;-0.010247999802231789;0.9262239933013916;1.2002359628677368;0.040991999208927155;0.7593280076980591;1.3976320028305054;14.931875228881836;34.73312759399414;10.09749984741211
2112;0.0;0.0;0.0;0.02537599951028824;0.7671359777450562;1.4132479429244995;0.0;0.0;0.0
2114;0.0;0.0;0.0;0.02537599951028824;0.7593280076980591;1.4464319944381714;0.0;0.0;0.0
2116;0.0;0.0;0.0;0.0058559998869895935;0.7671359777450562;1.4669280052185059;0.0;0.0;0.0
2118;-0.11272799968719482;0.9047519564628601;1.2961280345916748;-0.0058559998869895935;0.7827519774436951;1.4425280094146729;11.781874656677246;35.923126220703125;14.717499732971191
2121;0.0;0.0;0.0;-0.0331839993596077;0.7593280076980591;1.4786399602890015;0.0;0.0;0.0
2122;0.0;0.0;0.0;0.0058559998869895935;0.774944007396698;1.4825439453125;0.0;0.0;0.0
2125;0.0;0.0;0.0;-0.029279999434947968;0.7554239630699158;1.4542399644851685;0.0;0.0;0.0
2127;-0.13298000395298004;0.895967960357666;1.3207719326019287;-0.0058559998869895935;0.7437120079994202;1.417151927947998;6.95187520980835;22.203125;19.6875
2129;0.0;0.0;0.0;0.0019519999623298645;0.7476159930229187;1.4181280136108398;0.0;0.0;0.0
2131;0.0;0.0;0.0;-0.02537599951028824;0.7632319927215576;1.4220319986343384;0.0;0.0;0.0
2133;0.0;0.0;0.0;0.0058559998869895935;0.7515199780464172;1.3888479471206665;0.0;0.0;0.0
2135;-0.134443998336792;0.8781560063362122;1.2719719409942627;0.0019519999623298645;0.7163839936256409;1.3644479513168335;3.241874933242798;6.593124866485596;26.127500534057617
2137;0.0;0.0;0.0;0.009759999811649323;0.685151994228363;1.3244320154190063;0.0;0.0;0.0
2140;0.0;0.0;0.0;0.02537599951028824;0.6812480092048645;1.2922239303588867;0.0;0.0;0.0
2142;0.0;0.0;0.0;0.029279999434947968;0.6578239798545837;1.3000320196151733;0.0;0.0;0.0
2144;-0.09711199998855591;0.8125199675559998;1.1863279342651367;0.040991999208927155;0.6656320095062256;1.3039360046386719;-0.048124998807907104;1.6231250762939453;32.917503356933594
2146;0.0;0.0;0.0;0.029279999434947968;0.6344000101089478;1.3000320196151733;0.0;0.0;0.0
2148;0.0;0.0;0.0;0.02537599951028824;0.6148799657821655;1.287343978881836;0.0;0.0;0.0
2150;0.0;0.0;0.0;0.02147199958562851;0.6187840104103088;1.2512320280075073;0.0;0.0;0.0
2152;-0.0785679966211319;0.7524960041046143;1.1428959369659424;0.0331839993596077;0.6187840104103088;1.2678239345550537;-0.46812501549720764;9.463125228881836;39.497501373291016
2155;0.0;0.0;0.0;0.013663999736309052;0.6070719957351685;1.2434239387512207;0.0;0.0;0.0
2157;0.0;0.0;0.0;-0.0019519999623298645;0.5992639660835266;1.2834399938583374;0.0;0.0;0.0
2159;0.0;0.0;0.0;-0.040991999208927155;0.5914559960365295;1.2590399980545044;0.0;0.0;0.0
2161;-0.12077999860048294;0.7319999933242798;1.1336239576339722;0.0019519999623298645;0.5680319666862488;1.2678239345550537;3.171875;14.923125267028809;48.45750045776367
2163;0.0;0.0;0.0;-0.013663999736309052;0.5563200116157532;1.287343978881836;0.0;0.0;0.0
2165;0.0;0.0;0.0;-0.013663999736309052;0.5914559960365295;1.2795360088348389;0.0;0.0;0.0
2167;0.0;0.0;0.0;-0.02147199958562851;0.5719360113143921;1.2590399980545044;0.0;0.0;0.0
2169;-0.13395600020885468;0.6980839967727661;1.140455961227417;-0.040991999208927155;0.5524159669876099;1.2834399938583374;9.051875114440918;11.353124618530273;58.817501068115234
2172;0.0;0.0;0.0;-0.037087999284267426;0.5680319666862488;1.2434239387512207;0.0;0.0;0.0
2174;0.0;0.0;0.0;-0.08393599838018417;0.5289919972419739;1.2512320280075073;0.0;0.0;0.0
2176;0.0;0.0;0.0;-0.0878399983048439;0.5094720125198364;1.2590399980545044;0.0;0.0;0.0
2178;-0.1844639927148819;0.6631919741630554;1.1314280033111572;-0.09174399822950363;0.4938559830188751;1.2834399938583374;15.421875;3.7931249141693115;68.61750030517578
2180;0.0;0.0;0.0;-0.10345599800348282;0.48604798316955566;1.3000320196151733;0.0;0.0;0.0
2182;0.0;0.0;0.0;-0.10345599800348282;0.513375997543335;1.311743974685669;0.0;0.0;0.0
2184;0.0;0.0;0.0;-0.13468798995018005;0.521183967590332;1.3205280303955078;0.0;0.0;0.0
2186;-0.234484001994133;0.6302520036697388;1.1738840341567993;-0.13468798995018005;0.5172799825668335;1.3244320154190063;16.121875762939453;5.753124713897705;72.11750030517578
2188;0.0;0.0;0.0;-0.1727519929409027;0.5446079969406128;1.3410239219665527;0.0;0.0;0.0
2191;0.0;0.0;0.0;-0.16884799301624298;0.5563200116157532;1.3488320112228394;0.0;0.0;0.0
2193;0.0;0.0;0.0;-0.16103999316692352;0.6070719957351685;1.352735996246338;0.0;0.0;0.0
2195;-0.2852360010147095;0.6939359903335571;1.2104840278625488;-0.14640000462532043;0.5797439813613892;1.3410239219665527;10.591875076293945;7.08312463760376;72.88750457763672
2197;0.0;0.0;0.0;-0.1424959897994995;0.5485119819641113;1.3449280261993408;0.0;0.0;0.0
2199;0.0;0.0;0.0;-0.13468798995018005;0.5485119819641113;1.2961280345916748;0.0;0.0;0.0
2201;0.0;0.0;0.0;-0.10735999792814255;0.47433599829673767;1.2756320238113403;0.0;0.0;0.0
2203;-0.24277999997138977;0.6483079791069031;1.1697360277175903;-0.08393599838018417;0.4470079839229584;1.2678239345550537;5.20187520980835;-3.976875066757202;77.7874984741211
2206;0.0;0.0;0.0;-0.07222399860620499;0.3142719864845276;1.2190239429473877;0.0;0.0;0.0
2208;0.0;0.0;0.0;-0.009759999811649323;0.48604798316955566;1.2756320238113403;0.0;0.0;0.0
2210;0.0;0.0;0.0;-0.14640000462532043;0.43139198422431946;1.2395199537277222;0.0;0.0;0.0
2212;-0.18519599735736847;0.553879976272583;1.1236200332641602;-0.0878399983048439;0.521183967590332;1.2590399980545044;7.371875286102295;-9.366875648498535;85.13750457763672
2214;0.0;0.0;0.0;-0.12297599762678146;0.4352959990501404;1.2473279237747192;0.0;0.0;0.0
2216;0.0;0.0;0.0;-0.16884799301624298;0.31036800146102905;1.1946239471435547;0.0;0.0;0.0
2218;0.0;0.0;0.0;-0.18836799263954163;0.22448000311851501;1.1624159812927246;0.0;0.0;0.0
2220;-0.27327999472618103;0.4618919789791107;1.0818959474563599;-0.1844639927148819;0.22448000311851501;1.1868159770965576;3.731874942779541;-9.296875;90.17750549316406
2223;0.0;0.0;0.0;-0.19617599248886108;0.22448000311851501;1.2346400022506714;0.0;0.0;0.0
2225;0.0;0.0;0.0;-0.18836799263954163;0.19715198874473572;1.2473279237747192;0.0;0.0;0.0
2227;0.0;0.0;0.0;-0.1844639927148819;0.17372798919677734;1.2590399980545044;0.0;0.0;0.0
2229;-0.3084160089492798;0.3286679983139038;1.1106879711151123;-0.2898719906806946;0.15030398964881897;1.2678239345550537;1.0018749237060547;-1.0368750095367432;89.05750274658203
2231;0.0;0.0;0.0;-0.2820639908313751;0.16201600432395935;1.2756320238113403;0.0;0.0;0.0
2233;0.0;0.0;0.0;-0.30158400535583496;0.16591998934745789;1.2512320280075073;0.0;0.0;0.0
2235;0.0;0.0;0.0;-0.32500800490379333;0.1698240041732788;1.2512320280075073;0.0;0.0;0.0
2237;-0.42212000489234924;0.2896279990673065;1.1253279447555542;-0.2547360062599182;0.15030398964881897;1.2024319171905518;-6.838124752044678;-6.286875247955322;86.04750061035156
2240;0.0;0.0;0.0;-0.16884799301624298;0.17372798919677734;1.2190239429473877;0.0;0.0;0.0
2242;0.0;0.0;0.0;-0.115167997777462;0.15811198949813843;1.1946239471435547;0.0;0.0;0.0
2244;0.0;0.0;0.0;-0.10735999792814255;0.08003199845552444;1.1175199747085571;0.0;0.0;0.0
2246;-0.2640079855918884;0.2525399923324585;1.0411479473114014;-0.11126399785280228;0.040991999208927155;1.0804319381713867;-15.028125762939453;-22.316875457763672;89.54750061035156
2248;0.0;0.0;0.0;-0.0605119988322258;-0.040991999208927155;1.060912013053894;0.0;0.0;0.0
2250;0.0;0.0;0.0;-0.08393599838018417;-0.04879999905824661;1.0648159980773926;0.0;0.0;0.0
2252;0.0;0.0;0.0;-0.05660799890756607;-0.04879999905824661;1.0687199831008911;0.0;0.0;0.0
2254;-0.20959599316120148;0.09637999534606934;0.9435479640960693;-0.09564799815416336;-0.0878399983048439;1.060912013053894;-16.078125;-17.20687484741211;93.8175048828125
2257;0.0;0.0;0.0;-0.12590399384498596;-0.037087999284267426;1.1380159854888916;0.0;0.0;0.0
2259;0.0;0.0;0.0;-0.1180959939956665;-0.12297599762678146;1.085312008857727;0.0;0.0;0.0
2261;0.0;0.0;0.0;-0.17177599668502808;-0.17372798919677734;1.0931199789047241;0.0;0.0;0.0
2263;-0.2798680067062378;0.004879999905824661;0.9789279699325562;-0.1756799966096878;-0.236191987991333;1.0970239639282227;-19.228124618530273;-2.226875066757202;94.44750213623047
2265;0.0;0.0;0.0;-0.16396799683570862;-0.25571200251579285;1.1175199747085571;0.0;0.0;0.0
2267;0.0;0.0;0.0;-0.187391996383667;-0.29475200176239014;1.1419199705123901;0.0;0.0;0.0
2269;0.0;0.0;0.0;-0.17958399653434753;-0.33769598603248596;1.1214239597320557;0.0;0.0;0.0
2271;-0.29816800355911255;-0.16445599496364594;0.9930799603462219;-0.187391996383667;-0.3455039858818054;1.1253279447555542;-22.23812484741211;3.8631250858306885;93.25749969482422
2274;0.0;0.0;0.0;-0.23131199181079865;-0.4079679846763611;1.1497279405593872;0.0;0.0;0.0
2276;0.0;0.0;0.0;-0.23131199181079865;-0.4274879992008209;1.1536319255828857;0.0;0.0;0.0
2278;0.0;0.0;0.0;-0.24302399158477783;-0.4391999840736389;1.1907199621200562;0.0;0.0;0.0
2280;-0.37209999561309814;-0.2971920073032379;1.0299240350723267;-0.3172000050544739;-0.5172799825668335;1.1741279363632202;-21.678123474121094;5.893124580383301;88.42750549316406
2282;0.0;0.0;0.0;-0.3669759929180145;-0.5719360113143921;1.1907199621200562;0.0;0.0;0.0
2284;0.0;0.0;0.0;-0.33671998977661133;-0.587552011013031;1.2229279279708862;0.0;0.0;0.0
2286;0.0;0.0;0.0;-0.33183997869491577;-0.6617279648780823;1.2346400022506714;0.0;0.0;0.0
2288;-0.4543280005455017;-0.47384798526763916;1.0850679874420166;-0.35526400804519653;-0.6773439645767212;1.2151199579238892;-21.18812370300293;1.6231250762939453;78.48750305175781
2291;0.0;0.0;0.0;-0.34355199337005615;-0.7163839936256409;1.2063360214233398;0.0;0.0;0.0
2293;0.0;0.0;0.0;-0.374783992767334;-0.7788479924201965;1.2112159729003906;0.0;0.0;0.0
2295;0.0;0.0;0.0;-0.374783992767334;-0.7398079633712769;1.2473279237747192;0.0;0.0;0.0
2297;-0.4894639849662781;-0.6019479632377625;1.0855560302734375;-0.4177280068397522;-0.7632319927215576;1.1536319255828857;-20.768123626708984;-12.44687557220459;68.75749969482422
2299;0.0;0.0;0.0;-0.4411519765853882;-0.774944007396698;1.1419199705123901;0.0;0.0;0.0
2301;0.0;0.0;0.0;-0.4177280068397522;-0.7398079633712769;1.1907199621200562;0.0;0.0;0.0
2303;0.0;0.0;0.0;-0.3669759929180145;-0.7241919636726379;1.1497279405593872;0.0;0.0;0.0
2305;-0.5116679668426514;-0.6129279732704163;1.0321199893951416;-0.2820639908313751;-0.708575963973999;1.1136159896850586;-18.66812515258789;-37.1568717956543;62.317501068115234
2308;0.0;0.0;0.0;-0.2781600058078766;-0.6968640089035034;1.036512017250061;0.0;0.0;0.0
2310;0.0;0.0;0.0;-0.22740799188613892;-0.708575963973999;0.9955199956893921;0.0;0.0;0.0
2312;0.0;0.0;0.0;-0.16884799301624298;-0.6812480092048645;0.9271999597549438;0.0;0.0;0.0
2314;-0.3315959870815277;-0.5655919909477234;0.8525359630584717;-0.11126399785280228;-0.7202879786491394;0.7925119996070862;-19.64812469482422;-63.61687469482422;63.64750289916992
2316;0.0;0.0;0.0;-0.0331839993596077;-0.7905600070953369;0.7603039741516113;0.0;0.0;0.0
2318;0.0;0.0;0.0;0.0331839993596077;-0.8374080061912537;0.7446879744529724;0.0;0.0;0.0
2320;0.0;0.0;0.0;0.11028799414634705;-0.8569279909133911;0.7280960083007812;0.0;0.0;0.0
2322;-0.08515600115060806;-0.6980839967727661;0.6265919804573059;0.16494399309158325;-0.9076799750328064;0.7280960083007812;-13.488125801086426;-69.7768783569336;70.71749877929688
2325;0.0;0.0;0.0;0.11907199770212173;-0.9701439738273621;0.6997919678688049;0.0;0.0;0.0
2327;0.0;0.0;0.0;0.10247999429702759;-0.9779520034790039;0.7241919636726379;0.0;0.0;0.0
2329;0.0;0.0;0.0;0.0878399983048439;-1.0247999429702759;0.7202879786491394;0.0;0.0;0.0
2331;-0.01512799970805645;-0.8396039605140686;0.583404004573822;0.07222399860620499;-1.0052800178527832;0.7319999933242798;-6.838124752044678;-47.09687423706055;73.5875015258789
2333;0.0;0.0;0.0;0.07612799853086472;-1.0208959579467773;0.7241919636726379;0.0;0.0;0.0
2335;0.0;0.0;0.0;0.08393599838018417;-0.9896639585494995;0.8012959957122803;0.0;0.0;0.0
2337;0.0;0.0;0.0;0.1180959939956665;-1.0326080322265625;0.7768959999084473;0.0;0.0;0.0
2339;-0.037087999284267426;-0.8901119828224182;0.6497719883918762;0.08393599838018417;-1.1028800010681152;0.7925119996070862;-10.198124885559082;-23.576875686645508;68.40750122070312
2342;0.0;0.0;0.0;0.09467199444770813;-1.1497279405593872;0.8500959873199463;0.0;0.0;0.0
2344;0.0;0.0;0.0;0.0878399983048439;-1.1848639249801636;0.8579039573669434;0.0;0.0;0.0
2346;0.0;0.0;0.0;0.0878399983048439;-1.2434239387512207;0.8696159720420837;0.0;0.0;0.0
2348;-0.02537599951028824;-1.0474920272827148;0.7193120121955872;0.07612799853086472;-1.2590399980545044;0.8579039573669434;-19.018123626708984;-6.286875247955322;61.477500915527344
2350;0.0;0.0;0.0;0.04879999905824661;-1.3058879375457764;0.8744959831237793;0.0;0.0;0.0
2352;0.0;0.0;0.0;0.05270399898290634;-1.3449280261993408;0.9184159636497498;0.0;0.0;0.0
2354;0.0;0.0;0.0;0.040991999208927155;-1.3917759656906128;0.9262239933013916;0.0;0.0;0.0
2356;-0.0710039958357811;-1.2082879543304443;0.7664039731025696;0.0605119988322258;-1.4698560237884521;0.9555040001869202;-24.89812469482422;-3.6268749237060547;53.497501373291016
2359;0.0;0.0;0.0;0.02537599951028824;-1.4932799339294434;0.9350079894065857;0.0;0.0;0.0
2361;0.0;0.0;0.0;-0.009759999811649323;-1.5362240076065063;0.9467200040817261;0.0;0.0;0.0
2363;0.0;0.0;0.0;0.0019519999623298645;-1.555743932723999;0.9350079894065857;0.0;0.0;0.0
2365;-0.1193159967660904;-1.3966559171676636;0.802515983581543;0.0019519999623298645;-1.6103999614715576;0.9145119786262512;-31.338125228881836;-10.556875228881836;40.89750289916992
2367;0.0;0.0;0.0;0.013663999736309052;-1.637727975845337;0.8735199570655823;0.0;0.0;0.0
2369;0.0;0.0;0.0;0.029279999434947968;-1.6689599752426147;0.8696159720420837;0.0;0.0;0.0
2371;0.0;0.0;0.0;0.08686399459838867;-1.7040959596633911;0.8335039615631104;0.0;0.0;0.0
2373;-0.07881199568510056;-1.535491943359375;0.7385879755020142;0.07222399860620499;-1.743135929107666;0.7886079549789429;-38.828125;-20.426876068115234;23.887500762939453
2376;0.0;0.0;0.0;0.16103999316692352;-1.793887972831726;0.7563999891281128;0.0;0.0;0.0
2378;0.0;0.0;0.0;0.13761599361896515;-1.840735912322998;0.7075999975204468;0.0;0.0;0.0
2380;0.0;0.0;0.0;0.19227199256420135;-1.8212159872055054;0.6958879828453064;0.0;0.0;0.0
2382;0.0331839993596077;-1.671887993812561;0.5958479642868042;0.2235039919614792;-1.8368319272994995;0.6588000059127808;-39.03812789916992;-23.086875915527344;4.217499732971191
2384;0.0;0.0;0.0;0.20788799226284027;-1.8016959428787231;0.6470879912376404;0.0;0.0;0.0
2386;0.0;0.0;0.0;0.21959999203681946;-1.7977919578552246;0.5856000185012817;0.0;0.0;0.0
2388;0.0;0.0;0.0;0.2391199916601181;-1.7743679285049438;0.5904799699783325;0.0;0.0;0.0
2390;0.10784799605607986;-1.664080023765564;0.48141199350357056;0.27425599098205566;-1.7821760177612305;0.561199963092804;-30.358123779296875;-15.596875190734863;-16.572500228881836
