Timestamp(ms);LG-Accel x(g);LG-Accel y(g);LG-Accel z(g);HG-Accel x(g);HG-Accel y(g);HG-Accel z(g);Gyro x(dps);Gyro y(dps);Gyro z(dps)
58;0.0;0.0;0.0;0.17080000042915344;0.5163040161132812;1.205359935760498;0.0;0.0;0.0
60;0.0;0.0;0.0;0.23716799914836884;0.6021919846534729;1.205359935760498;0.0;0.0;0.0
62;0.0;0.0;0.0;0.22155199944972992;0.6451359987258911;1.2014559507369995;0.0;0.0;0.0
64;0.0;0.0;0.0;0.2176479995250702;0.676367998123169;1.2102400064468384;0.0;0.0;0.0
66;0.0;0.0;0.0;0.22545599937438965;0.7544479966163635;1.205359935760498;0.0;0.0;0.0
69;0.0;0.0;0.0;0.24009600281715393;0.7642079591751099;1.2034080028533936;0.0;0.0;0.0
71;0.0;0.0;0.0;0.22448000311851501;0.8266719579696655;1.1907199621200562;0.0;0.0;0.0
73;0.0;0.0;0.0;0.2205759882926941;0.896943986415863;1.199504017829895;0.0;0.0;0.0
75;0.10565199702978134;0.9701439738273621;1.0660359859466553;0.21667200326919556;0.9594079852104187;1.1790080070495605;0.0;0.0;0.0
77;0.0;0.0;0.0;0.19715198874473572;1.0296800136566162;1.1907199621200562;0.0;0.0;0.0
79;0.0;0.0;0.0;0.2088640034198761;1.1038559675216675;1.207311987876892;0.0;0.0;0.0
81;0.0;0.0;0.0;0.22838398814201355;1.0960479974746704;1.1868159770965576;0.0;0.0;0.0
83;0.10174799710512161;1.1909639835357666;1.0560319423675537;0.2088640034198761;1.0960479974746704;1.175104022026062;0.0;0.0;0.0
86;0.0;0.0;0.0;0.18934398889541626;1.0570080280303955;1.146799921989441;0.0;0.0;0.0
88;0.0;0.0;0.0;0.1542080044746399;1.0296800136566162;1.097999930381775;0.0;0.0;0.0
90;0.0;0.0;0.0;0.11907199770212173;1.017967939376831;1.0570080280303955;0.0;0.0;0.0
92;0.03367199748754501;1.1748600006103516;0.9777079820632935;0.10052800178527832;1.0570080280303955;1.036512017250061;0.0;0.0;0.0
94;0.0;0.0;0.0;0.11907199770212173;1.0648159980773926;1.0003999471664429;0.0;0.0;0.0
96;0.0;0.0;0.0;0.1424959897994995;1.1116639375686646;0.9672159552574158;0.0;0.0;0.0
98;0.0;0.0;0.0;0.18544000387191772;1.1624159812927246;0.9633119702339172;0.0;0.0;0.0
100;0.038307998329401016;1.242691993713379;0.8583920001983643;0.2518079876899719;1.1819360256195068;0.9555040001869202;0.0;0.0;0.0
103;0.0;0.0;0.0;0.2635200023651123;1.2092639207839966;0.9145119786262512;0.0;0.0;0.0
105;0.0;0.0;0.0;0.28303998708724976;1.2248799800872803;0.8862079977989197;0.0;0.0;0.0
107;0.0;0.0;0.0;0.27132800221443176;1.1702239513397217;0.8744959831237793;0.0;0.0;0.0
109;0.15371999144554138;1.3276039361953735;0.7759199738502502;0.32207998633384705;1.158511996269226;0.8539999723434448;0.0;0.0;0.0
111;0.0;0.0;0.0;0.2752319872379303;1.338096022605896;0.8940159678459167;0.0;0.0;0.0
113;0.0;0.0;0.0;0.2908479869365692;1.2717279195785522;0.8657119870185852;0.0;0.0;0.0
115;0.0;0.0;0.0;0.3181760013103485;1.256111979484558;0.8744959831237793;0.0;0.0;0.0
117;0.17836399376392365;1.40885591506958;0.7585960030555725;0.2869440019130707;1.2600159645080566;0.9067040085792542;21.315000534057617;26.608749389648438;34.82500076293945
120;0.0;0.0;0.0;0.236191987991333;1.2404959201812744;0.9184159636497498;0.0;0.0;0.0
122;0.0;0.0;0.0;0.2518079876899719;1.2795360088348389;0.9145119786262512;0.0;0.0;0.0
124;0.0;0.0;0.0;0.26742398738861084;1.2287839651107788;0.9145119786262512;0.0;0.0;0.0
126;0.13639599084854126;1.3822599649429321;0.7881199717521667;0.29865598678588867;1.2404959201812744;0.9389119744300842;25.795000076293945;46.48875045776367;48.125
128;0.0;0.0;0.0;0.32207998633384705;1.2365919351577759;1.0043039321899414;0.0;0.0;0.0
130;0.0;0.0;0.0;0.32598400115966797;1.1936479806900024;1.019919991493225;0.0;0.0;0.0
132;0.0;0.0;0.0;0.3298879861831665;1.1624159812927246;1.0726239681243896;0.0;0.0;0.0
134;0.19568799436092377;1.327359914779663;0.9103639721870422;0.32207998633384705;1.158511996269226;1.146799921989441;30.415000915527344;70.21875;61.63500213623047
137;0.0;0.0;0.0;0.2596159875392914;1.0570080280303955;1.1760799884796143;0.0;0.0;0.0
139;0.0;0.0;0.0;0.23228800296783447;1.0218719244003296;1.2326879501342773;0.0;0.0;0.0
141;0.0;0.0;0.0;0.2088640034198761;0.9633119702339172;1.3019839525222778;0.0;0.0;0.0
143;0.11394799500703812;1.157047986984253;1.1048319339752197;0.1815359890460968;0.9047519564628601;1.345903992652893;34.6150016784668;88.6987533569336;75.63499450683594
145;0.0;0.0;0.0;0.09564799815416336;0.8032479882240295;1.4395999908447266;0.0;0.0;0.0
147;0.0;0.0;0.0;0.11614400148391724;0.7524960041046143;1.4308159351348877;0.0;0.0;0.0
149;0.0;0.0;0.0;0.053679998964071274;0.6627039909362793;1.5167039632797241;0.0;0.0;0.0
151;-0.037331998348236084;0.8774240016937256;1.3161360025405884;0.006831999868154526;0.6002399921417236;1.5489119291305542;34.404998779296875;91.49874877929688;87.88499450683594
154;0.0;0.0;0.0;-0.04782399907708168;0.5104479789733887;1.5772159099578857;0.0;0.0;0.0
156;0.0;0.0;0.0;-0.05172799900174141;0.4206559956073761;1.6299200057983398;0.0;0.0;0.0
158;0.0;0.0;0.0;-0.08686399459838867;0.3699039816856384;1.6426079273223877;0.0;0.0;0.0
160;-0.1861719936132431;0.563152015209198;1.4698560237884521;-0.13371199369430542;0.28011199831962585;1.6387039422988892;27.614999771118164;74.13874816894531;98.10499572753906
162;0.0;0.0;0.0;-0.1600639969110489;0.20983999967575073;1.6182079315185547;0.0;0.0;0.0
164;0.0;0.0;0.0;-0.24595199525356293;0.08100800216197968;1.5733119249343872;0.0;0.0;0.0
166;0.0;0.0;0.0;-0.22643199563026428;-0.004879999905824661;1.5655039548873901;0.0;0.0;0.0
169;-0.34013599157333374;0.21837998926639557;1.4569239616394043;-0.2967039942741394;-0.11028799414634705;1.5489119291305542;18.44499969482422;37.31875228881836;108.18499755859375
171;0.0;0.0;0.0;-0.27327999472618103;-0.19617599248886108;1.5274399518966675;0.0;0.0;0.0
173;0.0;0.0;0.0;-0.2030079960823059;-0.33671998977661133;1.5196319818496704;0.0;0.0;0.0
175;0.0;0.0;0.0;-0.1756799966096878;-0.4772639870643616;1.499135971069336;0.0;0.0;0.0
177;-0.3298879861831665;-0.2205759882926941;1.3712799549102783;-0.14054399728775024;-0.5943840146064758;1.4552159309387207;13.405000686645508;-3.9812498092651367;116.30500030517578
179;0.0;0.0;0.0;-0.11419199407100677;-0.7310239672660828;1.4347199201583862;0.0;0.0;0.0
181;0.0;0.0;0.0;-0.1180959939956665;-0.8598560094833374;1.4142240285873413;0.0;0.0;0.0
183;0.0;0.0;0.0;-0.10247999429702759;-1.019919991493225;1.3654239177703857;0.0;0.0;0.0
186;-0.2378999888896942;-0.7334640026092529;1.2766079902648926;-0.1180959939956665;-1.1136159896850586;1.3732320070266724;6.755000114440918;-23.161251068115234;116.93499755859375
188;0.0;0.0;0.0;-0.12199999392032623;-1.2229279279708862;1.362496018409729;0.0;0.0;0.0
190;0.0;0.0;0.0;-0.14151999354362488;-1.3634719848632812;1.3664000034332275;0.0;0.0;0.0
192;0.0;0.0;0.0;-0.1483519971370697;-1.4727839231491089;1.3664000034332275;0.0;0.0;0.0
194;-0.2549799978733063;-1.2046279907226562;1.2348840236663818;-0.14444799721240997;-1.582095980644226;1.3585920333862305;-5.704999923706055;-24.981250762939453;110.1449966430664
196;0.0;0.0;0.0;-0.15615999698638916;-1.7070239782333374;1.3790879249572754;0.0;0.0;0.0
198;0.0;0.0;0.0;-0.2147199958562851;-1.8553760051727295;1.3664000034332275;0.0;0.0;0.0
200;0.0;0.0;0.0;-0.19129599630832672;-1.9998239278793335;1.3498079776763916;0.0;0.0;0.0
202;-0.3054879903793335;-1.7214199304580688;1.2185360193252563;-0.21081599593162537;-2.1481759548187256;1.3058879375457764;-27.614999771118164;-21.69124984741211;102.23500061035156
205;0.0;0.0;0.0;-0.2147199958562851;-2.2496800422668457;1.32150399684906;0.0;0.0;0.0
207;0.0;0.0;0.0;-0.2147199958562851;-2.370703935623169;1.2932000160217285;0.0;0.0;0.0
209;0.0;0.0;0.0;-0.19129599630832672;-2.472208023071289;1.2688000202178955;0.0;0.0;0.0
211;-0.3245199918746948;-2.2252800464630127;1.156559944152832;-0.1756799966096878;-2.57371187210083;1.2444000244140625;-52.53499984741211;-21.971250534057617;88.93499755859375
213;0.0;0.0;0.0;-0.14932799339294434;-2.6049439907073975;1.2082879543304443;0.0;0.0;0.0
215;0.0;0.0;0.0;-0.11419199407100677;-2.663503885269165;1.2209759950637817;0.0;0.0;0.0
217;0.0;0.0;0.0;-0.11028799414634705;-2.6049439907073975;1.1965759992599487;0.0;0.0;0.0
220;-0.24058400094509125;-2.492703914642334;1.0618879795074463;-0.07905599474906921;-2.7103519439697266;1.0901919603347778;-70.73500061035156;-23.091251373291016;68.77499389648438
222;0.0;0.0;0.0;-0.18348799645900726;-2.659600019454956;1.0570080280303955;0.0;0.0;0.0
224;0.0;0.0;0.0;-0.20691199600696564;-2.6869280338287354;0.9838079810142517;0.0;0.0;0.0
226;0.0;0.0;0.0;-0.19129599630832672;-2.7025439739227295;0.9184159636497498;0.0;0.0;0.0
228;-0.31622397899627686;-2.553215980529785;0.8676639795303345;-0.23423999547958374;-2.749392032623291;0.8374080061912537;-76.82500457763672;-32.471248626708984;46.79500198364258
230;0.0;0.0;0.0;-0.2537599802017212;-2.749392032623291;0.7768959999084473;0.0;0.0;0.0
232;0.0;0.0;0.0;-0.21081599593162537;-2.741584062576294;0.7202879786491394;0.0;0.0;0.0
234;0.0;0.0;0.0;-0.18348799645900726;-2.749392032623291;0.586575984954834;0.0;0.0;0.0
237;-0.33598798513412476;-2.603235960006714;0.5770599842071533;-0.1483519971370697;-2.761103868484497;0.5533919930458069;-65.83500671386719;-59.00124740600586;23.55500030517578
239;0.0;0.0;0.0;-0.1180959939956665;-2.7142560482025146;0.46164798736572266;0.0;0.0;0.0
241;0.0;0.0;0.0;-0.05172799900174141;-2.7259678840637207;0.37966400384902954;0.0;0.0;0.0
243;0.0;0.0;0.0;0.018543999642133713;-2.6791200637817383;0.35624000430107117;0.0;0.0;0.0
245;-0.1710439920425415;-2.548823833465576;0.2898719906806946;0.0029279999434947968;-2.6088478565216064;0.2869440019130707;-42.80500030517578;-79.09124755859375;-4.865000247955322
247;0.0;0.0;0.0;0.053679998964071274;-2.5854239463806152;0.23814399540424347;0.0;0.0;0.0
249;0.0;0.0;0.0;0.09272000193595886;-2.4136478900909424;0.23814399540424347;0.0;0.0;0.0
251;0.0;0.0;0.0;0.17372798919677734;-2.382416009902954;0.17372798919677734;0.0;0.0;0.0
254;0.0017079999670386314;-2.32507586479187;0.10028399527072906;0.24009600281715393;-2.269199848175049;0.13663999736309052;-18.654998779296875;-72.79125213623047;-33.77499771118164
256;0.0;0.0;0.0;0.23228800296783447;-2.093519926071167;0.16494399309158325;0.0;0.0;0.0
258;0.0;0.0;0.0;0.2635200023651123;-2.0388638973236084;0.12883199751377106;0.0;0.0;0.0
260;0.0;0.0;0.0;0.27132800221443176;-1.9295519590377808;0.1210239976644516;0.0;0.0;0.0
262;0.1327359974384308;-1.8958799839019775;0.024399999529123306;0.2908479869365692;-1.8866080045700073;0.10833600163459778;-2.765000104904175;-43.25124740600586;-54.845001220703125
264;0.0;0.0;0.0;0.236191987991333;-1.816335916519165;0.09272000193595886;0.0;0.0;0.0
266;0.0;0.0;0.0;0.24009600281715393;-1.7733919620513916;0.08393599838018417;0.0;0.0;0.0
268;0.0;0.0;0.0;0.20105600357055664;-1.664080023765564;0.07222399860620499;0.0;0.0;0.0
271;0.1041879951953888;-1.6084480285644531;-0.0348920002579689;0.16201600432395935;-1.628943920135498;0.07222399860620499;8.995000839233398;-5.801249980926514;-72.13500213623047
273;0.0;0.0;0.0;0.16591998934745789;-1.5196319818496704;0.11224000155925751;0.0;0.0;0.0
275;0.0;0.0;0.0;0.16591998934745789;-1.4688799381256104;0.11224000155925751;0.0;0.0;0.0
277;0.0;0.0;0.0;0.16201600432395935;-1.3478559255599976;0.17763200402259827;0.0;0.0;0.0
279;0.050995998084545135;-1.3171119689941406;0.01781199872493744;0.15811198949813843;-1.3478559255599976;0.19812799990177155;19.635000228881836;27.30875015258789;-87.2550048828125
281;0.0;0.0;0.0;0.14640000462532043;-1.2697759866714478;0.2547360062599182;0.0;0.0;0.0
283;0.0;0.0;0.0;0.1424959897994995;-1.2307360172271729;0.27035200595855713;0.0;0.0;0.0
285;0.0;0.0;0.0;0.08881600201129913;-1.1956000328063965;0.25863999128341675;0.0;0.0;0.0
288;-0.0014639999717473984;-1.0987319946289062;0.13932399451732635;0.06539200246334076;-1.148751974105835;0.28303998708724976;19.915000915527344;56.778751373291016;-95.51500701904297
290;0.0;0.0;0.0;0.045871999114751816;-1.1136159896850586;0.30743998289108276;0.0;0.0;0.0
292;0.0;0.0;0.0;-0.0009759999811649323;-1.0433440208435059;0.3357439935207367;0.0;0.0;0.0
294;0.0;0.0;0.0;-0.024399999529123306;-0.9691680073738098;0.3806400001049042;0.0;0.0;0.0
296;-0.12297599762678146;-0.8896239995956421;0.23228800296783447;-0.0634399950504303;-0.8637599945068359;0.4411519765853882;17.53499984741211;76.02875518798828;-104.82500457763672
298;0.0;0.0;0.0;-0.06734399497509003;-0.7973920106887817;0.46164798736572266;0.0;0.0;0.0
300;0.0;0.0;0.0;-0.07515199482440948;-0.7583519816398621;0.5104479789733887;0.0;0.0;0.0
302;0.0;0.0;0.0;-0.10247999429702759;-0.6802719831466675;0.5465599894523621;0.0;0.0;0.0
305;-0.20642399787902832;-0.6017040014266968;0.38429999351501465;-0.07905599474906921;-0.5982879996299744;0.5387519598007202;11.86500072479248;90.65875244140625;-116.16500091552734
307;0.0;0.0;0.0;-0.07124799489974976;-0.5319200158119202;0.5504639744758606;0.0;0.0;0.0
309;0.0;0.0;0.0;-0.04001599922776222;-0.43432000279426575;0.5709599852561951;0.0;0.0;0.0
311;0.0;0.0;0.0;-0.01659199967980385;-0.32500800490379333;0.6275680065155029;0.0;0.0;0.0
313;-0.15152399241924286;-0.28377199172973633;0.46164798736572266;0.07710400223731995;-0.20788799226284027;0.6275680065155029;3.674999952316284;103.18875122070312;-123.93500518798828
315;0.0;0.0;0.0;0.10345599800348282;-0.09857599437236786;0.684175968170166;0.0;0.0;0.0
317;0.0;0.0;0.0;0.14640000462532043;0.0302559994161129;0.7417600154876709;0.0;0.0;0.0
319;0.0;0.0;0.0;0.14640000462532043;0.1239520013332367;0.798367977142334;0.0;0.0;0.0
322;0.00317199993878603;0.14054399728775024;0.6229320168495178;0.1542080044746399;0.21374399960041046;0.8549759984016418;1.225000023841858;132.23873901367188;-129.46499633789062
324;0.0;0.0;0.0;0.14640000462532043;0.3386719822883606;0.9232959747314453;0.0;0.0;0.0
326;0.0;0.0;0.0;0.11126399785280228;0.436271995306015;0.9925919771194458;0.0;0.0;0.0
328;0.0;0.0;0.0;0.13078400492668152;0.5104479789733887;1.0296800136566162;0.0;0.0;0.0
330;0.007807999849319458;0.5624200105667114;0.856440007686615;0.13859200477600098;0.6080479621887207;1.1067839860916138;-1.9950000047683716;170.94874572753906;-128.27500915527344
332;0.0;0.0;0.0;0.15030398964881897;0.7837280035018921;1.150704026222229;0.0;0.0;0.0
334;0.0;0.0;0.0;0.13859200477600098;0.9515999555587769;1.2404959201812744;0.0;0.0;0.0
336;0.0;0.0;0.0;0.1542080044746399;1.0257760286331177;1.3019839525222778;0.0;0.0;0.0
339;0.01195599976927042;1.024067997932434;1.0984879732131958;0.14640000462532043;1.060912013053894;1.3546879291534424;1.784999966621399;200.1387481689453;-127.29500579833984
341;0.0;0.0;0.0;0.045871999114751816;1.2287839651107788;1.5040159225463867;0.0;0.0;0.0
343;0.0;0.0;0.0;0.1698240041732788;1.4474079608917236;1.5694079399108887;0.0;0.0;0.0
345;0.0;0.0;0.0;0.057583998888731;1.7987679243087769;1.7070239782333374;0.0;0.0;0.0
347;-0.02781599946320057;1.5711159706115723;1.4325239658355713;0.03806399926543236;1.5293920040130615;1.6016160249710083;10.395000457763672;217.2887420654297;-120.99500274658203
349;0.0;0.0;0.0;-0.03611199930310249;1.7558239698410034;1.7558239698410034;0.0;0.0;0.0
351;0.0;0.0;0.0;-0.05172799900174141;2.0720479488372803;1.8690400123596191;0.0;0.0;0.0
353;0.0;0.0;0.0;0.08100800216197968;1.7636319398880005;1.7392319440841675;0.0;0.0;0.0
356;-0.1395680010318756;1.965175986289978;1.6504160165786743;-0.07515199482440948;1.9900639057159424;1.9217439889907837;13.475000381469727;211.68875122070312;-100.9050064086914
358;0.0;0.0;0.0;-0.08295999467372894;1.954927921295166;1.8612319231033325;0.0;0.0;0.0
360;0.0;0.0;0.0;-0.08295999467372894;1.9861599206924438;1.840735912322998;0.0;0.0;0.0
362;0.0;0.0;0.0;-0.0009759999811649323;2.0759520530700684;1.7880319356918335;0.0;0.0;0.0
364;-0.1651879996061325;2.1737959384918213;1.7070239782333374;0.03806399926543236;2.232111930847168;1.8446400165557861;20.405000686645508;189.21875;-82.21500396728516
366;0.0;0.0;0.0;0.045871999114751816;2.3882720470428467;1.857327938079834;0.0;0.0;0.0
368;0.0;0.0;0.0;0.0849120020866394;2.5444319248199463;1.865135908126831;0.0;0.0;0.0
370;0.0;0.0;0.0;0.08100800216197968;2.6459360122680664;1.8534239530563354;0.0;0.0;0.0
373;-0.04660400003194809;2.6569159030914307;1.7182480096817017;0.03806399926543236;2.7708640098571777;1.8485440015792847;34.96500015258789;168.84873962402344;-62.474998474121094
375;0.0;0.0;0.0;0.08100800216197968;2.903599977493286;1.8524479866027832;0.0;0.0;0.0
377;0.0;0.0;0.0;0.12785600125789642;2.989487886428833;1.8153599500656128;0.0;0.0;0.0
379;0.0;0.0;0.0;0.1268799901008606;3.0441439151763916;1.8202400207519531;0.0;0.0;0.0
381;-0.02391199953854084;3.1027040481567383;1.6943359375;0.0302559994161129;3.1300318241119385;1.8114559650421143;50.29500198364258;149.10874938964844;-28.314998626708984
383;0.0;0.0;0.0;-0.0634399950504303;3.1456480026245117;1.7997440099716187;0.0;0.0;0.0
385;0.0;0.0;0.0;-0.10638399422168732;3.169071912765503;1.8397599458694458;0.0;0.0;0.0
387;0.0;0.0;0.0;-0.1756799966096878;3.1144158840179443;1.7831519842147827;0.0;0.0;0.0
390;-0.2281399965286255;3.2717959880828857;1.6735960245132446;-0.30451199412345886;3.090991973876953;1.8241440057754517;61.07500076293945;125.51875305175781;15.574999809265137
392;0.0;0.0;0.0;-0.35526400804519653;3.094895839691162;1.8290239572525024;0.0;0.0;0.0
394;0.0;0.0;0.0;-0.3933279812335968;3.0519518852233887;1.8212159872055054;0.0;0.0;0.0
396;0.0;0.0;0.0;-0.447983980178833;2.9348318576812744;1.759727954864502;0.0;0.0;0.0
398;-0.5209400057792664;3.1329598426818848;1.6504160165786743;-0.5026400089263916;2.8489439487457275;1.6914079189300537;68.28499603271484;73.92874908447266;54.56500244140625
400;0.0;0.0;0.0;-0.48311999440193176;2.7669599056243896;1.6709120273590088;0.0;0.0;0.0
402;0.0;0.0;0.0;-0.42846399545669556;2.7552478313446045;1.6299200057983398;0.0;0.0;0.0
405;0.0;0.0;0.0;-0.3357439935207367;2.6342239379882812;1.5811200141906738;0.0;0.0;0.0
407;-0.522159993648529;2.8333280086517334;1.480347990989685;-0.2810879945755005;2.5561439990997314;1.557695984840393;77.875;-1.7412500381469727;83.54499816894531
409;0.0;0.0;0.0;-0.21081599593162537;2.4897758960723877;1.5167039632797241;0.0;0.0;0.0
411;0.0;0.0;0.0;-0.14444799721240997;2.4897758960723877;1.5371999740600586;0.0;0.0;0.0
413;0.0;0.0;0.0;-0.12199999392032623;2.3804638385772705;1.4923039674758911;0.0;0.0;0.0
415;-0.2908479869365692;2.574199914932251;1.3846999406814575;-0.11419199407100677;2.314095973968506;1.5040159225463867;92.6449966430664;-47.80125045776367;103.8449935913086
417;0.0;0.0;0.0;-0.11028799414634705;2.2008800506591797;1.4639999866485596;0.0;0.0;0.0
419;0.0;0.0;0.0;-0.15615999698638916;2.1071839332580566;1.4552159309387207;0.0;0.0;0.0
422;0.0;0.0;0.0;-0.187391996383667;2.048624038696289;1.4230079650878906;0.0;0.0;0.0
424;-0.2781600058078766;2.2496800422668457;1.3217480182647705;-0.230335995554924;1.9666399955749512;1.3986079692840576;93.41499328613281;-51.651248931884766;125.19499969482422
426;0.0;0.0;0.0;-0.2810879945755005;1.849519968032837;1.3537119626998901;0.0;0.0;0.0
428;0.0;0.0;0.0;-0.3357439935207367;1.7363039255142212;1.3488320112228394;0.0;0.0;0.0
430;0.0;0.0;0.0;-0.40113598108291626;1.630895972251892;1.2883199453353882;0.0;0.0;0.0
432;-0.4531079828739166;1.8653799295425415;1.209507942199707;-0.3786879777908325;1.5411039590835571;1.3010079860687256;84.03499603271484;-55.2912483215332;147.6649932861328
434;0.0;0.0;0.0;-0.4050399959087372;1.435696005821228;1.2844159603118896;0.0;0.0;0.0
436;0.0;0.0;0.0;-0.34355199337005615;1.3654239177703857;1.2473279237747192;0.0;0.0;0.0
439;0.0;0.0;0.0;-0.32793599367141724;1.248304009437561;1.2473279237747192;0.0;0.0;0.0
441;-0.47457998991012573;1.478395938873291;1.126547932624817;-0.2967039942741394;1.1233760118484497;1.2034080028533936;68.70499420166016;-60.61124801635742;165.30499267578125
443;0.0;0.0;0.0;-0.27327999472618103;0.9984479546546936;1.1721760034561157;0.0;0.0;0.0
445;0.0;0.0;0.0;-0.3669759929180145;0.8579039573669434;1.1311839818954468;0.0;0.0;0.0
447;0.0;0.0;0.0;-0.35916799306869507;0.7290719747543335;1.0775039196014404;0.0;0.0;0.0
449;-0.45164400339126587;0.9808799624443054;1.0069879293441772;-0.38551998138427734;0.5885279774665833;1.0862879753112793;50.084999084472656;-61.03125;175.73500061035156
451;0.0;0.0;0.0;-0.3630719780921936;0.46750399470329285;1.0491999387741089;0.0;0.0;0.0
453;0.0;0.0;0.0;-0.3630719780921936;0.36209598183631897;1.0657919645309448;0.0;0.0;0.0
456;0.0;0.0;0.0;-0.2967039942741394;0.28011199831962585;1.1145919561386108;0.0;0.0;0.0
458;-0.46457600593566895;0.5048359632492065;0.9393999576568604;-0.3084160089492798;0.1903200000524521;1.1028800010681152;35.595001220703125;-58.23124694824219;172.375
460;0.0;0.0;0.0;-0.3201279938220978;0.1395680010318756;1.1184959411621094;0.0;0.0;0.0
462;0.0;0.0;0.0;-0.3123199939727783;0.06929600238800049;1.1594879627227783;0.0;0.0;0.0
464;0.0;0.0;0.0;-0.35526400804519653;-0.01268799975514412;1.1838879585266113;0.0;0.0;0.0
466;-0.4667719900608063;0.1978839933872223;1.0233359336853027;-0.42846399545669556;-0.10638399422168732;1.1877919435501099;12.285000801086426;-50.741249084472656;165.23500061035156
468;0.0;0.0;0.0;-0.447983980178833;-0.1298079937696457;1.2082879543304443;0.0;0.0;0.0
470;0.0;0.0;0.0;-0.4323679804801941;-0.2000799924135208;1.2248799800872803;0.0;0.0;0.0
473;0.0;0.0;0.0;-0.42846399545669556;-0.28596800565719604;1.2453759908676147;0.0;0.0;0.0
475;-0.5487560033798218;-0.08100800216197968;1.09580397605896;-0.3972319960594177;-0.35624000430107117;1.2209759950637817;-27.7549991607666;-45.1412467956543;163.55499267578125
477;0.0;0.0;0.0;-0.4167519807815552;-0.4265120029449463;1.2326879501342773;0.0;0.0;0.0
479;0.0;0.0;0.0;-0.4167519807815552;-0.5241119861602783;1.2043839693069458;0.0;0.0;0.0
481;0.0;0.0;0.0;-0.447983980178833;-0.6334239840507507;1.2248799800872803;0.0;0.0;0.0
483;-0.5607119798660278;-0.3940599858760834;1.087019920349121;-0.46750399470329285;-0.6880800127983093;1.2004799842834473;-72.83500671386719;-43.18124771118164;161.4550018310547
485;0.0;0.0;0.0;-0.47921597957611084;-0.7778719663619995;1.2004799842834473;0.0;0.0;0.0
487;0.0;0.0;0.0;-0.4987359941005707;-0.8832799792289734;1.2043839693069458;0.0;0.0;0.0
490;0.0;0.0;0.0;-0.5143519639968872;-0.9769759774208069;1.1838879585266113;0.0;0.0;0.0
492;-0.6143919825553894;-0.7493239641189575;1.059448003768921;-0.5182560086250305;-1.0550559759140015;1.146799921989441;-112.03500366210938;-37.16124725341797;161.10499572753906
494;0.0;0.0;0.0;-0.5807200074195862;-1.23854398727417;1.0901919603347778;0.0;0.0;0.0
496;0.0;0.0;0.0;-0.6422079801559448;-1.3244320154190063;1.0491999387741089;0.0;0.0;0.0
498;0.0;0.0;0.0;-0.7398079633712769;-1.4298399686813354;1.0413919687271118;0.0;0.0;0.0
500;-0.7805559635162354;-1.1958439350128174;0.9357399940490723;-0.708575963973999;-1.6094239950180054;0.9642879962921143;-134.71499633789062;-37.02124786376953;156.625
502;0.0;0.0;0.0;-0.8061760067939758;-1.7577760219573975;0.9769759774208069;0.0;0.0;0.0
504;0.0;0.0;0.0;-0.7866559624671936;-1.9100319147109985;0.9681919813156128;0.0;0.0;0.0
507;0.0;0.0;0.0;-0.7319999933242798;-2.0505759716033936;0.9476959705352783;0.0;0.0;0.0
509;-0.88401198387146;-1.7729039192199707;0.8356999754905701;-0.7280960083007812;-2.2184479236602783;0.9281759858131409;-133.73500061035156;-51.30125045776367;142.4149932861328
511;0.0;0.0;0.0;-0.7476159930229187;-2.358991861343384;0.9037759900093079;0.0;0.0;0.0
513;0.0;0.0;0.0;-0.7554239630699158;-2.5307679176330566;0.8754720091819763;0.0;0.0;0.0
515;0.0;0.0;0.0;-0.7398079633712769;-2.667407989501953;0.8266719579696655;0.0;0.0;0.0
517;-0.8652240037918091;-2.377779960632324;0.7478600144386292;-0.6890559792518616;-2.8001439571380615;0.7700639963150024;-125.05500030517578;-60.471248626708984;124.63499450683594
519;0.0;0.0;0.0;-0.6461119651794434;-2.936784029006958;0.7700639963150024;0.0;0.0;0.0
521;0.0;0.0;0.0;-0.5729119777679443;-3.0812318325042725;0.7046719789505005;0.0;0.0;0.0
524;0.0;0.0;0.0;-0.5026400089263916;-3.229583978652954;0.7173599600791931;0.0;0.0;0.0
526;-0.692471981048584;-2.939955949783325;0.6087799668312073;-0.49483197927474976;-3.2764320373535156;0.6890559792518616;-108.74500274658203;-59.561248779296875;97.8949966430664
528;0.0;0.0;0.0;-0.43724799156188965;-3.2569119930267334;0.7124800086021423;0.0;0.0;0.0
530;0.0;0.0;0.0;-0.2654719948768616;-3.560447931289673;0.6275680065155029;0.0;0.0;0.0
532;0.0;0.0;0.0;-0.3513599932193756;-3.4364960193634033;0.7856799960136414;0.0;0.0;0.0
534;-0.48604798316955566;-3.258131980895996;0.5826719999313354;-0.35916799306869507;-3.5253119468688965;0.6724640130996704;-83.125;-43.46125030517578;61.56500244140625
536;0.0;0.0;0.0;-0.3123199939727783;-3.552639961242676;0.684175968170166;0.0;0.0;0.0
538;0.0;0.0;0.0;-0.28889599442481995;-3.5409278869628906;0.7046719789505005;0.0;0.0;0.0
541;0.0;0.0;0.0;-0.33183997869491577;-3.478463888168335;0.7212640047073364;0.0;0.0;0.0
543;-0.43553999066352844;-3.3581719398498535;0.5809639692306519;-0.2810879945755005;-3.397455930709839;0.725167989730835;-57.435001373291016;-22.951250076293945;22.92500114440918
545;0.0;0.0;0.0;-0.3123199939727783;-3.2920479774475098;0.7661600112915039;0.0;0.0;0.0
547;0.0;0.0;0.0;-0.2967039942741394;-3.2569119930267334;0.7700639963150024;0.0;0.0;0.0
549;0.0;0.0;0.0;-0.3084160089492798;-3.1632158756256104;0.7944639921188354;0.0;0.0;0.0
551;-0.4260239899158478;-3.0887959003448486;0.6414759755134583;-0.3201279938220978;-3.0695199966430664;0.7407839894294739;-34.125;-15.18125057220459;-18.30499839782715
554;0.0;0.0;0.0;-0.24595199525356293;-2.9758238792419434;0.757375955581665;0.0;0.0;0.0
555;0.0;0.0;0.0;-0.2420479953289032;-2.8899359703063965;0.7368800044059753;0.0;0.0;0.0
558;0.0;0.0;0.0;-0.22643199563026428;-2.7806239128112793;0.725167989730835;0.0;0.0;0.0
560;-0.35989999771118164;-2.7359719276428223;0.6129279732704163;-0.17958399653434753;-2.651792049407959;0.6636799573898315;-18.934999465942383;-28.271249771118164;-52.814998626708984
562;0.0;0.0;0.0;-0.14151999354362488;-2.569808006286621;0.6197599768638611;0.0;0.0;0.0
564;0.0;0.0;0.0;-0.08686399459838867;-2.4253599643707275;0.5953599810600281;0.0;0.0;0.0
566;0.0;0.0;0.0;-0.04391999915242195;-2.374608039855957;0.5426560044288635;0.0;0.0;0.0
568;-0.19861599802970886;-2.322391986846924;0.4660399854183197;0.08100800216197968;-2.292623996734619;0.5016639828681946;-8.644999504089355;-40.66124725341797;-80.67500305175781
570;0.0;0.0;0.0;0.09272000193595886;-2.183311939239502;0.4655520021915436;0.0;0.0;0.0
573;0.0;0.0;0.0;0.11614400148391724;-2.0544800758361816;0.4167519807815552;0.0;0.0;0.0
575;0.0;0.0;0.0;0.20105600357055664;-1.898319959640503;0.3806400001049042;0.0;0.0;0.0
577;0.01878799870610237;-1.9175959825515747;0.2954840064048767;0.19715198874473572;-1.800719976425171;0.36795198917388916;1.3650000095367432;-31.981250762939453;-99.64500427246094
579;0.0;0.0;0.0;0.20105600357055664;-1.710927963256836;0.3357439935207367;0.0;0.0;0.0
581;0.0;0.0;0.0;0.23228800296783447;-1.6679840087890625;0.30743998289108276;0.0;0.0;0.0
583;0.0;0.0;0.0;0.23228800296783447;-1.5938079357147217;0.30353599786758423;0.0;0.0;0.0
585;0.09516000002622604;-1.5257319211959839;0.2071560025215149;0.22838398814201355;-1.5586719512939453;0.3152479827404022;11.515000343322754;0.4987500011920929;-112.80500030517578
588;0.0;0.0;0.0;0.2205759882926941;-1.5469599962234497;0.3357439935207367;0.0;0.0;0.0
590;0.0;0.0;0.0;0.2869440019130707;-1.4805920124053955;0.3806400001049042;0.0;0.0;0.0
592;0.0;0.0;0.0;0.24399998784065247;-1.4298399686813354;0.38844799995422363;0.0;0.0;0.0
594;0.1163880005478859;-1.3495639562606812;0.25912800431251526;0.26742398738861084;-1.3790879249572754;0.4655520021915436;20.614999771118164;50.96875;-125.96500396728516
596;0.0;0.0;0.0;0.28303998708724976;-1.343951940536499;0.5572959780693054;0.0;0.0;0.0
598;0.0;0.0;0.0;0.19715198874473572;-1.2775839567184448;0.6509919762611389;0.0;0.0;0.0
600;0.0;0.0;0.0;0.14640000462532043;-1.2034080028533936;0.7642079591751099;0.0;0.0;0.0
602;0.06954000145196915;-1.1338679790496826;0.5353360176086426;0.06148799881339073;-1.1643680334091187;0.8618080019950867;30.415000915527344;108.85874938964844;-143.2550048828125
605;0.0;0.0;0.0;-0.032207999378442764;-1.0823839902877808;0.9594079852104187;0.0;0.0;0.0
607;0.0;0.0;0.0;-0.11419199407100677;-1.0277279615402222;1.0531039237976074;0.0;0.0;0.0
609;0.0;0.0;0.0;-0.19910399615764618;-0.9847840070724487;1.126304030418396;0.0;0.0;0.0
611;-0.23253199458122253;-0.8986519575119019;0.912559986114502;-0.230335995554924;-0.937936007976532;1.1868159770965576;36.78499984741211;141.96875;-158.09500122070312
613;0.0;0.0;0.0;-0.29767999053001404;-0.8393599987030029;1.2980799674987793;0.0;0.0;0.0
615;0.0;0.0;0.0;-0.32891198992729187;-0.7222399711608887;1.3585920333862305;0.0;0.0;0.0
617;0.0;0.0;0.0;-0.32891198992729187;-0.5895040035247803;1.4317920207977295;0.0;0.0;0.0
619;-0.43309998512268066;-0.5755959749221802;1.2331759929656982;-0.3757599890232086;-0.4411519765853882;1.508895993232727;43.92499923706055;131.2587432861328;-168.1750030517578
622;0.0;0.0;0.0;-0.387472003698349;-0.284991979598999;1.5938079357147217;0.0;0.0;0.0
624;0.0;0.0;0.0;-0.36795198917388916;-0.19519999623298645;1.6182079315185547;0.0;0.0;0.0
626;0.0;0.0;0.0;-0.3786879777908325;-0.0663679987192154;1.6709120273590088;0.0;0.0;0.0
628;-0.5023959875106812;-0.053435999900102615;1.4786399602890015;-0.36795198917388916;0.03513599932193756;1.710927963256836;45.185001373291016;104.30875396728516;-171.9550018310547
630;0.0;0.0;0.0;-0.3786879777908325;0.1239520013332367;1.7236160039901733;0.0;0.0;0.0
632;0.0;0.0;0.0;-0.41284799575805664;0.20203199982643127;1.7392319440841675;0.0;0.0;0.0
634;0.0;0.0;0.0;-0.44017598032951355;0.2566879987716675;1.7314239740371704;0.0;0.0;0.0
636;-0.5385079979896545;0.32037198543548584;1.584291934967041;-0.5026400089263916;0.3269599974155426;1.7031199932098389;39.584999084472656;77.70875549316406;-169.5050048828125
639;0.0;0.0;0.0;-0.522159993648529;0.3777119815349579;1.7236160039901733;0.0;0.0;0.0
641;0.0;0.0;0.0;-0.5572959780693054;0.49483197927474976;1.6631039381027222;0.0;0.0;0.0
643;0.0;0.0;0.0;-0.561199963092804;0.6080479621887207;1.6426079273223877;0.0;0.0;0.0
645;-0.6685599684715271;0.6361079812049866;1.5210959911346436;-0.5299679636955261;0.6822239756584167;1.5811200141906738;36.64500045776367;43.26875305175781;-162.15499877929688
647;0.0;0.0;0.0;-0.4635999798774719;0.7759199738502502;1.5323200225830078;0.0;0.0;0.0
649;0.0;0.0;0.0;-0.3903999924659729;0.9359839558601379;1.5206079483032227;0.0;0.0;0.0
651;0.0;0.0;0.0;-0.2967039942741394;1.0140639543533325;1.4883999824523926;0.0;0.0;0.0
653;-0.5026400089263916;1.0455399751663208;1.3934839963912964;-0.2420479953289032;1.1311839818954468;1.484495997428894;40.28499984741211;10.71875;-152.635009765625
655;0.0;0.0;0.0;-0.2147199958562851;1.2522079944610596;1.4395999908447266;0.0;0.0;0.0
658;0.0;0.0;0.0;-0.15323199331760406;1.384943962097168;1.443503975868225;0.0;0.0;0.0
660;0.0;0.0;0.0;-0.10638399422168732;1.4864479303359985;1.4025119543075562;0.0;0.0;0.0
662;-0.281576007604599;1.4988919496536255;1.30759596824646;-0.05172799900174141;1.5957599878311157;1.4151999950408936;44.48500061035156;6.448750019073486;-139.8249969482422
664;0.0;0.0;0.0;-0.03611199930310249;1.71288001537323;1.4025119543075562;0.0;0.0;0.0
666;0.0;0.0;0.0;-0.01268799975514412;1.908079981803894;1.467903971672058;0.0;0.0;0.0
668;0.0;0.0;0.0;-0.04391999915242195;2.033007860183716;1.4718079566955566;0.0;0.0;0.0
670;-0.16787199676036835;2.008120059967041;1.3224799633026123;-0.0634399950504303;2.056432008743286;1.467903971672058;47.915000915527344;26.53874969482422;-121.48500061035156
673;0.0;0.0;0.0;-0.07515199482440948;2.15012788772583;1.4883999824523926;0.0;0.0;0.0
675;0.0;0.0;0.0;-0.0907679945230484;2.3960800170898438;1.5850239992141724;0.0;0.0;0.0
677;0.0;0.0;0.0;-0.03611199930310249;2.4468319416046143;1.5811200141906738;0.0;0.0;0.0
679;-0.19617599248886108;2.4702558517456055;1.4242279529571533;-0.15615999698638916;2.5639519691467285;1.6016160249710083;51.415000915527344;38.22875213623047;-97.33500671386719
681;0.0;0.0;0.0;-0.15615999698638916;2.6771678924560547;1.6016160249710083;0.0;0.0;0.0
683;0.0;0.0;0.0;-0.19519999623298645;2.7279200553894043;1.6543200016021729;0.0;0.0;0.0
685;0.0;0.0;0.0;-0.18348799645900726;2.778671979904175;1.6094239950180054;0.0;0.0;0.0
687;-0.2962159812450409;2.8377199172973633;1.4730279445648193;-0.21081599593162537;2.813807964324951;1.6260160207748413;50.92499923706055;24.578750610351562;-67.09500122070312
690;0.0;0.0;0.0;-0.1756799966096878;2.884079933166504;1.5899039506912231;0.0;0.0;0.0
692;0.0;0.0;0.0;-0.24595199525356293;2.880175828933716;1.5733119249343872;0.0;0.0;0.0
694;0.0;0.0;0.0;-0.21862399578094482;2.9582560062408447;1.5655039548873901;0.0;0.0;0.0
696;-0.3391599953174591;3.034872055053711;1.4313039779663086;-0.20691199600696564;2.981679916381836;1.5450079441070557;52.32500076293945;-9.231250762939453;-38.60499954223633
698;0.0;0.0;0.0;-0.17177599668502808;2.9309279918670654;1.5001119375228882;0.0;0.0;0.0
700;0.0;0.0;0.0;-0.1756799966096878;2.9465439319610596;1.4474079608917236;0.0;0.0;0.0
702;0.0;0.0;0.0;-0.1454239934682846;2.985584020614624;1.4317920207977295;0.0;0.0;0.0
704;-0.27889198064804077;3.0983119010925293;1.3271160125732422;-0.0634399950504303;3.0168159008026123;1.3829920291900635;55.26499938964844;-43.60124969482422;-14.52500057220459
706;0.0;0.0;0.0;-0.01268799975514412;3.063663959503174;1.394703984260559;0.0;0.0;0.0
709;0.0;0.0;0.0;0.010735999792814255;3.1495518684387207;1.3742079734802246;0.0;0.0;0.0
711;0.0;0.0;0.0;0.022447999566793442;3.2159199714660645;1.3254079818725586;0.0;0.0;0.0
713;-0.12419600039720535;3.275455951690674;1.226099967956543;0.03806399926543236;3.262768030166626;1.345903992652893;58.90500259399414;-62.85124969482422;7.59499979019165
715;0.0;0.0;0.0;0.022447999566793442;3.2939999103546143;1.3176000118255615;0.0;0.0;0.0
717;0.0;0.0;0.0;-0.004879999905824661;3.3213279247283936;1.3019839525222778;0.0;0.0;0.0
719;0.0;0.0;0.0;-0.032207999378442764;3.2979040145874023;1.2980799674987793;0.0;0.0;0.0
721;-0.13371199369430542;3.424783945083618;1.1677839756011963;-0.07905599474906921;3.282287836074829;1.2688000202178955;56.875;-70.27124786376953;37.06500244140625
724;0.0;0.0;0.0;-0.11419199407100677;3.2432479858398438;1.2453759908676147;0.0;0.0;0.0
726;0.0;0.0;0.0;-0.10247999429702759;3.2081120014190674;1.2160959243774414;0.0;0.0;0.0
728;0.0;0.0;0.0;-0.13371199369430542;3.1456480026245117;1.2043839693069458;0.0;0.0;0.0
730;-0.2252119928598404;3.3252320289611816;1.0923880338668823;-0.14932799339294434;3.090991973876953;1.1633919477462769;44.415000915527344;-82.31124877929688;72.90499877929688
732;0.0;0.0;0.0;-0.16884799301624298;2.998271942138672;1.0862879753112793;0.0;0.0;0.0
734;0.0;0.0;0.0;-0.19617599248886108;2.912384033203125;1.073599934577942;0.0;0.0;0.0
736;0.0;0.0;0.0;-0.1424959897994995;2.834303855895996;1.0247999429702759;0.0;0.0;0.0
738;-0.29060399532318115;3.0370678901672363;0.9267119765281677;-0.18055999279022217;2.6976640224456787;0.9525759816169739;25.235000610351562;-92.11125183105469;108.18499755859375
741;0.0;0.0;0.0;-0.23131199181079865;2.549311876296997;0.9359839558601379;0.0;0.0;0.0
743;0.0;0.0;0.0;-0.24302399158477783;2.4087679386138916;0.84716796875;0.0;0.0;0.0
745;0.0;0.0;0.0;-0.2547360062599182;2.244799852371216;0.7612800002098083;0.0;0.0;0.0
747;-0.3618519902229309;2.518079996109009;0.7273640036582947;-0.23131199181079865;2.05350399017334;0.7290719747543335;7.385000228881836;-91.76124572753906;148.43499755859375
749;0.0;0.0;0.0;-0.2030079960823059;1.8612319231033325;0.7046719789505005;0.0;0.0;0.0
751;0.0;0.0;0.0;-0.16396799683570862;1.6426079273223877;0.6558719873428345;0.0;0.0;0.0
753;0.0;0.0;0.0;-0.16787199676036835;1.4161759614944458;0.6441599726676941;0.0;0.0;0.0
755;-0.3050000071525574;1.763875961303711;0.5568079948425293;-0.13761599361896515;1.2131680250167847;0.6402559876441956;-3.815000057220459;-75.3812484741211;173.9149932861328
758;0.0;0.0;0.0;-0.19129599630832672;1.060912013053894;0.6275680065155029;0.0;0.0;0.0
760;0.0;0.0;0.0;-0.21081599593162537;0.9320799708366394;0.6275680065155029;0.0;0.0;0.0
762;0.0;0.0;0.0;-0.23423999547958374;0.8461920022964478;0.684175968170166;0.0;0.0;0.0
764;-0.3240320086479187;1.0926319360733032;0.5331400036811829;-0.22252799570560455;0.7915359735488892;0.732975959777832;-4.164999961853027;-37.721248626708984;178.60499572753906
766;0.0;0.0;0.0;-0.19910399615764618;0.8110559582710266;0.8266719579696655;0.0;0.0;0.0
768;0.0;0.0;0.0;-0.24985599517822266;0.725167989730835;0.8998720049858093;0.0;0.0;0.0
770;0.0;0.0;0.0;-0.33183997869491577;0.7290719747543335;0.9925919771194458;0.0;0.0;0.0
772;-0.39869600534439087;0.879863977432251;0.7834839820861816;-0.40113598108291626;0.6822239756584167;1.0862879753112793;-2.9750001430511475;-3.701249837875366;178.39500427246094
775;0.0;0.0;0.0;-0.4753119945526123;0.6002399921417236;1.1428959369659424;0.0;0.0;0.0
777;0.0;0.0;0.0;-0.5143519639968872;0.5768159627914429;1.2121919393539429;0.0;0.0;0.0
779;0.0;0.0;0.0;-0.522159993648529;0.4596959948539734;1.2570879459381104;0.0;0.0;0.0
781;-0.6180520057678223;0.664900004863739;1.063107967376709;-0.5963360071182251;0.35819199681282043;1.3058879375457764;-13.054999351501465;-0.27125000953674316;185.53500366210938
783;0.0;0.0;0.0;-0.6275680065155029;0.22155199944972992;1.3507839441299438;0.0;0.0;0.0
785;0.0;0.0;0.0;-0.6158559918403625;0.07320000231266022;1.3420000076293945;0.0;0.0;0.0
787;0.0;0.0;0.0;-0.6539199948310852;0.006831999868154526;1.370303988456726;0.0;0.0;0.0
789;-0.748591959476471;0.23082399368286133;1.2153639793395996;-0.6734399795532227;-0.16103999316692352;1.370303988456726;-28.875;-30.931249618530273;191.6949920654297
792;0.0;0.0;0.0;-0.6431840062141418;-0.30158400535583496;1.345903992652893;0.0;0.0;0.0
794;0.0;0.0;0.0;-0.6617279648780823;-0.43432000279426575;1.3263839483261108;0.0;0.0;0.0
796;0.0;0.0;0.0;-0.6314719915390015;-0.5436319708824158;1.309791922569275;0.0;0.0;0.0
798;-0.7637199759483337;-0.28889599442481995;1.1943799257278442;-0.6158559918403625;-0.6139039993286133;1.2697759866714478;-46.86499786376953;-71.67124938964844;193.4449920654297
800;0.0;0.0;0.0;-0.5885279774665833;-0.7193120121955872;1.2697759866714478;0.0;0.0;0.0
802;0.0;0.0;0.0;-0.5494880080223083;-0.7973920106887817;1.2492799758911133;0.0;0.0;0.0
804;0.0;0.0;0.0;-0.5768159627914429;-0.937936007976532;1.2043839693069458;0.0;0.0;0.0
806;-0.7117480039596558;-0.696619987487793;1.093851923942566;-0.6695359945297241;-1.1292319297790527;1.1106879711151123;-68.56500244140625;-95.19124603271484;191.90499877929688
809;0.0;0.0;0.0;-0.7280960083007812;-1.28929603099823;1.0491999387741089;0.0;0.0;0.0
811;0.0;0.0;0.0;-0.8169119954109192;-1.523535966873169;0.9564799666404724;0.0;0.0;0.0
813;0.0;0.0;0.0;-0.8793759942054749;-1.718735933303833;0.8754720091819763;0.0;0.0;0.0
815;-0.9342759847640991;-1.3790879249572754;0.8393599987030029;-0.8988959789276123;-1.898319959640503;0.798367977142334;-89.7750015258789;-108.49124908447266;184.55499267578125
817;0.0;0.0;0.0;-0.8676639795303345;-2.109135866165161;0.700767993927002;0.0;0.0;0.0
819;0.0;0.0;0.0;-0.8061760067939758;-2.3394720554351807;0.6236639618873596;0.0;0.0;0.0
821;0.0;0.0;0.0;-0.7710399627685547;-2.5893280506134033;0.5582720041275024;0.0;0.0;0.0
823;-0.9262239933013916;-2.22381591796875;0.5143519639968872;-0.6695359945297241;-2.8235678672790527;0.522159993648529;-98.5250015258789;-129.14125061035156;166.35499572753906
826;0.0;0.0;0.0;-0.5572959780693054;-2.9797279834747314;0.46164798736572266;0.0;0.0;0.0
828;0.0;0.0;0.0;-0.42846399545669556;-3.2686238288879395;0.3718560039997101;0.0;0.0;0.0
830;0.0;0.0;0.0;-0.4323679804801941;-3.401360034942627;0.4001599848270416;0.0;0.0;0.0
832;-0.6012159585952759;-3.0597598552703857;0.3130519986152649;-0.284991979598999;-3.5487358570098877;0.35624000430107117;-102.16500091552734;-115.21125030517578;139.125
834;0.0;0.0;0.0;-0.1756799966096878;-3.7087998390197754;0.32793599367141724;0.0;0.0;0.0
836;0.0;0.0;0.0;-0.09857599437236786;-3.8805758953094482;0.2791360020637512;0.0;0.0;0.0
838;0.0;0.0;0.0;-0.004879999905824661;-3.9820799827575684;0.34355199337005615;0.0;0.0;0.0
840;-0.23545999825000763;-3.7044079303741455;0.22008799016475677;0.0302559994161129;-4.087487697601318;0.39235198497772217;-101.53500366210938;-51.02124786376953;100.41500091552734
843;0.0;0.0;0.0;0.049775999039411545;-4.146048069000244;0.5016639828681946;0.0;0.0;0.0
845;0.0;0.0;0.0;0.06148799881339073;-4.200704097747803;0.5826719999313354;0.0;0.0;0.0
847;0.0;0.0;0.0;-0.004879999905824661;-4.282688140869141;0.6968640089035034;0.0;0.0;0.0
849;-0.1076039969921112;-4.060159683227539;0.4740919768810272;-0.09467199444770813;-4.298304080963135;0.798367977142334;-91.73500061035156;33.9587516784668;53.935001373291016
851;0.0;0.0;0.0;-0.21862399578094482;-4.341248035430908;0.9154880046844482;0.0;0.0;0.0
853;0.0;0.0;0.0;-0.33183997869491577;-4.310015678405762;1.0052800178527832;0.0;0.0;0.0
855;0.0;0.0;0.0;-0.45188799500465393;-4.239743709564209;1.0784800052642822;0.0;0.0;0.0
857;-0.46164798736572266;-4.133359909057617;0.8566839694976807;-0.5143519639968872;-4.181183815002441;1.1311839818954468;-84.80500030517578;77.07875061035156;4.794999599456787
860;0.0;0.0;0.0;-0.545583963394165;-4.028927803039551;1.1672959327697754;0.0;0.0;0.0
862;0.0;0.0;0.0;-0.561199963092804;-3.9235198497772217;1.2082879543304443;0.0;0.0;0.0
864;0.0;0.0;0.0;-0.5494880080223083;-3.763455867767334;1.2453759908676147;0.0;0.0;0.0
866;-0.6846640110015869;-3.7607719898223877;1.0662800073623657;-0.5104479789733887;-3.6385278701782227;1.199504017829895;-77.73500061035156;39.2087516784668;-40.35499954223633
868;0.0;0.0;0.0;-0.5026400089263916;-3.5253119468688965;1.1350879669189453;0.0;0.0;0.0
870;0.0;0.0;0.0;-0.45188799500465393;-3.393551826477051;1.0413919687271118;0.0;0.0;0.0
872;0.0;0.0;0.0;-0.3396480083465576;-3.2881438732147217;0.9232959747314453;0.0;0.0;0.0
874;-0.5446079969406128;-3.2683799266815186;0.8910880088806152;-0.26156800985336304;-3.1866400241851807;0.7944639921188354;-73.39500427246094;-31.001251220703125;-73.81500244140625
877;0.0;0.0;0.0;-0.16103999316692352;-3.1007518768310547;0.6646559834480286;0.0;0.0;0.0
879;0.0;0.0;0.0;-0.0634399950504303;-2.9914400577545166;0.5299679636955261;0.0;0.0;0.0
881;0.0;0.0;0.0;0.022447999566793442;-2.8899359703063965;0.3962559998035431;0.0;0.0;0.0
883;-0.19300399720668793;-2.8457720279693604;0.416020005941391;0.09564799815416336;-2.761103868484497;0.27035200595855713;-62.685001373291016;-69.92124938964844;-102.93500518798828
885;0.0;0.0;0.0;0.15811198949813843;-2.647887945175171;0.18934398889541626;0.0;0.0;0.0
887;0.0;0.0;0.0;0.2205759882926941;-2.5229599475860596;0.0878399983048439;0.0;0.0;0.0
889;0.0;0.0;0.0;0.2752319872379303;-2.378511905670166;0.03903999924659729;0.0;0.0;0.0
891;0.09125600010156631;-2.358259916305542;0.0024399999529123306;0.3416000008583069;-2.206735849380493;0.019519999623298645;-39.51499938964844;-59.28125;-132.0550079345703
894;0.0;0.0;0.0;0.399183988571167;-2.0739998817443848;-0.02537599951028824;0.0;0.0;0.0
896;0.0;0.0;0.0;0.44603198766708374;-1.9256479740142822;0.0029279999434947968;0.0;0.0;0.0
898;0.0;0.0;0.0;0.5358240008354187;-1.7538719177246094;0.010735999792814255;0.0;0.0;0.0
900;0.3350119888782501;-1.765339970588684;-0.10955599695444107;0.5397279858589172;-1.6016160249710083;0.04391999915242195;-9.97499942779541;-4.401249885559082;-158.375
902;0.0;0.0;0.0;0.5475360155105591;-1.4064159393310547;0.14054399728775024;0.0;0.0;0.0
904;0.0;0.0;0.0;0.5358240008354187;-1.2502559423446655;0.18934398889541626;0.0;0.0;0.0
906;0.0;0.0;0.0;0.48897600173950195;-1.0550559759140015;0.2791360020637512;0.0;0.0;0.0
908;0.3835679888725281;-1.1214239597320557;0.09198799729347229;0.3640480041503906;-0.9106079936027527;0.4089439809322357;15.855000495910645;74.76875305175781;-174.26499938964844
911;0.0;0.0;0.0;0.25571200251579285;-0.7544479966163635;0.5348479747772217;0.0;0.0;0.0
913;0.0;0.0;0.0;0.20495998859405518;-0.6568480134010315;0.6441599726676941;0.0;0.0;0.0
915;0.0;0.0;0.0;0.057583998888731;-0.5514400005340576;0.7456640005111694;0.0;0.0;0.0
917;0.05929199978709221;-0.521183967590332;0.5055679678916931;0.022447999566793442;-0.4577440023422241;0.8627839684486389;31.815000534057617;138.46875;-179.02500915527344
919;0.0;0.0;0.0;-0.06734399497509003;-0.4108960032463074;0.9154880046844482;0.0;0.0;0.0
921;0.0;0.0;0.0;-0.1600639969110489;-0.399183988571167;1.0130879878997803;0.0;0.0;0.0
923;0.0;0.0;0.0;-0.2030079960823059;-0.3640480041503906;1.073599934577942;0.0;0.0;0.0
925;-0.2664479911327362;-0.2640079855918884;0.8664439916610718;-0.2537599802017212;-0.3640480041503906;1.146799921989441;41.334999084472656;151.9087371826172;-178.6750030517578
928;0.0;0.0;0.0;-0.2654719948768616;-0.33671998977661133;1.1877919435501099;0.0;0.0;0.0
930;0.0;0.0;0.0;-0.27718400955200195;-0.33671998977661133;1.2444000244140625;0.0;0.0;0.0
932;0.0;0.0;0.0;-0.24985599517822266;-0.25863999128341675;1.309791922569275;0.0;0.0;0.0
934;-0.3757599890232086;-0.16591998934745789;1.1209360361099243;-0.230335995554924;-0.21569599211215973;1.345903992652893;53.44499969482422;129.0887451171875;-182.03500366210938
936;0.0;0.0;0.0;-0.2576639950275421;-0.07124799489974976;1.4317920207977295;0.0;0.0;0.0
938;0.0;0.0;0.0;-0.2693759799003601;0.010735999792814255;1.4757119417190552;0.0;0.0;0.0
940;0.0;0.0;0.0;-0.2576639950275421;0.12785600125789642;1.5167039632797241;0.0;0.0;0.0
942;-0.36624398827552795;0.16250400245189667;1.3385839462280273;-0.230335995554924;0.26449599862098694;1.5859999656677246;63.80500030517578;104.02875518798828;-188.0550079345703
945;0.0;0.0;0.0;-0.24595199525356293;0.3777119815349579;1.6143039464950562;0.0;0.0;0.0
947;0.0;0.0;0.0;-0.2147199958562851;0.4987359941005707;1.6543200016021729;0.0;0.0;0.0
949;0.0;0.0;0.0;-0.21081599593162537;0.6314719915390015;1.6787199974060059;0.0;0.0;0.0
951;-0.3530679941177368;0.644648015499115;1.51475191116333;-0.23423999547958374;0.8032479882240295;1.7275199890136719;63.80500030517578;88.0687484741211;-187.0050048828125
953;0.0;0.0;0.0;-0.2576639950275421;0.920367956161499;1.743135929107666;0.0;0.0;0.0
955;0.0;0.0;0.0;-0.230335995554924;1.0570080280303955;1.7275199890136719;0.0;0.0;0.0
957;0.0;0.0;0.0;-0.23423999547958374;1.2404959201812744;1.7929120063781738;0.0;0.0;0.0
959;-0.36575600504875183;1.1846200227737427;1.6057639122009277;-0.23423999547958374;1.2131680250167847;1.7275199890136719;56.10499954223633;70.21875;-174.19500732421875
962;0.0;0.0;0.0;-0.28889599442481995;1.2170720100402832;1.7031199932098389;0.0;0.0;0.0
964;0.0;0.0;0.0;-0.2967039942741394;1.4513119459152222;1.7724159955978394;0.0;0.0;0.0
966;0.0;0.0;0.0;-0.230335995554924;1.5606240034103394;1.7558239698410034;0.0;0.0;0.0
968;-0.38649600744247437;1.5476919412612915;1.6072279214859009;-0.2654719948768616;1.6816480159759521;1.7519199848175049;51.06500244140625;48.23875045776367;-157.53500366210938
970;0.0;0.0;0.0;-0.33671998977661133;1.8622080087661743;1.7685120105743408;0.0;0.0;0.0
972;0.0;0.0;0.0;-0.27425599098205566;1.92467200756073;1.7148319482803345;0.0;0.0;0.0
974;0.0;0.0;0.0;-0.2000799924135208;2.080832004547119;1.7636319398880005;0.0;0.0;0.0
976;-0.3786879777908325;2.0949840545654297;1.6094239950180054;-0.16591998934745789;2.1979520320892334;1.7197120189666748;47.56500244140625;24.50874900817871;-138.14500427246094
979;0.0;0.0;0.0;-0.1571359932422638;2.240895986557007;1.7070239782333374;0.0;0.0;0.0
981;0.0;0.0;0.0;-0.11126399785280228;2.3775360584259033;1.7031199932098389;0.0;0.0;0.0
983;0.0;0.0;0.0;-0.07612799853086472;2.4790399074554443;1.6914079189300537;0.0;0.0;0.0
985;-0.23521599173545837;2.5036840438842773;1.559891939163208;-0.05270399898290634;2.553215980529785;1.6387039422988892;43.084999084472656;4.068749904632568;-112.17500305175781
987;0.0;0.0;0.0;-0.032207999378442764;2.6342239379882812;1.6221119165420532;0.0;0.0;0.0
989;0.0;0.0;0.0;-0.0634399950504303;2.712303876876831;1.5977119207382202;0.0;0.0;0.0
991;0.0;0.0;0.0;-0.028303999453783035;2.7435359954833984;1.5450079441070557;0.0;0.0;0.0
994;-0.17592400312423706;2.8208839893341064;1.4525319337844849;-0.07905599474906921;2.813807964324951;1.5371999740600586;45.60499954223633;-11.471250534057617;-83.47500610351562
996;0.0;0.0;0.0;-0.09857599437236786;2.8372318744659424;1.4962079524993896;0.0;0.0;0.0
998;0.0;0.0;0.0;-0.0907679945230484;2.876271963119507;1.443503975868225;0.0;0.0;0.0
1000;0.0;0.0;0.0;-0.12199999392032623;2.911407947540283;1.435696005821228;0.0;0.0;0.0
1002;-0.22301599383354187;2.994123935699463;1.3044239282608032;-0.1180959939956665;2.876271963119507;1.334191918373108;58.97500228881836;-38.21125030517578;-54.494998931884766
1004;0.0;0.0;0.0;-0.1298079937696457;2.9153120517730713;1.32150399684906;0.0;0.0;0.0
1006;0.0;0.0;0.0;-0.08686399459838867;2.9504480361938477;1.2492799758911133;0.0;0.0;0.0
1008;0.0;0.0;0.0;-0.04391999915242195;2.9387359619140625;1.1721760034561157;0.0;0.0;0.0
1011;-0.18812400102615356;3.067811965942383;1.1136159896850586;0.0302559994161129;2.9543519020080566;1.1516799926757812;74.7249984741211;-72.79125213623047;-27.334999084472656
1013;0.0;0.0;0.0;0.11126399785280228;2.981679916381836;1.097999930381775;0.0;0.0;0.0
1015;0.0;0.0;0.0;0.115167997777462;3.0129120349884033;1.0169919729232788;0.0;0.0;0.0
1017;0.0;0.0;0.0;0.16201600432395935;3.0207200050354004;1.0091840028762817;0.0;0.0;0.0
1019;0.007807999849319458;3.136132001876831;0.9064599871635437;0.19324800372123718;3.0129120349884033;0.9281759858131409;86.76499938964844;-91.76124572753906;-0.875
1021;0.0;0.0;0.0;0.19324800372123718;3.0363359451293945;0.8910880088806152;0.0;0.0;0.0
1023;0.0;0.0;0.0;0.23228800296783447;3.090991973876953;0.8832799792289734;0.0;0.0;0.0
1025;0.0;0.0;0.0;0.2518079876899719;3.1261279582977295;0.84716796875;0.0;0.0;0.0
1028;0.10955599695444107;3.2190918922424316;0.7568879723548889;0.236191987991333;3.1417438983917236;0.8383839726448059;94.95499420166016;-86.02124786376953;27.96500015258789
1030;0.0;0.0;0.0;0.2205759882926941;3.165168046951294;0.8100799918174744;0.0;0.0;0.0
1032;0.0;0.0;0.0;0.14640000462532043;3.1105120182037354;0.7895839810371399;0.0;0.0;0.0
1034;0.0;0.0;0.0;0.07710400223731995;3.094895839691162;0.7612800002098083;0.0;0.0;0.0
1036;0.04001599922776222;3.230315923690796;0.6705119609832764;0.0849120020866394;3.0324318408966064;0.7368800044059753;93.83499908447266;-70.20124816894531;64.50499725341797
1038;0.0;0.0;0.0;0.06539200246334076;2.966063976287842;0.6968640089035034;0.0;0.0;0.0
1040;0.0;0.0;0.0;0.06929600238800049;2.899695873260498;0.684175968170166;0.0;0.0;0.0
1042;0.0;0.0;0.0;0.0302559994161129;2.802095890045166;0.6441599726676941;0.0;0.0;0.0
1045;-0.06490399688482285;3.005591869354248;0.5558319687843323;0.03415999934077263;2.6654560565948486;0.6197599768638611;86.3449935913086;-61.17124938964844;100.48500061035156
1047;0.0;0.0;0.0;-0.004879999905824661;2.5483360290527344;0.6031680107116699;0.0;0.0;0.0
1049;0.0;0.0;0.0;0.006831999868154526;2.43121600151062;0.563152015209198;0.0;0.0;0.0
1051;0.0;0.0;0.0;-0.004879999905824661;2.314095973968506;0.5709599852561951;0.0;0.0;0.0
1053;-0.10272400081157684;2.570296049118042;0.44773998856544495;0.0029279999434947968;2.243824005126953;0.5348479747772217;79.625;-47.73124694824219;128.13499450683594
1055;0.0;0.0;0.0;0.049775999039411545;2.134511947631836;0.5670560002326965;0.0;0.0;0.0
1057;0.0;0.0;0.0;0.053679998964071274;2.0915679931640625;0.5543680191040039;0.0;0.0;0.0
1059;0.0;0.0;0.0;0.022447999566793442;1.9900639057159424;0.5992639660835266;0.0;0.0;0.0
1062;-0.08930400013923645;2.203808069229126;0.45993998646736145;0.0029279999434947968;1.9275999069213867;0.6197599768638611;71.57499694824219;-18.051250457763672;149.4149932861328
1064;0.0;0.0;0.0;-0.024399999529123306;1.8260959386825562;0.6558719873428345;0.0;0.0;0.0
1066;0.0;0.0;0.0;-0.04782399907708168;1.7284959554672241;0.708575963973999;0.0;0.0;0.0
1068;0.0;0.0;0.0;-0.07124799489974976;1.6113759279251099;0.7368800044059753;0.0;0.0;0.0
1070;-0.17031200230121613;1.8456159830093384;0.587552011013031;-0.11419199407100677;1.4981600046157837;0.8266719579696655;57.78499984741211;18.068750381469727;167.125
1072;0.0;0.0;0.0;-0.12199999392032623;1.392751932144165;0.8793759942054749;0.0;0.0;0.0
1074;0.0;0.0;0.0;-0.1756799966096878;1.2795360088348389;0.9886879920959473;0.0;0.0;0.0
1076;0.0;0.0;0.0;-0.24985599517822266;1.2248799800872803;1.0696959495544434;0.0;0.0;0.0
1079;-0.30646398663520813;1.435696005821228;0.8535119891166687;-0.28889599442481995;1.1116639375686646;1.1555839776992798;38.32500076293945;46.41875076293945;177.90499877929688
1081;0.0;0.0;0.0;-0.3474559783935547;1.0491999387741089;1.2121919393539429;0.0;0.0;0.0
1083;0.0;0.0;0.0;-0.41284799575805664;0.9437919855117798;1.28929603099823;0.0;0.0;0.0
1085;0.0;0.0;0.0;-0.44017598032951355;0.8618080019950867;1.345903992652893;0.0;0.0;0.0
1087;-0.5087400078773499;1.0926319360733032;1.1458239555358887;-0.4206559956073761;0.7915359735488892;1.3986079692840576;10.605000495910645;52.71875;185.88499450683594
1089;0.0;0.0;0.0;-0.45188799500465393;0.7134559750556946;1.4718079566955566;0.0;0.0;0.0
1091;0.0;0.0;0.0;-0.42846399545669556;0.611952006816864;1.5127999782562256;0.0;0.0;0.0
1093;0.0;0.0;0.0;-0.4440799951553345;0.5572959780693054;1.5567200183868408;0.0;0.0;0.0
1096;-0.5712040066719055;0.7549359798431396;1.3690840005874634;-0.4596959948539734;0.4909279942512512;1.5938079357147217;-19.635000228881836;36.54875183105469;191.55499267578125
1098;0.0;0.0;0.0;-0.5338720083236694;0.447983980178833;1.6299200057983398;0.0;0.0;0.0
1100;0.0;0.0;0.0;-0.6539199948310852;0.3659999966621399;1.6221119165420532;0.0;0.0;0.0
1102;0.0;0.0;0.0;-0.7359039783477783;0.29182398319244385;1.6299200057983398;0.0;0.0;0.0
1104;-0.7607919573783875;0.4938559830188751;1.467903971672058;-0.7827519774436951;0.205935999751091;1.5977119207382202;-46.025001525878906;7.008749961853027;196.6649932861328
1106;0.0;0.0;0.0;-0.798367977142334;0.08100800216197968;1.5489119291305542;0.0;0.0;0.0
1108;0.0;0.0;0.0;-0.7476159930229187;-0.05953599885106087;1.4883999824523926;0.0;0.0;0.0
1110;0.0;0.0;0.0;-0.7866559624671936;-0.18836799263954163;1.443503975868225;0.0;0.0;0.0
1113;-0.9062159657478333;0.0785679966211319;1.3510279655456543;-0.7827519774436951;-0.2547360062599182;1.3664000034332275;-60.724998474121094;-44.651248931884766;202.89500427246094
1115;0.0;0.0;0.0;-0.7710399627685547;-0.40699198842048645;1.297104001045227;0.0;0.0;0.0
1117;0.0;0.0;0.0;-0.7476159930229187;-0.5163040161132812;1.1956000328063965;0.0;0.0;0.0
1119;0.0;0.0;0.0;-0.7710399627685547;-0.6646559834480286;1.101904034614563;0.0;0.0;0.0
1121;-0.905239999294281;-0.399183988571167;1.0699399709701538;-0.848143994808197;-0.8559519648551941;0.9847840070724487;-60.724998474121094;-99.32125091552734;202.47499084472656
1123;0.0;0.0;0.0;-0.8325279951095581;-1.0550559759140015;0.8793759942054749;0.0;0.0;0.0
1125;0.0;0.0;0.0;-0.8442400097846985;-1.2112159729003906;0.7778719663619995;0.0;0.0;0.0
1127;0.0;0.0;0.0;-0.798367977142334;-1.4376479387283325;0.6724640130996704;0.0;0.0;0.0
1130;-0.9503799676895142;-1.099951982498169;0.6602640151977539;-0.7476159930229187;-1.6094239950180054;0.5992639660835266;-51.76499938964844;-129.4912567138672;195.89500427246094
1132;0.0;0.0;0.0;-0.6734399795532227;-1.816335916519165;0.5338720083236694;0.0;0.0;0.0
1134;0.0;0.0;0.0;-0.6236639618873596;-2.0388638973236084;0.4772639870643616;0.0;0.0;0.0
1136;0.0;0.0;0.0;-0.5651040077209473;-2.2301599979400635;0.4206559956073761;0.0;0.0;0.0
1138;-0.7405399680137634;-1.8848999738693237;0.3713679909706116;-0.4635999798774719;-2.36680006980896;0.4206559956073761;-39.51499938964844;-124.45124816894531;183.9949951171875
1140;0.0;0.0;0.0;-0.3601439893245697;-2.705471992492676;0.2791360020637512;0.0;0.0;0.0
1142;0.0;0.0;0.0;-0.3211039900779724;-2.82259202003479;0.3640480041503906;0.0;0.0;0.0
1144;0.0;0.0;0.0;-0.19617599248886108;-3.00217604637146;0.3757599890232086;0.0;0.0;0.0
1147;-0.4101639986038208;-2.683511972427368;0.2479040026664734;-0.11907199770212173;-3.1544318199157715;0.41284799575805664;-31.184999465942383;-69.22125244140625;160.47499084472656
1149;0.0;0.0;0.0;-0.10735999792814255;-3.3183999061584473;0.44896000623703003;0.0;0.0;0.0
1151;0.0;0.0;0.0;-0.06831999868154526;-3.5048158168792725;0.5426560044288635;0.0;0.0;0.0
1153;0.0;0.0;0.0;-0.11126399785280228;-3.5750880241394043;0.700767993927002;0.0;0.0;0.0
1155;-0.20935200154781342;-3.336211919784546;0.4438360035419464;-0.05270399898290634;-3.8054239749908447;0.7651839852333069;-26.565000534057617;27.30875015258789;126.2449951171875
1157;0.0;0.0;0.0;-0.09564799815416336;-3.8795998096466064;0.8705919981002808;0.0;0.0;0.0
1159;0.0;0.0;0.0;-0.13078400492668152;-3.9576799869537354;1.0579839944839478;0.0;0.0;0.0
1162;0.0;0.0;0.0;-0.09174399822950363;-3.9654879570007324;1.2248799800872803;0.0;0.0;0.0
1164;-0.21740399301052094;-3.779315948486328;0.9435479640960693;-0.11907199770212173;-3.9850080013275146;1.3907999992370605;-31.604999542236328;118.51875305175781;88.30500030517578
1166;0.0;0.0;0.0;-0.16884799301624298;-3.9693918228149414;1.5323200225830078;0.0;0.0;0.0
1168;0.0;0.0;0.0;-0.32891198992729187;-3.9732959270477295;1.6826239824295044;0.0;0.0;0.0
1170;0.0;0.0;0.0;-0.44896000623703003;-4.020143985748291;1.7636319398880005;0.0;0.0;0.0
1172;-0.456279993057251;-3.8510518074035645;1.53329598903656;-0.5856000185012817;-4.051375865936279;1.8768479824066162;-43.224998474121094;166.11874389648438;44.90500259399414
1174;0.0;0.0;0.0;-0.6929599642753601;-4.052351951599121;1.9578559398651123;0.0;0.0;0.0
1176;0.0;0.0;0.0;-0.7671359777450562;-4.05625581741333;2.03983998298645;0.0;0.0;0.0
1178;0.0;0.0;0.0;-0.8139839768409729;-3.9859838485717773;2.0554559230804443;0.0;0.0;0.0
1181;-0.8805959820747375;-3.8747198581695557;1.8580600023269653;-0.8208159804344177;-3.9000959396362305;2.064239978790283;-49.73500061035156;122.99874877929688;-1.3650000095367432
1183;0.0;0.0;0.0;-0.7710399627685547;-3.771263837814331;2.0476479530334473;0.0;0.0;0.0
1185;0.0;0.0;0.0;-0.7515199780464172;-3.6033918857574463;1.9783519506454468;0.0;0.0;0.0
1187;0.0;0.0;0.0;-0.6890559792518616;-3.4589438438415527;1.8446400165557861;0.0;0.0;0.0
1189;-0.8559519648551941;-3.453575849533081;1.8090159893035889;-0.5924319624900818;-3.217871904373169;1.735327959060669;-49.45499801635742;13.098750114440918;-46.86499786376953
1191;0.0;0.0;0.0;-0.47921597957611084;-3.0890400409698486;1.5606240034103394;0.0;0.0;0.0
1193;0.0;0.0;0.0;-0.374783992767334;-2.8938398361206055;1.3751839399337769;0.0;0.0;0.0
1196;0.0;0.0;0.0;-0.28889599442481995;-2.729871988296509;1.1838879585266113;0.0;0.0;0.0
1198;-0.5026400089263916;-2.7435359954833984;1.260259985923767;-0.14151999354362488;-2.5073440074920654;1.0413919687271118;-42.595001220703125;-89.66124725341797;-83.125
1200;0.0;0.0;0.0;-0.06734399497509003;-2.4253599643707275;0.84716796875;0.0;0.0;0.0
1202;0.0;0.0;0.0;0.014639999717473984;-2.2496800422668457;0.7124800086021423;0.0;0.0;0.0
1204;0.0;0.0;0.0;0.09272000193595886;-2.2145440578460693;0.522159993648529;0.0;0.0;0.0
1206;-0.10784799605607986;-2.158911943435669;0.5929200053215027;0.15811198949813843;-2.1169440746307373;0.42455998063087463;-29.57499885559082;-131.17124938964844;-106.78500366210938
1208;0.0;0.0;0.0;0.21667200326919556;-2.089616060256958;0.2791360020637512;0.0;0.0;0.0
1210;0.0;0.0;0.0;0.3025600016117096;-1.9803040027618408;0.16103999316692352;0.0;0.0;0.0
1213;0.0;0.0;0.0;0.3337920010089874;-1.898319959640503;0.05563199892640114;0.0;0.0;0.0
1215;0.18055999279022217;-1.842687964439392;0.07320000231266022;0.387472003698349;-1.8397599458694458;0.010735999792814255;-11.094999313354492;-111.4312515258789;-126.5250015258789
1217;0.0;0.0;0.0;0.44993600249290466;-1.7226399183273315;-0.04196799919009209;0.0;0.0;0.0
1219;0.0;0.0;0.0;0.5123999714851379;-1.6484639644622803;-0.08686399459838867;0.0;0.0;0.0
1221;0.0;0.0;0.0;0.5163040161132812;-1.4923039674758911;-0.02537599951028824;0.0;0.0;0.0
1223;0.38429999351501465;-1.4854719638824463;-0.15079200267791748;0.6051200032234192;-1.4571679830551147;-0.02537599951028824;11.305000305175781;-43.53125;-143.46499633789062
1225;0.0;0.0;0.0;0.5895040035247803;-1.3546879291534424;0.031231999397277832;0.0;0.0;0.0
1227;0.0;0.0;0.0;0.5582720041275024;-1.2336640357971191;0.08003199845552444;0.0;0.0;0.0
1230;0.0;0.0;0.0;0.4997119903564453;-1.229759931564331;0.1327359974384308;0.0;0.0;0.0
1232;0.40577200055122375;-1.152899980545044;-0.02781599946320057;0.374783992767334;-1.214143991470337;0.2420479953289032;27.895000457763672;53.48875045776367;-158.09500122070312
1234;0.0;0.0;0.0;0.27035200595855713;-1.2102400064468384;0.30353599786758423;0.0;0.0;0.0
1236;0.0;0.0;0.0;0.18055999279022217;-1.221951961517334;0.42455998063087463;0.0;0.0;0.0
1238;0.0;0.0;0.0;0.09564799815416336;-1.139967918395996;0.5787680149078369;0.0;0.0;0.0
1240;0.06612399965524673;-1.044319987297058;0.31451600790023804;0.029279999434947968;-1.1048319339752197;0.676367998123169;38.95500183105469;131.11874389648438;-172.51499938964844
1242;0.0;0.0;0.0;-0.028303999453783035;-1.0238239765167236;0.8305760025978088;0.0;0.0;0.0
1244;0.0;0.0;0.0;-0.07905599474906921;-0.9769759774208069;0.9037759900093079;0.0;0.0;0.0
1247;0.0;0.0;0.0;-0.1483519971370697;-0.9262239933013916;1.0091840028762817;0.0;0.0;0.0
1249;-0.22008799016475677;-0.8364319801330566;0.7712839841842651;-0.23423999547958374;-0.8442400097846985;1.1067839860916138;45.1150016784668;163.10874938964844;-184.27500915527344
1251;0.0;0.0;0.0;-0.29280000925064087;-0.7544479966163635;1.1799839735031128;0.0;0.0;0.0
1253;0.0;0.0;0.0;-0.3630719780921936;-0.6919839978218079;1.2570879459381104;0.0;0.0;0.0
1255;0.0;0.0;0.0;-0.40113598108291626;-0.5943840146064758;1.313696026802063;0.0;0.0;0.0
1257;-0.47262799739837646;-0.5470479726791382;1.1184959411621094;-0.41284799575805664;-0.4694559872150421;1.3781119585037231;46.30500030517578;154.42874145507812;-191.69500732421875
1259;0.0;0.0;0.0;-0.46457600593566895;-0.3630719780921936;1.4317920207977295;0.0;0.0;0.0
1261;0.0;0.0;0.0;-0.40991997718811035;-0.22643199563026428;1.4639999866485596;0.0;0.0;0.0
1264;0.0;0.0;0.0;-0.4060159921646118;-0.0936959981918335;1.4757119417190552;0.0;0.0;0.0
1266;-0.5529040098190308;-0.09223199635744095;1.3176000118255615;-0.39820799231529236;0.015615999698638916;1.4962079524993896;43.71500015258789;120.89875030517578;-194.0050048828125
1268;0.0;0.0;0.0;-0.387472003698349;0.07807999849319458;1.5245119333267212;0.0;0.0;0.0
1270;0.0;0.0;0.0;-0.3093920052051544;0.20691199600696564;1.5411039590835571;0.0;0.0;0.0
1272;0.0;0.0;0.0;-0.2820639908313751;0.30451199412345886;1.5040159225463867;0.0;0.0;0.0
1274;-0.4433479905128479;0.3369639813899994;1.3917759656906128;-0.26254400610923767;0.4060159921646118;1.5655039548873901;41.26499938964844;94.43875122070312;-193.72500610351562
1276;0.0;0.0;0.0;-0.2537599802017212;0.5299679636955261;1.5772159099578857;0.0;0.0;0.0
1278;0.0;0.0;0.0;-0.23814399540424347;0.6314719915390015;1.5694079399108887;0.0;0.0;0.0
1281;0.0;0.0;0.0;-0.23814399540424347;0.7446879744529724;1.613327980041504;0.0;0.0;0.0
1283;-0.36965999007225037;0.7754319906234741;1.4557039737701416;-0.230335995554924;0.9086560010910034;1.6338239908218384;42.595001220703125;81.83875274658203;-188.8249969482422
1285;0.0;0.0;0.0;-0.2147199958562851;1.0843359231948853;1.6582239866256714;0.0;0.0;0.0
1287;0.0;0.0;0.0;-0.22252799570560455;1.1116639375686646;1.6221119165420532;0.0;0.0;0.0
1289;0.0;0.0;0.0;-0.2147199958562851;1.1311839818954468;1.5850239992141724;0.0;0.0;0.0
1291;-0.358924001455307;1.2568439245224;1.5013319253921509;-0.27327999472618103;1.4083679914474487;1.686527967453003;43.71500015258789;74.41875457763672;-180.0050048828125
1293;0.0;0.0;0.0;-0.17372798919677734;1.557695984840393;1.6953120231628418;0.0;0.0;0.0
1295;0.0;0.0;0.0;-0.2391199916601181;1.7138559818267822;1.710927963256836;0.0;0.0;0.0
1298;0.0;0.0;0.0;-0.2781600058078766;1.8270719051361084;1.735327959060669;0.0;0.0;0.0
1300;-0.3672199845314026;1.8207279443740845;1.586243987083435;-0.30158400535583496;1.9519999027252197;1.784127950668335;48.755001068115234;64.89875030517578;-167.0550079345703
1302;0.0;0.0;0.0;-0.2508319914340973;2.1042559146881104;1.8202400207519531;0.0;0.0;0.0
1304;0.0;0.0;0.0;-0.2000799924135208;2.2291839122772217;1.840735912322998;0.0;0.0;0.0
1306;0.0;0.0;0.0;-0.16494399309158325;2.3228800296783447;1.840735912322998;0.0;0.0;0.0
1308;-0.33598798513412476;2.3402040004730225;1.692628026008606;-0.2000799924135208;2.3970558643341064;1.8612319231033325;48.96500015258789;51.80875015258789;-148.0850067138672
1310;0.0;0.0;0.0;-0.2000799924135208;2.518079996109009;1.865135908126831;0.0;0.0;0.0
1312;0.0;0.0;0.0;-0.2391199916601181;2.6078720092773438;1.889535903930664;0.0;0.0;0.0
1315;0.0;0.0;0.0;-0.21569599211215973;2.6703360080718994;1.881727933883667;0.0;0.0;0.0
1317;-0.34574800729751587;2.7266998291015625;1.7411839962005615;-0.24302399158477783;2.7640318870544434;1.9051519632339478;49.244998931884766;25.62874984741211;-123.09500122070312
1319;0.0;0.0;0.0;-0.2547360062599182;2.8577280044555664;1.9012479782104492;0.0;0.0;0.0
1321;0.0;0.0;0.0;-0.2820639908313751;2.931903839111328;1.8973439931869507;0.0;0.0;0.0
1323;0.0;0.0;0.0;-0.33671998977661133;3.0763518810272217;1.8534239530563354;0.0;0.0;0.0
1325;-0.42041200399398804;3.087575912475586;1.745576024055481;-0.35624000430107117;3.201279878616333;1.808527946472168;50.084999084472656;-18.471250534057617;-94.2550048828125
1327;0.0;0.0;0.0;-0.3123199939727783;3.3096158504486084;1.7802239656448364;0.0;0.0;0.0
1329;0.0;0.0;0.0;-0.28889599442481995;3.3994078636169434;1.7031199932098389;0.0;0.0;0.0
1332;0.0;0.0;0.0;-0.24985599517822266;3.438447952270508;1.6387039422988892;0.0;0.0;0.0
1334;-0.4013800024986267;3.5004239082336426;1.5615999698638916;-0.20691199600696564;3.4774880409240723;1.5284159183502197;47.28499984741211;-85.74124908447266;-60.095001220703125
1336;0.0;0.0;0.0;-0.15323199331760406;3.4891998767852783;1.419103980064392;0.0;0.0;0.0
1338;0.0;0.0;0.0;-0.10247999429702759;3.5009119510650635;1.2932000160217285;0.0;0.0;0.0
1340;0.0;0.0;0.0;-0.03611199930310249;3.4774880409240723;1.1956000328063965;0.0;0.0;0.0
1342;-0.21276798844337463;3.6102240085601807;1.1760799884796143;0.049775999039411545;3.442351818084717;1.0862879753112793;43.78499984741211;-147.69125366210938;-22.854999542236328
1345;0.0;0.0;0.0;0.11126399785280228;3.446255922317505;0.9847840070724487;0.0;0.0;0.0
1346;0.0;0.0;0.0;0.18934398889541626;3.438447952270508;0.8910880088806152;0.0;0.0;0.0
1349;0.0;0.0;0.0;0.21276798844337463;3.450160026550293;0.8022719621658325;0.0;0.0;0.0
1351;0.051239997148513794;3.564352035522461;0.7807999849319458;0.24399998784065247;3.348655939102173;0.6802719831466675;41.47500228881836;-171.4912567138672;10.885000228881836
1353;0.0;0.0;0.0;0.2596159875392914;3.454063892364502;0.6636799573898315;0.0;0.0;0.0
1355;0.0;0.0;0.0;0.24009600281715393;3.5828959941864014;0.6353759765625;0.0;0.0;0.0
1357;0.0;0.0;0.0;0.32598400115966797;3.6102240085601807;0.5670560002326965;0.0;0.0;0.0
1359;0.16030800342559814;3.657559871673584;0.48311999440193176;0.25571200251579285;3.625839948654175;0.4655520021915436;42.03499984741211;-159.17124938964844;42.665000915527344
1361;0.0;0.0;0.0;0.13078400492668152;3.4891998767852783;0.3806400001049042;0.0;0.0;0.0
1363;0.0;0.0;0.0;0.18544000387191772;3.4774880409240723;0.3396480083465576;0.0;0.0;0.0
1366;0.0;0.0;0.0;0.19324800372123718;3.4111199378967285;0.2508319914340973;0.0;0.0;0.0
1368;0.0680759996175766;3.596315860748291;0.22033199667930603;0.17372798919677734;3.383791923522949;0.2420479953289032;37.76499938964844;-136.9112548828125;81.51499938964844
1370;0.0;0.0;0.0;0.1815359890460968;3.3252320289611816;0.205935999751091;0.0;0.0;0.0
1372;0.0;0.0;0.0;0.17763200402259827;3.2198238372802734;0.14932799339294434;0.0;0.0;0.0
1374;0.0;0.0;0.0;0.19715198874473572;3.1066079139709473;0.10052800178527832;0.0;0.0;0.0
1376;0.06831999868154526;3.3264520168304443;0.018055999651551247;0.18544000387191772;2.9192159175872803;0.03513599932193756;33.21500015258789;-114.65125274658203;119.80500030517578
1379;0.0;0.0;0.0;0.14932799339294434;2.7874560356140137;-0.0009759999811649323;0.0;0.0;0.0
1381;0.0;0.0;0.0;0.1727519929409027;2.5883519649505615;-0.03415999934077263;0.0;0.0;0.0
1383;0.0;0.0;0.0;0.20398399233818054;2.440000057220459;-0.037087999284267426;0.0;0.0;0.0
1385;0.07173600047826767;2.721575975418091;-0.1256600022315979;0.23521599173545837;2.272127866744995;-0.02147199958562851;28.2450008392334;-70.5512466430664;153.7550048828125
1387;0.0;0.0;0.0;0.2937760055065155;2.1159679889678955;0.015615999698638916;0.0;0.0;0.0
1389;0.0;0.0;0.0;0.3328160047531128;1.9598079919815063;0.04782399907708168;0.0;0.0;0.0
1391;0.0;0.0;0.0;0.3445279896259308;1.8192639350891113;0.1210239976644516;0.0;0.0;0.0
1393;0.19593200087547302;2.098155975341797;-0.048312000930309296;0.3093920052051544;1.702143907546997;0.19812799990177155;23.69499969482422;2.52875018119812;175.80499267578125
1395;0.0;0.0;0.0;0.22740799188613892;1.596735954284668;0.2869440019130707;0.0;0.0;0.0
1398;0.0;0.0;0.0;0.11126399785280228;1.4952319860458374;0.3513599932193756;0.0;0.0;0.0
1400;0.0;0.0;0.0;-0.02147199958562851;1.3976320028305054;0.47336000204086304;0.0;0.0;0.0
1402;-0.029279999434947968;1.6284559965133667;0.2500999867916107;-0.13859200477600098;1.3000320196151733;0.5826719999313354;20.05500030517578;75.32875061035156;185.46499633789062
1404;0.0;0.0;0.0;-0.1844639927148819;1.221951961517334;0.708575963973999;0.0;0.0;0.0
1406;0.0;0.0;0.0;-0.28596800565719604;1.1360639333724976;0.798367977142334;0.0;0.0;0.0
1408;0.0;0.0;0.0;-0.3445279896259308;1.034559965133667;0.9037759900093079;0.0;0.0;0.0
1410;-0.4025999903678894;1.2522079944610596;0.6573359966278076;-0.39820799231529236;0.9525759816169739;0.9769759774208069;14.035000801086426;99.40875244140625;192.88499450683594
1413;0.0;0.0;0.0;-0.436271995306015;0.799344003200531;1.073599934577942;0.0;0.0;0.0
1415;0.0;0.0;0.0;-0.522159993648529;0.6939359903335571;1.1477760076522827;0.0;0.0;0.0
1417;0.0;0.0;0.0;-0.561199963092804;0.5885279774665833;1.2248799800872803;0.0;0.0;0.0
1419;-0.6365959644317627;0.8391159772872925;0.998691976070404;-0.6275680065155029;0.4753119945526123;1.2414720058441162;2.8350000381469727;75.32875061035156;199.39500427246094
1421;0.0;0.0;0.0;-0.6461119651794434;0.3386719822883606;1.285391926765442;0.0;0.0;0.0
1423;0.0;0.0;0.0;-0.6890559792518616;0.24887999892234802;1.3302879333496094;0.0;0.0;0.0
1425;0.0;0.0;0.0;-0.7046719789505005;0.15518400073051453;1.3302879333496094;0.0;0.0;0.0
1427;-0.8000760078430176;0.3806400001049042;1.166808009147644;-0.6695359945297241;0.049775999039411545;1.3742079734802246;-11.72499942779541;23.388750076293945;203.1750030517578
1430;0.0;0.0;0.0;-0.6656320095062256;-0.11028799414634705;1.362496018409729;0.0;0.0;0.0
1432;0.0;0.0;0.0;-0.6656320095062256;-0.24302399158477783;1.338096022605896;0.0;0.0;0.0
1434;0.0;0.0;0.0;-0.6968640089035034;-0.4147999882698059;1.362496018409729;0.0;0.0;0.0
1436;-0.8047119975090027;-0.11736399680376053;1.2253680229187012;-0.7319999933242798;-0.5787680149078369;1.345903992652893;-31.114999771118164;-24.21125030517578;203.10499572753906
1438;0.0;0.0;0.0;-0.7437120079994202;-0.7544479966163635;1.285391926765442;0.0;0.0;0.0
1440;0.0;0.0;0.0;-0.7319999933242798;-0.8988959789276123;1.1965759992599487;0.0;0.0;0.0
1442;0.0;0.0;0.0;-0.7398079633712769;-1.051151990890503;1.1350879669189453;0.0;0.0;0.0
1444;-0.8610759973526001;-0.7534719705581665;1.063107967376709;-0.7280960083007812;-1.1721760034561157;1.0413919687271118;-53.44499969482422;-53.26124954223633;195.89500427246094
1446;0.0;0.0;0.0;-0.7319999933242798;-1.336143970489502;0.9359839558601379;0.0;0.0;0.0
1449;0.0;0.0;0.0;-0.7398079633712769;-1.441551923751831;0.8754720091819763;0.0;0.0;0.0
1451;0.0;0.0;0.0;-0.7710399627685547;-1.5118240118026733;0.773967981338501;0.0;0.0;0.0
1453;-0.8749839663505554;-1.2822200059890747;0.7490800023078918;-0.7905600070953369;-1.5859999656677246;0.7173599600791931;-59.744998931884766;-74.75125122070312;182.31500244140625
1455;0.0;0.0;0.0;-0.774944007396698;-1.710927963256836;0.6480640172958374;0.0;0.0;0.0
1457;0.0;0.0;0.0;-0.7593280076980591;-1.8553760051727295;0.610975980758667;0.0;0.0;0.0
1459;0.0;0.0;0.0;-0.7124800086021423;-2.011535882949829;0.5299679636955261;0.0;0.0;0.0
1461;-0.852292001247406;-1.7219079732894897;0.48726800084114075;-0.6236639618873596;-2.1637918949127197;0.5260639786720276;-50.435001373291016;-81.75125122070312;164.60499572753906
1464;0.0;0.0;0.0;-0.5924319624900818;-2.3316638469696045;0.4772639870643616;0.0;0.0;0.0
1466;0.0;0.0;0.0;-0.522159993648529;-2.5307679176330566;0.4333440065383911;0.0;0.0;0.0
1468;0.0;0.0;0.0;-0.3903999924659729;-2.6166560649871826;0.4655520021915436;0.0;0.0;0.0
1470;-0.6092680096626282;-2.326051950454712;0.35404399037361145;-0.27327999472618103;-2.640079975128174;0.4694559872150421;-42.595001220703125;-60.89125061035156;147.38499450683594
1472;0.0;0.0;0.0;-0.11419199407100677;-2.8782238960266113;0.48604798316955566;0.0;0.0;0.0
1474;0.0;0.0;0.0;0.014639999717473984;-2.9055519104003906;0.5826719999313354;0.0;0.0;0.0
1476;0.0;0.0;0.0;0.11907199770212173;-3.0539040565490723;0.6314719915390015;0.0;0.0;0.0
1478;-0.13517600297927856;-2.823323965072632;0.44944798946380615;0.11224000155925751;-3.2451999187469482;0.684175968170166;-44.55500030517578;14.078749656677246;121.9749984741211
1480;0.0;0.0;0.0;0.03415999934077263;-3.393551826477051;0.7700639963150024;0.0;0.0;0.0
1483;0.0;0.0;0.0;-0.07515199482440948;-3.5135998725891113;0.9037759900093079;0.0;0.0;0.0
1485;0.0;0.0;0.0;-0.12590399384498596;-3.6072959899902344;1.0540800094604492;0.0;0.0;0.0
1487;-0.1739719957113266;-3.3535358905792236;0.8032479882240295;-0.2030079960823059;-3.6970880031585693;1.2287839651107788;-47.98500061035156;124.60874938964844;88.93499755859375
1489;0.0;0.0;0.0;-0.29280000925064087;-3.7946879863739014;1.3907999992370605;0.0;0.0;0.0
1491;0.0;0.0;0.0;-0.4206559956073761;-3.8337278366088867;1.5655039548873901;0.0;0.0;0.0
1493;0.0;0.0;0.0;-0.5651040077209473;-3.872767925262451;1.7158079147338867;0.0;0.0;0.0
1495;-0.5582720041275024;-3.6756160259246826;1.4220319986343384;-0.6500160098075867;-3.8922879695892334;1.881727933883667;-46.30500030517578;183.68875122070312;47.49500274658203
1498;0.0;0.0;0.0;-0.6929599642753601;-3.8883838653564453;1.9910399913787842;0.0;0.0;0.0
1500;0.0;0.0;0.0;-0.7124800086021423;-3.8259198665618896;2.1325600147247314;0.0;0.0;0.0
1502;0.0;0.0;0.0;-0.708575963973999;-3.763455867767334;2.1852638721466064;0.0;0.0;0.0
1504;-0.8371639847755432;-3.6565840244293213;1.9524879455566406;-0.7710399627685547;-3.572160005569458;2.3072638511657715;-51.275001525878906;162.19874572753906;3.884999990463257
1506;0.0;0.0;0.0;-0.8139839768409729;-3.576063871383667;2.2457759380340576;0.0;0.0;0.0
1508;0.0;0.0;0.0;-0.8022719621658325;-3.405263900756836;2.3316638469696045;0.0;0.0;0.0
1510;0.0;0.0;0.0;-0.8374080061912537;-3.233487844467163;2.3111679553985596;0.0;0.0;0.0
1512;-0.9386679530143738;-3.2566678524017334;2.141831874847412;-0.8335039615631104;-3.1710238456726074;2.1979520320892334;-63.595001220703125;84.35874938964844;-33.98500061035156
1515;0.0;0.0;0.0;-0.8217920064926147;-3.03438401222229;2.1208479404449463;0.0;0.0;0.0
1517;0.0;0.0;0.0;-0.7319999933242798;-3.0031518936157227;1.9627360105514526;0.0;0.0;0.0
1519;0.0;0.0;0.0;-0.5807200074195862;-2.8938398361206055;1.816335916519165;0.0;0.0;0.0
1521;-0.8271600008010864;-2.8362560272216797;1.822435975074768;-0.436271995306015;-2.7767200469970703;1.6504160165786743;-71.8550033569336;-21.551250457763672;-64.64500427246094
1523;0.0;0.0;0.0;-0.38649600744247437;-2.67521595954895;1.484495997428894;0.0;0.0;0.0
1525;0.0;0.0;0.0;-0.27718400955200195;-2.577615976333618;1.2814879417419434;0.0;0.0;0.0
1527;0.0;0.0;0.0;-0.22643199563026428;-2.456591844558716;1.1028800010681152;0.0;0.0;0.0
1529;-0.4143120050430298;-2.419991970062256;1.16485595703125;-0.15615999698638916;-2.3394720554351807;0.9359839558601379;-64.92500305175781;-97.01124572753906;-92.64500427246094
1532;0.0;0.0;0.0;-0.040991999208927155;-2.1979520320892334;0.7407839894294739;0.0;0.0;0.0
1534;0.0;0.0;0.0;0.02147199958562851;-2.05350399017334;0.6236639618873596;0.0;0.0;0.0
1536;0.0;0.0;0.0;0.09955199807882309;-1.9480959177017212;0.5143519639968872;0.0;0.0;0.0
1538;-0.09589199721813202;-1.936627984046936;0.5302119851112366;0.18055999279022217;-1.8583040237426758;0.39235198497772217;-43.505001068115234;-119.48124694824219;-116.375
1540;0.0;0.0;0.0;0.23131199181079865;-1.7177599668502808;0.29475200176239014;0.0;0.0;0.0
1542;0.0;0.0;0.0;0.30158400535583496;-1.588927984237671;0.2791360020637512;0.0;0.0;0.0
1544;0.0;0.0;0.0;0.3669759929180145;-1.5264639854431152;0.16494399309158325;0.0;0.0;0.0
1546;0.1768999993801117;-1.474247932434082;0.14225199818611145;0.43724799156188965;-1.401535987854004;0.1698240041732788;-16.69499969482422;-88.19124603271484;-132.8249969482422
1549;0.0;0.0;0.0;0.47336000204086304;-1.3283360004425049;0.15323199331760406;0.0;0.0;0.0
1551;0.0;0.0;0.0;0.5280159711837769;-1.3088159561157227;0.11224000155925751;0.0;0.0;0.0
1553;0.0;0.0;0.0;0.5084959864616394;-1.2307360172271729;0.13663999736309052;0.0;0.0;0.0
1555;0.3769800066947937;-1.1480200290679932;0.03294000029563904;0.5514400005340576;-1.1916959285736084;0.1815359890460968;7.664999961853027;-11.891250610351562;-145.4250030517578
1557;0.0;0.0;0.0;0.5202080011367798;-1.10971200466156;0.230335995554924;0.0;0.0;0.0
1559;0.0;0.0;0.0;0.47336000204086304;-0.9886879920959473;0.3230559825897217;0.0;0.0;0.0
1561;0.0;0.0;0.0;0.3640480041503906;-0.9340319633483887;0.4655520021915436;0.0;0.0;0.0
1563;0.31915199756622314;-0.8749839663505554;0.2357039898633957;0.2908479869365692;-0.8637599945068359;0.563152015209198;29.01500129699707;81.83875274658203;-157.3249969482422
1566;0.0;0.0;0.0;0.1698240041732788;-0.8247199654579163;0.708575963973999;0.0;0.0;0.0
1568;0.0;0.0;0.0;0.09662400186061859;-0.7817760109901428;0.8178879618644714;0.0;0.0;0.0
1570;0.0;0.0;0.0;-0.004879999905824661;-0.7544479966163635;0.9642879962921143;0.0;0.0;0.0
1572;-0.03367199748754501;-0.6531879901885986;0.6993039846420288;-0.08295999467372894;-0.7700639963150024;1.097999930381775;41.6150016784668;148.7587432861328;-165.3050079345703
1574;0.0;0.0;0.0;-0.1483519971370697;-0.6646559834480286;1.2453759908676147;0.0;0.0;0.0
1576;0.0;0.0;0.0;-0.2030079960823059;-0.6373279690742493;1.3420000076293945;0.0;0.0;0.0
1578;0.0;0.0;0.0;-0.26156800985336304;-0.586575984954834;1.4552159309387207;0.0;0.0;0.0
1580;-0.33183997869491577;-0.48433998227119446;1.1982840299606323;-0.3357439935207367;-0.5397279858589172;1.5489119291305542;47.005001068115234;167.44874572753906;-172.51499938964844
1583;0.0;0.0;0.0;-0.4596959948539734;-0.43432000279426575;1.6543200016021729;0.0;0.0;0.0
1585;0.0;0.0;0.0;-0.5416799783706665;-0.387472003698349;1.7031199932098389;0.0;0.0;0.0
1587;0.0;0.0;0.0;-0.5729119777679443;-0.3172000050544739;1.7685120105743408;0.0;0.0;0.0
1589;-0.6287879943847656;-0.24717199802398682;1.545740008354187;-0.611952006816864;-0.27035200595855713;1.7724159955978394;45.67499923706055;137.9087371826172;-177.2050018310547
1591;0.0;0.0;0.0;-0.6197599768638611;-0.21569599211215973;1.784127950668335;0.0;0.0;0.0
1593;0.0;0.0;0.0;-0.611952006816864;-0.1571359932422638;1.759727954864502;0.0;0.0;0.0
1595;0.0;0.0;0.0;-0.5846239924430847;-0.028303999453783035;1.759727954864502;0.0;0.0;0.0
1597;-0.7129679918289185;0.0056119998916983604;1.6311399936676025;-0.5026400089263916;0.0302559994161129;1.7314239740371704;41.96500015258789;73.50875091552734;-176.9250030517578
1600;0.0;0.0;0.0;-0.45188799500465393;0.1395680010318756;1.7158079147338867;0.0;0.0;0.0
1602;0.0;0.0;0.0;-0.3933279812335968;0.19422399997711182;1.6582239866256714;0.0;0.0;0.0
1604;0.0;0.0;0.0;-0.3630719780921936;0.29572799801826477;1.6016160249710083;0.0;0.0;0.0
1606;-0.5148400068283081;0.35648399591445923;1.5127999782562256;-0.3123199939727783;0.447983980178833;1.5450079441070557;41.755001068115234;11.488749504089355;-176.0850067138672
1608;0.0;0.0;0.0;-0.29280000925064087;0.6002399921417236;1.4757119417190552;0.0;0.0;0.0
1610;0.0;0.0;0.0;-0.1756799966096878;0.5690079927444458;1.3546879291534424;0.0;0.0;0.0
1612;0.0;0.0;0.0;-0.10638399422168732;0.6080479621887207;1.313696026802063;0.0;0.0;0.0
1614;-0.3172000050544739;0.7529839873313904;1.279047966003418;-0.11028799414634705;0.8774240016937256;1.3664000034332275;43.154998779296875;-16.231250762939453;-172.65499877929688
1617;0.0;0.0;0.0;0.009759999811649323;0.9838079810142517;1.3302879333496094;0.0;0.0;0.0
1619;0.0;0.0;0.0;-0.029279999434947968;1.073599934577942;1.2980799674987793;0.0;0.0;0.0
1621;0.0;0.0;0.0;-0.06441599875688553;1.1165440082550049;1.2570879459381104;0.0;0.0;0.0
1623;-0.15640400350093842;1.1738840341567993;1.173151969909668;-0.09174399822950363;1.2024319171905518;1.313696026802063;47.42499923706055;-12.731250762939453;-164.18499755859375
1625;0.0;0.0;0.0;-0.08393599838018417;1.3000320196151733;1.2980799674987793;0.0;0.0;0.0
1627;0.0;0.0;0.0;-0.05270399898290634;1.3546879291534424;1.3058879375457764;0.0;0.0;0.0
1629;0.0;0.0;0.0;-0.12297599762678146;1.3781119585037231;1.3019839525222778;0.0;0.0;0.0
1631;-0.20666798949241638;1.4496039152145386;1.170956015586853;-0.16884799301624298;1.370303988456726;1.2736799716949463;47.07500076293945;0.7787500619888306;-151.02500915527344
1634;0.0;0.0;0.0;-0.19910399615764618;1.4083679914474487;1.285391926765442;0.0;0.0;0.0
1636;0.0;0.0;0.0;-0.19129599630832672;1.4630240201950073;1.285391926765442;0.0;0.0;0.0
1638;0.0;0.0;0.0;-0.16787199676036835;1.5918560028076172;1.2980799674987793;0.0;0.0;0.0
1640;-0.3079279959201813;1.6296759843826294;1.1599760055541992;-0.21081599593162537;1.6582239866256714;1.309791922569275;48.755001068115234;7.078750133514404;-136.9550018310547
1642;0.0;0.0;0.0;-0.19910399615764618;1.7323999404907227;1.309791922569275;0.0;0.0;0.0
1644;0.0;0.0;0.0;-0.21081599593162537;1.7909599542617798;1.28929603099823;0.0;0.0;0.0
1646;0.0;0.0;0.0;-0.17958399653434753;1.8963679075241089;1.3176000118255615;0.0;0.0;0.0
1648;-0.30621999502182007;1.947119951248169;1.1736400127410889;-0.12199999392032623;1.9861599206924438;1.3058879375457764;54.14500045776367;-1.6012500524520874;-125.05500030517578
1651;0.0;0.0;0.0;-0.08686399459838867;2.1149919033050537;1.3019839525222778;0.0;0.0;0.0
1653;0.0;0.0;0.0;-0.0634399950504303;2.1852638721466064;1.2941759824752808;0.0;0.0;0.0
1655;0.0;0.0;0.0;-0.04391999915242195;2.3101918697357178;1.2736799716949463;0.0;0.0;0.0
1657;-0.1903200000524521;2.3431320190429688;1.161195993423462;0.006831999868154526;2.419503927230835;1.2814879417419434;59.32500076293945;-18.19124984741211;-108.39500427246094
1659;0.0;0.0;0.0;0.006831999868154526;2.5405280590057373;1.3058879375457764;0.0;0.0;0.0
1661;0.0;0.0;0.0;0.03806399926543236;2.595183849334717;1.2980799674987793;0.0;0.0;0.0
1663;0.0;0.0;0.0;0.018543999642133713;2.6654560565948486;1.2775839567184448;0.0;0.0;0.0
1665;-0.10199199616909027;2.748415946960449;1.1575360298156738;-0.028303999453783035;2.907503843307495;1.313696026802063;60.165000915527344;-29.111249923706055;-84.875
1668;0.0;0.0;0.0;0.044895999133586884;3.1622400283813477;1.2570879459381104;0.0;0.0;0.0
1670;0.0;0.0;0.0;0.27425599098205566;2.650815963745117;0.9603840112686157;0.0;0.0;0.0
1672;0.0;0.0;0.0;-0.08393599838018417;2.639103889465332;1.0696959495544434;0.0;0.0;0.0
1674;-0.10662800073623657;2.919947862625122;0.9706319570541382;-0.2000799924135208;2.4712319374084473;0.9769759774208069;52.185001373291016;-38.561248779296875;-54.21500015258789
1676;0.0;0.0;0.0;-0.040991999208927155;2.4946558475494385;0.9281759858131409;0.0;0.0;0.0
1678;0.0;0.0;0.0;0.09564799815416336;2.5805439949035645;1.0130879878997803;0.0;0.0;0.0
1680;0.0;0.0;0.0;0.39820799231529236;2.5844478607177734;0.9076799750328064;0.0;0.0;0.0
1682;-0.022204000502824783;2.703763961791992;0.8252080082893372;0.10345599800348282;2.7952640056610107;0.9925919771194458;62.40500259399414;-62.991249084472656;-37.064998626708984
1685;0.0;0.0;0.0;-0.05172799900174141;2.7474398612976074;0.9154880046844482;0.0;0.0;0.0
1687;0.0;0.0;0.0;-0.05563199892640114;2.7552478313446045;0.8754720091819763;0.0;0.0;0.0
1689;0.0;0.0;0.0;0.045871999114751816;2.876271963119507;0.8871839642524719;0.0;0.0;0.0
1691;-0.0878399983048439;2.952888011932373;0.7815319895744324;0.20495998859405518;3.0246238708496094;0.8949919939041138;64.36499786376953;-77.1312484741211;-11.9350004196167
1693;0.0;0.0;0.0;0.4304159879684448;3.0558559894561768;0.8627839684486389;0.0;0.0;0.0
1695;0.0;0.0;0.0;0.41870400309562683;3.0090079307556152;0.798367977142334;0.0;0.0;0.0
1697;0.0;0.0;0.0;0.3298879861831665;2.989487886428833;0.7934879660606384;0.0;0.0;0.0
1699;0.24692799150943756;3.148331880569458;0.6885679960250854;0.34062400460243225;3.001199960708618;0.7456640005111694;55.19499969482422;-77.48124694824219;20.26500129699707
1702;0.0;0.0;0.0;0.39137598872184753;2.99729585647583;0.7534719705581665;0.0;0.0;0.0
1704;0.0;0.0;0.0;0.3601439893245697;3.0519518852233887;0.7456640005111694;0.0;0.0;0.0
1706;0.0;0.0;0.0;0.3142719864845276;3.0129120349884033;0.6968640089035034;0.0;0.0;0.0
1708;0.21569599211215973;3.151991844177246;0.6073160171508789;0.24009600281715393;2.969967842102051;0.6724640130996704;43.3650016784668;-57.18124771118164;50.85499954223633
1710;0.0;0.0;0.0;0.22838398814201355;2.9270238876342773;0.6558719873428345;0.0;0.0;0.0
1712;0.0;0.0;0.0;0.21667200326919556;2.8684639930725098;0.6197599768638611;0.0;0.0;0.0
1714;0.0;0.0;0.0;0.16201600432395935;2.794287919998169;0.5914559960365295;0.0;0.0;0.0
1716;0.07661599665880203;2.9929039478302;0.5041040182113647;0.13859200477600098;2.7435359954833984;0.587552011013031;29.71500015258789;-41.6412467956543;85.08499908447266
1719;0.0;0.0;0.0;0.115167997777462;2.622511863708496;0.5582720041275024;0.0;0.0;0.0
1721;0.0;0.0;0.0;0.0849120020866394;2.493680000305176;0.5426560044288635;0.0;0.0;0.0
1723;0.0;0.0;0.0;0.11907199770212173;2.3921759128570557;0.5260639786720276;0.0;0.0;0.0
1725;-0.010491999797523022;2.6337358951568604;0.4172399938106537;0.049775999039411545;2.2594399452209473;0.48604798316955566;19.704999923706055;-30.37125015258789;113.9949951171875
1727;0.0;0.0;0.0;0.06929600238800049;2.1618399620056152;0.48604798316955566;0.0;0.0;0.0
1729;0.0;0.0;0.0;0.02635199949145317;2.0720479488372803;0.4694559872150421;0.0;0.0;0.0
1731;0.0;0.0;0.0;0.0029279999434947968;2.044719934463501;0.45286399126052856;0.0;0.0;0.0
1733;-0.0924759954214096;2.2265000343322754;0.35062798857688904;0.022447999566793442;1.9588319063186646;0.4333440065383911;12.845000267028809;-16.301250457763672;134.71499633789062
1736;0.0;0.0;0.0;-0.004879999905824661;1.9197919368743896;0.42846399545669556;0.0;0.0;0.0
1738;0.0;0.0;0.0;-0.01268799975514412;1.8456159830093384;0.42455998063087463;0.0;0.0;0.0
1740;0.0;0.0;0.0;0.006831999868154526;1.7753440141677856;0.4333440065383911;0.0;0.0;0.0
1742;-0.10687199980020523;1.9620039463043213;0.3123199939727783;0.0302559994161129;1.6972639560699463;0.46164798736572266;12.425000190734863;-3.0012500286102295;151.02499389648438
1744;0.0;0.0;0.0;0.006831999868154526;1.6426079273223877;0.4577440023422241;0.0;0.0;0.0
1746;0.0;0.0;0.0;0.03415999934077263;1.6152799129486084;0.4899519979953766;0.0;0.0;0.0
1748;0.0;0.0;0.0;0.0849120020866394;1.5957599878311157;0.5465599894523621;0.0;0.0;0.0
1750;-0.07539600133895874;1.7526519298553467;0.3786879777908325;0.07320000231266022;1.5528159141540527;0.6275680065155029;17.815000534057617;14.498749732971191;163.90499877929688
1753;0.0;0.0;0.0;0.03806399926543236;1.5176799297332764;0.6441599726676941;0.0;0.0;0.0
1755;0.0;0.0;0.0;0.006831999868154526;1.4669280052185059;0.7534719705581665;0.0;0.0;0.0
1757;0.0;0.0;0.0;-0.01659199967980385;1.4044640064239502;0.8022719621658325;0.0;0.0;0.0
1759;-0.11614400148391724;1.5823400020599365;0.6131719946861267;-0.07515199482440948;1.3224799633026123;0.8832799792289734;18.024999618530273;37.73875045776367;177.13499450683594
1761;0.0;0.0;0.0;-0.14444799721240997;1.256111979484558;0.9398880004882812;0.0;0.0;0.0
1763;0.0;0.0;0.0;-0.187391996383667;1.158511996269226;0.9925919771194458;0.0;0.0;0.0
1765;0.0;0.0;0.0;-0.23423999547958374;1.060912013053894;1.0745760202407837;0.0;0.0;0.0
1767;-0.3067080080509186;1.2817319631576538;0.8708359599113464;-0.24985599517822266;0.986735999584198;1.1555839776992798;7.804999828338623;50.40875244140625;189.73500061035156
1770;0.0;0.0;0.0;-0.28596800565719604;0.8744959831237793;1.1838879585266113;0.0;0.0;0.0
1772;0.0;0.0;0.0;-0.3718560039997101;0.7847039699554443;1.2326879501342773;0.0;0.0;0.0
1774;0.0;0.0;0.0;-0.4684799909591675;0.6871039867401123;1.2570879459381104;0.0;0.0;0.0
1776;-0.5099599957466125;0.9171959757804871;1.089460015296936;-0.5582720041275024;0.6090239882469177;1.3019839525222778;-8.085000038146973;43.198753356933594;195.96499633789062
1778;0.0;0.0;0.0;-0.5543680191040039;0.5192319750785828;1.2814879417419434;0.0;0.0;0.0
1780;0.0;0.0;0.0;-0.6470879912376404;0.4060159921646118;1.2814879417419434;0.0;0.0;0.0
1782;0.0;0.0;0.0;-0.6246399879455566;0.28889599442481995;1.2775839567184448;0.0;0.0;0.0
1785;-0.7319999933242798;0.5328959822654724;1.1406999826431274;-0.6353759765625;0.18348799645900726;1.2365919351577759;-23.904998779296875;8.898749351501465;196.2449951171875
1787;0.0;0.0;0.0;-0.6197599768638611;0.10833600163459778;1.2248799800872803;0.0;0.0;0.0
1789;0.0;0.0;0.0;-0.5924319624900818;0.02635199949145317;1.150704026222229;0.0;0.0;0.0
1791;0.0;0.0;0.0;-0.46750399470329285;-0.0907679945230484;1.146799921989441;0.0;0.0;0.0
1793;-0.6768559813499451;0.14591199159622192;1.048956036567688;-0.45579198002815247;-0.09857599437236786;1.1477760076522827;-33.915000915527344;-37.58124923706055;194.7050018310547
1795;0.0;0.0;0.0;-0.46750399470329285;-0.2547360062599182;1.0657919645309448;0.0;0.0;0.0
1797;0.0;0.0;0.0;-0.37088000774383545;-0.43432000279426575;1.0169919729232788;0.0;0.0;0.0
1799;0.0;0.0;0.0;-0.4596959948539734;-0.4694559872150421;1.0091840028762817;0.0;0.0;0.0
1802;-0.5665680170059204;-0.24058400094509125;0.908411979675293;-0.522159993648529;-0.6139039993286133;0.9359839558601379;-44.76499938964844;-53.75124740600586;193.93499755859375
1804;0.0;0.0;0.0;-0.5065439939498901;-0.7427359819412231;0.8627839684486389;0.0;0.0;0.0
1806;0.0;0.0;0.0;-0.48311999440193176;-0.9262239933013916;0.871567964553833;0.0;0.0;0.0
1808;0.0;0.0;0.0;-0.46750399470329285;-1.0082080364227295;0.8510719537734985;0.0;0.0;0.0
1810;-0.6046319603919983;-0.7551800012588501;0.746396005153656;-0.4870239794254303;-1.207311987876892;0.8188639879226685;-53.724998474121094;-45.561248779296875;192.88499450683594
1812;0.0;0.0;0.0;-0.5182560086250305;-1.3595679998397827;0.7817760109901428;0.0;0.0;0.0
1814;0.0;0.0;0.0;-0.522159993648529;-1.5196319818496704;0.7534719705581665;0.0;0.0;0.0
1816;0.0;0.0;0.0;-0.5494880080223083;-1.6445599794387817;0.749567985534668;0.0;0.0;0.0
1819;-0.6453799605369568;-1.3761600255966187;0.6397680044174194;-0.5299679636955261;-1.8241440057754517;0.7407839894294739;-55.19499969482422;-28.061250686645508;182.6649932861328
1821;0.0;0.0;0.0;-0.5416799783706665;-1.9178400039672852;0.7778719663619995;0.0;0.0;0.0
1823;0.0;0.0;0.0;-0.4987359941005707;-1.8944159746170044;0.8910880088806152;0.0;0.0;0.0
1825;0.0;0.0;0.0;-0.4635999798774719;-2.206735849380493;0.7856799960136414;0.0;0.0;0.0
1827;-0.6339119672775269;-1.8736759424209595;0.6961320042610168;-0.5104479789733887;-2.288719892501831;0.9320799708366394;-47.845001220703125;-5.101249694824219;162.85499572753906
1829;0.0;0.0;0.0;-0.4596959948539734;-2.362895965576172;0.9759999513626099;0.0;0.0;0.0
1831;0.0;0.0;0.0;-0.44017598032951355;-2.468303918838501;1.0296800136566162;0.0;0.0;0.0
1833;0.0;0.0;0.0;-0.42455998063087463;-2.577615976333618;1.1272799968719482;0.0;0.0;0.0
1836;-0.5785239934921265;-2.333616018295288;0.9281759858131409;-0.45579198002815247;-2.659600019454956;1.2043839693069458;-47.28499984741211;28.21875;139.8249969482422
1838;0.0;0.0;0.0;-0.41284799575805664;-2.6869280338287354;1.309791922569275;0.0;0.0;0.0
1840;0.0;0.0;0.0;-0.38942399621009827;-2.6947360038757324;1.386896014213562;0.0;0.0;0.0
1842;0.0;0.0;0.0;-0.38942399621009827;-2.7025439739227295;1.4923039674758911;0.0;0.0;0.0
1844;-0.5302119851112366;-2.561755895614624;1.2614799737930298;-0.3933279812335968;-2.7962398529052734;1.5615999698638916;-56.10499954223633;60.97875213623047;116.09500122070312
1846;0.0;0.0;0.0;-0.41284799575805664;-2.8704159259796143;1.6709120273590088;0.0;0.0;0.0
1848;0.0;0.0;0.0;-0.4596959948539734;-3.0109598636627197;1.7636319398880005;0.0;0.0;0.0
1850;0.0;0.0;0.0;-0.47921597957611084;-3.11246395111084;1.8290239572525024;0.0;0.0;0.0
1853;-0.5670560002326965;-2.862607955932617;1.614791989326477;-0.5104479789733887;-3.2491040229797363;1.8934400081634521;-72.48500061035156;82.95875549316406;91.80500030517578
1855;0.0;0.0;0.0;-0.5651040077209473;-3.3662240505218506;1.9295519590377808;0.0;0.0;0.0
1857;0.0;0.0;0.0;-0.5963360071182251;-3.4364960193634033;1.9617599248886108;0.0;0.0;0.0
1859;0.0;0.0;0.0;-0.6500160098075867;-3.5214078426361084;1.9666399955749512;0.0;0.0;0.0
1861;-0.729315996170044;-3.2803359031677246;1.8173120021820068;-0.708575963973999;-3.5135998725891113;1.9988479614257812;-85.92500305175781;73.43875122070312;60.8650016784668
1863;0.0;0.0;0.0;-0.7280960083007812;-3.5331199169158936;1.9988479614257812;0.0;0.0;0.0
1865;0.0;0.0;0.0;-0.7476159930229187;-3.5331199169158936;1.9422399997711182;0.0;0.0;0.0
1867;0.0;0.0;0.0;-0.7710399627685547;-3.470655918121338;1.8973439931869507;0.0;0.0;0.0
1870;-0.876691997051239;-3.364271879196167;1.794376015663147;-0.7554239630699158;-3.4355199337005615;1.825119972229004;-85.57500457763672;17.998748779296875;23.065000534057617
1872;0.0;0.0;0.0;-0.6773439645767212;-3.397455930709839;1.7480159997940063;0.0;0.0;0.0
1874;0.0;0.0;0.0;-0.5924319624900818;-3.303760051727295;1.6299200057983398;0.0;0.0;0.0
1876;0.0;0.0;0.0;-0.4714079797267914;-3.2881438732147217;1.4962079524993896;0.0;0.0;0.0
1878;-0.7005239725112915;-3.1859078407287598;1.4854719638824463;-0.3669759929180145;-3.1827359199523926;1.370303988456726;-78.57500457763672;-57.67124938964844;-12.704999923706055
1880;0.0;0.0;0.0;-0.2537599802017212;-3.120271921157837;1.2248799800872803;0.0;0.0;0.0
1882;0.0;0.0;0.0;-0.13761599361896515;-3.014863967895508;1.1067839860916138;0.0;0.0;0.0
1884;0.0;0.0;0.0;-0.04782399907708168;-2.917263984680176;0.9525759816169739;0.0;0.0;0.0
1887;-0.27718400955200195;-2.871392011642456;0.9723399877548218;-0.0009759999811649323;-2.8665120601654053;0.798367977142334;-69.47500610351562;-98.06124877929688;-44.55500030517578
1889;0.0;0.0;0.0;0.09662400186061859;-2.7806239128112793;0.700767993927002;0.0;0.0;0.0
1891;0.0;0.0;0.0;0.11907199770212173;-2.659600019454956;0.6031680107116699;0.0;0.0;0.0
1893;0.0;0.0;0.0;0.21276798844337463;-2.562000036239624;0.5055679678916931;0.0;0.0;0.0
1895;0.03245199844241142;-2.5239360332489014;0.4916599988937378;0.2752319872379303;-2.468303918838501;0.43724799156188965;-50.29499816894531;-88.12124633789062;-74.16500091552734
1897;0.0;0.0;0.0;0.30646398663520813;-2.3511838912963867;0.3962559998035431;0.0;0.0;0.0
1899;0.0;0.0;0.0;0.36795198917388916;-2.288719892501831;0.34355199337005615;0.0;0.0;0.0
1901;0.0;0.0;0.0;0.399183988571167;-2.1247520446777344;0.3601439893245697;0.0;0.0;0.0
1904;0.2327760010957718;-2.097912073135376;0.25863999128341675;0.4421280026435852;-1.9842079877853394;0.3640480041503906;-22.645000457763672;-43.881248474121094;-103.3550033569336
1906;0.0;0.0;0.0;0.4538399875164032;-1.8280479907989502;0.35624000430107117;0.0;0.0;0.0
1908;0.0;0.0;0.0;0.44993600249290466;-1.6601759195327759;0.42455998063087463;0.0;0.0;0.0
1910;0.0;0.0;0.0;0.44603198766708374;-1.5977119207382202;0.4899519979953766;0.0;0.0;0.0
1912;0.3172000050544739;-1.5611119270324707;0.32207998633384705;0.4108960032463074;-1.4883999824523926;0.5670560002326965;1.715000033378601;21.498748779296875;-127.1550064086914
1914;0.0;0.0;0.0;0.3835679888725281;-1.386896014213562;0.659775972366333;0.0;0.0;0.0
1916;0.0;0.0;0.0;0.4265120029449463;-1.3049119710922241;0.7212640047073364;0.0;0.0;0.0
1918;0.0;0.0;0.0;0.3640480041503906;-1.2034080028533936;0.8910880088806152;0.0;0.0;0.0
1921;0.27498799562454224;-1.1599760055541992;0.6304959654808044;0.36111998558044434;-1.1214239597320557;0.9720959663391113;12.005000114440918;87.71875;-140.03500366210938
1923;0.0;0.0;0.0;0.2898719906806946;-1.0892159938812256;1.0901919603347778;0.0;0.0;0.0
1925;0.0;0.0;0.0;0.23521599173545837;-0.9525759816169739;1.2082879543304443;0.0;0.0;0.0
1927;0.0;0.0;0.0;0.16103999316692352;-0.9057279825210571;1.3224799633026123;0.0;0.0;0.0
1929;0.10735999792814255;-0.8400920033454895;1.0743319988250732;0.08003199845552444;-0.8432639837265015;1.411296010017395;12.075000762939453;132.44874572753906;-147.31500244140625
1931;0.0;0.0;0.0;-0.01756799966096878;-0.7378559708595276;1.5528159141540527;0.0;0.0;0.0
1933;0.0;0.0;0.0;-0.08393599838018417;-0.7144320011138916;1.6338239908218384;0.0;0.0;0.0
1935;0.0;0.0;0.0;-0.20788799226284027;-0.6480640172958374;1.7392319440841675;0.0;0.0;0.0
1938;-0.22960399091243744;-0.5533919930458069;1.492792010307312;-0.27035200595855713;-0.6051200032234192;1.8046239614486694;3.9549999237060547;139.23873901367188;-151.72500610351562
1940;0.0;0.0;0.0;-0.33183997869491577;-0.586575984954834;1.8534239530563354;0.0;0.0;0.0
1942;0.0;0.0;0.0;-0.3933279812335968;-0.5514400005340576;1.8934400081634521;0.0;0.0;0.0
1944;0.0;0.0;0.0;-0.447983980178833;-0.5241119861602783;1.8973439931869507;0.0;0.0;0.0
1946;-0.5285040140151978;-0.42163199186325073;1.7328879833221436;-0.5026400089263916;-0.5045920014381409;1.8934400081634521;-9.694999694824219;97.72875213623047;-153.96499633789062
1948;0.0;0.0;0.0;-0.522159993648529;-0.47336000204086304;1.8973439931869507;0.0;0.0;0.0
1950;0.0;0.0;0.0;-0.4909279942512512;-0.4304159879684448;1.8612319231033325;0.0;0.0;0.0
1952;0.0;0.0;0.0;-0.4440799951553345;-0.37966400384902954;1.8046239614486694;0.0;0.0;0.0
1955;-0.5951159596443176;-0.28645598888397217;1.7038519382476807;-0.3786879777908325;-0.36795198917388916;1.735327959060669;-24.045000076293945;23.178749084472656;-158.23500061035156
1957;0.0;0.0;0.0;-0.3240320086479187;-0.3093920052051544;1.6221119165420532;0.0;0.0;0.0
1959;0.0;0.0;0.0;-0.2693759799003601;-0.3054879903793335;1.5167039632797241;0.0;0.0;0.0
1961;0.0;0.0;0.0;-0.2420479953289032;-0.26254400610923767;1.443503975868225;0.0;0.0;0.0
1963;-0.411871999502182;-0.15323199331760406;1.401047945022583;-0.20691199600696564;-0.1454239934682846;1.345903992652893;-32.724998474121094;-32.61124801635742;-161.10501098632812
1965;0.0;0.0;0.0;-0.15323199331760406;-0.06734399497509003;1.2736799716949463;0.0;0.0;0.0
1967;0.0;0.0;0.0;-0.08295999467372894;0.053679998964071274;1.2209759950637817;0.0;0.0;0.0
1970;0.0;0.0;0.0;-0.05172799900174141;0.1395680010318756;1.1555839776992798;0.0;0.0;0.0
1972;-0.21227999031543732;0.1698240041732788;1.09116792678833;-0.020495999604463577;0.1903200000524521;1.0901919603347778;-31.885000228881836;-45.491249084472656;-162.15499877929688
1974;0.0;0.0;0.0;-0.032207999378442764;0.1903200000524521;1.0003999471664429;0.0;0.0;0.0
1976;0.0;0.0;0.0;-0.020495999604463577;0.19812799990177155;0.9886879920959473;0.0;0.0;0.0
1978;0.0;0.0;0.0;0.0029279999434947968;0.25278398394584656;0.9681919813156128;0.0;0.0;0.0
1980;-0.14566799998283386;0.35916799306869507;0.8779119849205017;0.022447999566793442;0.3152479827404022;0.9603840112686157;-24.815000534057617;-27.431249618530273;-160.68499755859375
1982;0.0;0.0;0.0;0.022447999566793442;0.38551998138427734;0.9769759774208069;0.0;0.0;0.0
1984;0.0;0.0;0.0;0.02635199949145317;0.40113598108291626;0.9681919813156128;0.0;0.0;0.0
1986;0.0;0.0;0.0;0.022447999566793442;0.5846239924430847;1.0335839986801147;0.0;0.0;0.0
1989;-0.10101599991321564;0.6121959686279297;0.8720560073852539;-0.0009759999811649323;0.7017439603805542;1.0657919645309448;-11.164999961853027;3.71875;-158.3050079345703
1991;0.0;0.0;0.0;-0.06831999868154526;0.659775972366333;1.0247999429702759;0.0;0.0;0.0
1993;0.0;0.0;0.0;-0.14151999354362488;0.8042240142822266;1.150704026222229;0.0;0.0;0.0
1995;0.0;0.0;0.0;-0.16494399309158325;0.921343982219696;1.1916959285736084;0.0;0.0;0.0
1997;-0.2496119886636734;0.9159759879112244;0.98990797996521;-0.23131199181079865;0.8588799834251404;1.1760799884796143;1.1549999713897705;27.868749618530273;-152.84500122070312
1999;0.0;0.0;0.0;-0.2898719906806946;0.7027199864387512;1.1555839776992798;0.0;0.0;0.0
2001;0.0;0.0;0.0;-0.42163199186325073;0.8940159678459167;1.3263839483261108;0.0;0.0;0.0
2004;0.0;0.0;0.0;-0.28596800565719604;0.8588799834251404;1.2697759866714478;0.0;0.0;0.0
2006;-0.4399319887161255;0.9967399835586548;1.1128839254379272;-0.3445279896259308;1.1282559633255005;1.3546879291534424;11.9350004196167;23.388750076293945;-142.76499938964844
2008;0.0;0.0;0.0;-0.32891198992729187;0.9838079810142517;1.2531839609146118;0.0;0.0;0.0
2010;0.0;0.0;0.0;-0.36795198917388916;1.0072319507598877;1.2980799674987793;0.0;0.0;0.0
2012;0.0;0.0;0.0;-0.31329599022865295;1.0892159938812256;1.2932000160217285;0.0;0.0;0.0
2014;-0.44066399335861206;1.1775439977645874;1.16485595703125;-0.16494399309158325;1.0618879795074463;1.2492799758911133;15.36500072479248;-0.48124998807907104;-131.56500244140625
2016;0.0;0.0;0.0;-0.19227199256420135;1.0579839944839478;1.2365919351577759;0.0;0.0;0.0
2018;0.0;0.0;0.0;-0.24302399158477783;1.1126400232315063;1.1916959285736084;0.0;0.0;0.0
2021;0.0;0.0;0.0;-0.18836799263954163;1.1360639333724976;1.1672959327697754;0.0;0.0;0.0
2023;-0.3193959891796112;1.2356159687042236;1.071403980255127;-0.16494399309158325;1.1790080070495605;1.1311839818954468;16.975000381469727;-18.33125114440918;-123.44500732421875
2025;0.0;0.0;0.0;-0.10247999429702759;1.2522079944610596;1.1106879711151123;0.0;0.0;0.0
2027;0.0;0.0;0.0;-0.04391999915242195;1.345903992652893;1.097999930381775;0.0;0.0;0.0
2029;0.0;0.0;0.0;-0.04001599922776222;1.4317920207977295;1.097999930381775;0.0;0.0;0.0
2031;-0.18470799922943115;1.5062119960784912;0.982587993144989;0.08100800216197968;1.66212797164917;1.0901919603347778;23.625;-25.19124984741211;-117.0050048828125
2033;0.0;0.0;0.0;0.08100800216197968;1.810479998588562;1.1106879711151123;0.0;0.0;0.0
2035;0.0;0.0;0.0;0.09662400186061859;1.9393119812011719;1.1350879669189453;0.0;0.0;0.0
2038;0.0;0.0;0.0;0.18544000387191772;2.052527904510498;1.1555839776992798;0.0;0.0;0.0
2040;0.01268799975514412;2.056675910949707;1.0182119607925415;0.24009600281715393;2.157935857772827;1.1956000328063965;26.42500114440918;-16.161251068115234;-103.07500457763672
2042;0.0;0.0;0.0;0.2000799924135208;2.264319896697998;1.2209759950637817;0.0;0.0;0.0
2044;0.0;0.0;0.0;0.18055999279022217;2.3892478942871094;1.2082879543304443;0.0;0.0;0.0
2046;0.0;0.0;0.0;0.20398399233818054;2.4829440116882324;1.2570879459381104;0.0;0.0;0.0
2048;0.08857199549674988;2.4956319332122803;1.1067839860916138;0.1844639927148819;2.5649280548095703;1.2932000160217285;21.875;-2.791249990463257;-80.88500213623047
2050;0.0;0.0;0.0;0.16103999316692352;2.615679979324341;1.313696026802063;0.0;0.0;0.0
2052;0.0;0.0;0.0;0.11419199407100677;2.6742398738861084;1.3058879375457764;0.0;0.0;0.0
2055;0.0;0.0;0.0;0.09174399822950363;2.7015678882598877;1.2932000160217285;0.0;0.0;0.0
2057;-0.003903999924659729;2.801851987838745;1.1707119941711426;0.013663999736309052;2.740607976913452;1.2932000160217285;19.145000457763672;-7.621250152587891;-55.125
2059;0.0;0.0;0.0;-0.0331839993596077;2.732800006866455;1.28929603099823;0.0;0.0;0.0
2061;0.0;0.0;0.0;-0.10735999792814255;2.7796478271484375;1.272704005241394;0.0;0.0;0.0
2063;0.0;0.0;0.0;-0.10345599800348282;2.826495885848999;1.2082879543304443;0.0;0.0;0.0
2065;-0.17812000215053558;2.907259941101074;1.119715929031372;-0.07222399860620499;2.8460159301757812;1.1965759992599487;20.685001373291016;-44.09124755859375;-27.96500015258789
2067;0.0;0.0;0.0;-0.037087999284267426;2.927999973297119;1.1428959369659424;0.0;0.0;0.0
2069;0.0;0.0;0.0;0.04879999905824661;2.9670400619506836;1.0696959495544434;0.0;0.0;0.0
2072;0.0;0.0;0.0;0.11028799414634705;3.0529279708862305;1.0169919729232788;0.0;0.0;0.0
2074;-0.08003199845552444;3.0985560417175293;0.9406200051307678;0.1727519929409027;3.0763518810272217;0.9359839558601379;19.005001068115234;-89.10124969482422;1.15500009059906
2076;0.0;0.0;0.0;0.18934398889541626;3.1222238540649414;0.8510719537734985;0.0;0.0;0.0
2078;0.0;0.0;0.0;0.24399998784065247;3.1261279582977295;0.757375955581665;0.0;0.0;0.0
2080;0.0;0.0;0.0;0.2518079876899719;3.1339359283447266;0.6802719831466675;0.0;0.0;0.0
2082;0.0983319953083992;3.253739833831787;0.6487959623336792;0.21276798844337463;3.1222238540649414;0.5992639660835266;13.6850004196167;-105.76124572753906;35.24500274658203
2084;0.0;0.0;0.0;0.2205759882926941;3.079279899597168;0.522159993648529;0.0;0.0;0.0
2086;0.0;0.0;0.0;0.22838398814201355;3.0285279750823975;0.4694559872150421;0.0;0.0;0.0
2089;0.0;0.0;0.0;0.24399998784065247;2.973871946334839;0.41284799575805664;0.0;0.0;0.0
2091;0.11492399871349335;3.1541879177093506;0.3559959828853607;0.2596159875392914;2.9192159175872803;0.3601439893245697;11.795000076293945;-96.59124755859375;69.75499725341797
2093;0.0;0.0;0.0;0.27035200595855713;2.810879945755005;0.29475200176239014;0.0;0.0;0.0
2095;0.0;0.0;0.0;0.2664479911327362;2.736703872680664;0.2547360062599182;0.0;0.0;0.0
2097;0.0;0.0;0.0;0.2781600058078766;2.6820478439331055;0.18934398889541626;0.0;0.0;0.0
2099;0.15615999698638916;2.8694398403167725;0.12931999564170837;0.26254400610923767;2.631295919418335;0.1454239934682846;13.265000343322754;-72.58124542236328;99.08499908447266
2101;0.0;0.0;0.0;0.3211039900779724;2.553215980529785;0.11614400148391724;0.0;0.0;0.0
2103;0.0;0.0;0.0;0.3211039900779724;2.5063679218292236;0.09174399822950363;0.0;0.0;0.0
2106;0.0;0.0;0.0;0.3445279896259308;2.4009599685668945;0.08003199845552444;0.0;0.0;0.0
2108;0.2030079960823059;2.6098239421844482;-0.02147199958562851;0.3474559783935547;2.3736319541931152;0.10833600163459778;20.33500099182129;-35.901248931884766;124.98500061035156
2110;0.0;0.0;0.0;0.3474559783935547;2.244799852371216;0.0634399950504303;0.0;0.0;0.0
2112;0.0;0.0;0.0;0.35526400804519653;2.0105600357055664;0.0634399950504303;0.0;0.0;0.0
2114;0.0;0.0;0.0;0.374783992767334;2.174527883529663;0.24595199525356293;0.0;0.0;0.0
2116;0.2222839891910553;2.308727979660034;0.03635599836707115;0.2781600058078766;2.170624017715454;0.3152479827404022;32.30500030517578;18.978750228881836;147.31500244140625
2118;0.0;0.0;0.0;0.30158400535583496;2.0964479446411133;0.3474559783935547;0.0;0.0;0.0
2120;0.0;0.0;0.0;0.19227199256420135;1.9871360063552856;0.40406399965286255;0.0;0.0;0.0
2123;0.0;0.0;0.0;0.06441599875688553;1.8583040237426758;0.4655520021915436;0.0;0.0;0.0
2125;0.04050400108098984;2.0793678760528564;0.29475200176239014;-0.0878399983048439;1.6396799087524414;0.5260639786720276;37.69499969482422;74.90875244140625;166.21499633789062
2127;0.0;0.0;0.0;-0.14932799339294434;1.5655039548873901;0.6646559834480286;0.0;0.0;0.0
2129;0.0;0.0;0.0;-0.19227199256420135;1.4444799423217773;0.732975959777832;0.0;0.0;0.0
2131;0.0;0.0;0.0;-0.2117919921875;1.401535987854004;0.8266719579696655;0.0;0.0;0.0
2133;-0.3084160089492798;1.592587947845459;0.5990200042724609;-0.3211039900779724;1.2414720058441162;0.9193919897079468;40.21500015258789;97.23875427246094;182.10499572753906
2135;0.0;0.0;0.0;-0.34062400460243225;1.0501760244369507;0.9681919813156128;0.0;0.0;0.0
2137;0.0;0.0;0.0;-0.32500800490379333;0.9174399971961975;1.0335839986801147;0.0;0.0;0.0
2140;0.0;0.0;0.0;-0.3786879777908325;0.8354560136795044;1.0940959453582764;0.0;0.0;0.0
2142;-0.4682359993457794;1.0855560302734375;0.9003599882125854;-0.43724799156188965;0.7651839852333069;1.1712000370025635;35.595001220703125;86.52875518798828;191.34500122070312
2144;0.0;0.0;0.0;-0.4167519807815552;0.6666079759597778;1.2248799800872803;0.0;0.0;0.0
2146;0.0;0.0;0.0;-0.436271995306015;0.5807200074195862;1.2365919351577759;0.0;0.0;0.0
2148;0.0;0.0;0.0;-0.45579198002815247;0.4909279942512512;1.3019839525222778;0.0;0.0;0.0
2150;-0.5624200105667114;0.6951559782028198;1.1148359775543213;-0.4323679804801941;0.3777119815349579;1.338096022605896;23.83500099182129;61.538753509521484;195.40499877929688
2153;0.0;0.0;0.0;-0.4596959948539734;0.30353599786758423;1.3829920291900635;0.0;0.0;0.0
2154;0.0;0.0;0.0;-0.4596959948539734;0.15908800065517426;1.394703984260559;0.0;0.0;0.0
2157;0.0;0.0;0.0;-0.4596959948539734;0.07320000231266022;1.4151999950408936;0.0;0.0;0.0
2159;-0.5902360081672668;0.301827996969223;1.2580640316009521;-0.5065439939498901;-0.08686399459838867;1.4151999950408936;5.985000133514404;32.06875228881836;198.13499450683594
2161;0.0;0.0;0.0;-0.5104479789733887;-0.18836799263954163;1.4317920207977295;0.0;0.0;0.0
2163;0.0;0.0;0.0;-0.561199963092804;-0.3054879903793335;1.435696005821228;0.0;0.0;0.0
2165;0.0;0.0;0.0;-0.6041439771652222;-0.4304159879684448;1.4317920207977295;0.0;0.0;0.0
2167;-0.6868599653244019;-0.18592800199985504;1.2958840131759644;-0.6656320095062256;-0.586575984954834;1.419103980064392;-15.364999771118164;6.378750324249268;200.1649932861328
2170;0.0;0.0;0.0;-0.6812480092048645;-0.7388319969177246;1.394703984260559;0.0;0.0;0.0
2171;0.0;0.0;0.0;-0.7671359777450562;-0.9301279783248901;1.370303988456726;0.0;0.0;0.0
2174;0.0;0.0;0.0;-0.8871839642524719;-1.1136159896850586;1.2980799674987793;0.0;0.0;0.0
2176;-0.9142679572105408;-0.7978799939155579;1.2126799821853638;-0.9340319633483887;-1.3049119710922241;1.2404959201812744;-33.07500076293945;-16.161251068115234;198.27499389648438
2178;0.0;0.0;0.0;-1.1448479890823364;-1.4952319860458374;1.1799839735031128;0.0;0.0;0.0
2180;0.0;0.0;0.0;-1.1331360340118408;-1.7997440099716187;1.0491999387741089;0.0;0.0;0.0
2182;0.0;0.0;0.0;-1.0599359273910522;-2.076927900314331;0.9564799666404724;0.0;0.0;0.0
2184;-1.1880359649658203;-1.6748160123825073;0.9315919876098633;-0.9350079894065857;-2.3267838954925537;0.8949919939041138;-40.005001068115234;-45.98124694824219;190.9250030517578
2186;0.0;0.0;0.0;-0.8569279909133911;-2.654719829559326;0.7778719663619995;0.0;0.0;0.0
2189;0.0;0.0;0.0;-0.7368800044059753;-2.814784049987793;0.757375955581665;0.0;0.0;0.0
2191;0.0;0.0;0.0;-0.6197599768638611;-2.916287899017334;0.6968640089035034;0.0;0.0;0.0
2193;-0.8503400087356567;-2.6747279167175293;0.6356199979782104;-0.44896000623703003;-3.3379199504852295;0.6070719957351685;-33.14500045776367;-56.971248626708984;170.90499877929688
2195;0.0;0.0;0.0;-0.4177280068397522;-3.4189279079437256;0.676367998123169;0.0;0.0;0.0
2197;0.0;0.0;0.0;-0.3054879903793335;-3.555567979812622;0.659775972366333;0.0;0.0;0.0
2199;0.0;0.0;0.0;-0.18836799263954163;-3.657071828842163;0.6929599642753601;0.0;0.0;0.0
2201;-0.4294399917125702;-3.3915998935699463;0.5587599873542786;-0.1571359932422638;-3.7663838863372803;0.7368800044059753;-19.145000457763672;-0.0612499937415123;137.51499938964844
2204;0.0;0.0;0.0;-0.0878399983048439;-3.8795998096466064;0.8266719579696655;0.0;0.0;0.0
2206;0.0;0.0;0.0;-0.06831999868154526;-3.926447868347168;0.9681919813156128;0.0;0.0;0.0
2208;0.0;0.0;0.0;-0.013663999736309052;-4.035759925842285;1.0491999387741089;0.0;0.0;0.0
2210;-0.19641999900341034;-3.8032279014587402;0.8452159762382507;-0.05660799890756607;-4.1606879234313965;1.2121919393539429;-7.664999961853027;101.78874969482422;101.46499633789062
2212;0.0;0.0;0.0;-0.16396799683570862;-4.228032112121582;1.338096022605896;0.0;0.0;0.0
2214;0.0;0.0;0.0;-0.3201279938220978;-4.2709760665893555;1.5371999740600586;0.0;0.0;0.0
2216;0.0;0.0;0.0;-0.4050399959087372;-4.294399738311768;1.7070239782333374;0.0;0.0;0.0
2218;-0.4269999861717224;-4.1079840660095215;1.4066599607467651;-0.5026400089263916;-4.302207946777344;1.8690400123596191;3.744999885559082;183.47874450683594;57.435001373291016
2221;0.0;0.0;0.0;-0.5963360071182251;-4.2709760665893555;2.0027520656585693;0.0;0.0;0.0
2223;0.0;0.0;0.0;-0.6588000059127808;-4.142143726348877;2.1530559062957764;0.0;0.0;0.0
2225;0.0;0.0;0.0;-0.7202879786491394;-4.075776100158691;2.2418720722198486;0.0;0.0;0.0
2227;-0.7771399617195129;-3.9967198371887207;1.9864039421081543;-0.7241919636726379;-3.8883838653564453;2.3677759170532227;13.405000686645508;182.6387481689453;8.295000076293945
2229;0.0;0.0;0.0;-0.725167989730835;-3.7117278575897217;2.460495948791504;0.0;0.0;0.0
2231;0.0;0.0;0.0;-0.7134559750556946;-3.5750880241394043;2.529791831970215;0.0;0.0;0.0
2233;0.0;0.0;0.0;-0.7173599600791931;-3.4081919193267822;2.558095932006836;0.0;0.0;0.0
2235;-0.8632720112800598;-3.4142918586730957;2.342643976211548;-0.7720159888267517;-3.2676479816436768;2.550287961959839;13.335000991821289;106.89875030517578;-34.334999084472656
2238;0.0;0.0;0.0;-0.7563999891281128;-3.1310079097747803;2.505391836166382;0.0;0.0;0.0
2240;0.0;0.0;0.0;-0.7446879744529724;-2.9865598678588867;2.436095952987671;0.0;0.0;0.0
2242;0.0;0.0;0.0;-0.6744160056114197;-2.8850560188293457;2.3072638511657715;0.0;0.0;0.0
2244;-0.8447279930114746;-2.8621199131011963;2.244067907333374;-0.6051200032234192;-2.748415946960449;2.1491520404815674;-2.134999990463257;-3.9812498092651367;-65.06500244140625
2246;0.0;0.0;0.0;-0.472383975982666;-2.623487949371338;1.9705439805984497;0.0;0.0;0.0
2248;0.0;0.0;0.0;-0.3757599890232086;-2.5219838619232178;1.7802239656448364;0.0;0.0;0.0
2250;0.0;0.0;0.0;-0.3211039900779724;-2.4165759086608887;1.5811200141906738;0.0;0.0;0.0
2252;-0.5182560086250305;-2.382416009902954;1.641875982284546;-0.23521599173545837;-2.3150720596313477;1.370303988456726;-21.80500030517578;-102.6812515258789;-88.16500091552734
2255;0.0;0.0;0.0;-0.16884799301624298;-2.18233585357666;1.1838879585266113;0.0;0.0;0.0
2257;0.0;0.0;0.0;-0.14932799339294434;-2.05350399017334;1.0091840028762817;0.0;0.0;0.0
2259;0.0;0.0;0.0;-0.08393599838018417;-1.9168639183044434;0.8588799834251404;0.0;0.0;0.0
2261;-0.2432679980993271;-1.9141799211502075;0.9088999629020691;0.013663999736309052;-1.7646079063415527;0.7368800044059753;-33.6349983215332;-145.17124938964844;-111.61500549316406
2263;0.0;0.0;0.0;0.10735999792814255;-1.6631039381027222;0.563152015209198;0.0;0.0;0.0
2265;0.0;0.0;0.0;0.15323199331760406;-1.5186560153961182;0.4577440023422241;0.0;0.0;0.0
2267;0.0;0.0;0.0;0.2391199916601181;-1.4718079566955566;0.3601439893245697;0.0;0.0;0.0
2269;0.06270799785852432;-1.4242279529571533;0.35989999771118164;0.3601439893245697;-1.3859199285507202;0.2547360062599182;-40.494998931884766;-135.65126037597656;-130.5850067138672
2271;0.0;0.0;0.0;0.4060159921646118;-1.3000320196151733;0.18544000387191772;0.0;0.0;0.0
2274;0.0;0.0;0.0;0.5036159753799438;-1.2883199453353882;0.15323199331760406;0.0;0.0;0.0
2276;0.0;0.0;0.0;0.5231360197067261;-1.2375680208206177;0.11614400148391724;0.0;0.0;0.0
2278;0.35624000430107117;-1.1438720226287842;0.048555999994277954;0.5270400047302246;-1.1907199621200562;0.07612799853086472;-41.05500030517578;-69.57125091552734;-140.94500732421875
2280;0.0;0.0;0.0;0.5426560044288635;-1.132159948348999;0.09272000193595886;0.0;0.0;0.0
2282;0.0;0.0;0.0;0.5192319750785828;-1.0970239639282227;0.07612799853086472;0.0;0.0;0.0
2284;0.0;0.0;0.0;0.472383975982666;-1.0618879795074463;0.10052800178527832;0.0;0.0;0.0
2286;0.37844398617744446;-0.9542839527130127;-0.014639999717473984;0.4138239920139313;-1.0228480100631714;0.16494399309158325;-31.885000228881836;26.608749389648438;-152.635009765625
2289;0.0;0.0;0.0;0.3513599932193756;-0.9330559968948364;0.2420479953289032;0.0;0.0;0.0
2291;0.0;0.0;0.0;0.28596800565719604;-0.8627839684486389;0.3474559783935547;0.0;0.0;0.0
2293;0.0;0.0;0.0;0.21959999203681946;-0.7729920148849487;0.48604798316955566;0.0;0.0;0.0
2295;0.1668960005044937;-0.7110159993171692;0.24399998784065247;0.20398399233818054;-0.6558719873428345;0.6197599768638611;-11.024999618530273;107.9487533569336;-167.125
2297;0.0;0.0;0.0;0.115167997777462;-0.5709599852561951;0.708575963973999;0.0;0.0;0.0
2299;0.0;0.0;0.0;0.057583998888731;-0.4655520021915436;0.8871839642524719;0.0;0.0;0.0
2301;0.0;0.0;0.0;0.014639999717473984;-0.34062400460243225;0.9847840070724487;0.0;0.0;0.0
2303;-0.06905199587345123;-0.31744399666786194;0.7427359819412231;-0.09467199444770813;-0.2391199916601181;1.1184959411621094;8.855000495910645;151.76873779296875;-178.2550048828125
2306;0.0;0.0;0.0;-0.20691199600696564;-0.1298079937696457;1.2492799758911133;0.0;0.0;0.0
2308;0.0;0.0;0.0;-0.27718400955200195;-0.0009759999811649323;1.3263839483261108;0.0;0.0;0.0
2310;0.0;0.0;0.0;-0.3357439935207367;0.12785600125789642;1.4230079650878906;0.0;0.0;0.0
2312;-0.37624800205230713;0.15103599429130554;1.1890119314193726;-0.35916799306869507;0.24887999892234802;1.5040159225463867;17.185001373291016;149.6687469482422;-180.0749969482422
2314;0.0;0.0;0.0;-0.3474559783935547;0.2723039984703064;1.5127999782562256;0.0;0.0;0.0
2316;0.0;0.0;0.0;-0.38649600744247437;0.3386719822883606;1.5411039590835571;0.0;0.0;0.0
2318;0.0;0.0;0.0;-0.436271995306015;0.4089439809322357;1.5772159099578857;0.0;0.0;0.0
2320;-0.5072759985923767;0.48897600173950195;1.4169080257415771;-0.436271995306015;0.4596959948539734;1.5772159099578857;18.51500129699707;106.68875122070312;-173.14500427246094
2323;0.0;0.0;0.0;-0.45188799500465393;0.537775993347168;1.6299200057983398;0.0;0.0;0.0
2325;0.0;0.0;0.0;-0.42455998063087463;0.6041439771652222;1.6426079273223877;0.0;0.0;0.0
2327;0.0;0.0;0.0;-0.38259199261665344;0.6470879912376404;1.6094239950180054;0.0;0.0;0.0
2329;-0.5224040150642395;0.7212640047073364;1.4827879667282104;-0.3084160089492798;0.7134559750556946;1.6143039464950562;21.17500114440918;54.46875;-165.09500122070312
2331;0.0;0.0;0.0;-0.2654719948768616;0.7563999891281128;1.6387039422988892;0.0;0.0;0.0
2333;0.0;0.0;0.0;-0.22252799570560455;0.8188639879226685;1.5977119207382202;0.0;0.0;0.0
2335;0.0;0.0;0.0;-0.2576639950275421;0.8696159720420837;1.5567200183868408;0.0;0.0;0.0
2337;-0.35941198468208313;0.9179279804229736;1.45033597946167;-0.187391996383667;0.6861279606819153;1.4561920166015625;18.024999618530273;15.338749885559082;-157.74501037597656
2340;0.0;0.0;0.0;-0.2030079960823059;0.7876319885253906;1.5450079441070557;0.0;0.0;0.0
2342;0.0;0.0;0.0;-0.11419199407100677;0.8032479882240295;1.5001119375228882;0.0;0.0;0.0
2344;0.0;0.0;0.0;-0.10638399422168732;1.0257760286331177;1.5655039548873901;0.0;0.0;0.0
2346;-0.2810879945755005;1.009671926498413;1.4027559757232666;-0.1600639969110489;1.0335839986801147;1.5206079483032227;14.665000915527344;3.788750171661377;-151.16500854492188
2348;0.0;0.0;0.0;-0.1756799966096878;0.9594079852104187;1.4923039674758911;0.0;0.0;0.0
2350;0.0;0.0;0.0;-0.2030079960823059;1.0765279531478882;1.5371999740600586;0.0;0.0;0.0
2352;0.0;0.0;0.0;-0.14151999354362488;1.0921440124511719;1.4561920166015625;0.0;0.0;0.0
2354;-0.29816800355911255;1.1907199621200562;1.3790879249572754;-0.19129599630832672;1.1624159812927246;1.4962079524993896;4.445000171661377;3.3687500953674316;-142.2050018310547
2357;0.0;0.0;0.0;-0.1756799966096878;1.1428959369659424;1.4639999866485596;0.0;0.0;0.0
2359;0.0;0.0;0.0;-0.2030079960823059;1.256111979484558;1.4883999824523926;0.0;0.0;0.0
2361;0.0;0.0;0.0;-0.2030079960823059;1.3732320070266724;1.5040159225463867;0.0;0.0;0.0
2363;-0.3206160068511963;1.4005600214004517;1.3532239198684692;-0.1756799966096878;1.4552159309387207;1.4757119417190552;-2.694999933242798;-2.091249942779541;-133.385009765625
2365;0.0;0.0;0.0;-0.17958399653434753;1.5411039590835571;1.4639999866485596;0.0;0.0;0.0
2367;0.0;0.0;0.0;-0.10247999429702759;1.6269919872283936;1.4883999824523926;0.0;0.0;0.0
2369;0.0;0.0;0.0;-0.09467199444770813;1.7363039255142212;1.4552159309387207;0.0;0.0;0.0
2371;-0.2374119907617569;1.7660719156265259;1.3463919162750244;-0.0634399950504303;1.7987679243087769;1.4883999824523926;-8.504999160766602;-13.081250190734863;-116.72500610351562
2374;0.0;0.0;0.0;0.0029279999434947968;1.7948639392852783;1.443503975868225;0.0;0.0;0.0
2376;0.0;0.0;0.0;0.006831999868154526;1.8378080129623413;1.4317920207977295;0.0;0.0;0.0
2378;0.0;0.0;0.0;0.045871999114751816;1.857327938079834;1.419103980064392;0.0;0.0;0.0
2380;-0.11565599590539932;1.9571239948272705;1.3058879375457764;0.057583998888731;1.8260959386825562;1.4230079650878906;-14.734999656677246;-19.03125;-94.81500244140625
2382;0.0;0.0;0.0;0.03806399926543236;1.8456159830093384;1.4073920249938965;0.0;0.0;0.0
2384;0.0;0.0;0.0;0.010735999792814255;1.8339039087295532;1.3907999992370605;0.0;0.0;0.0
2386;0.0;0.0;0.0;0.018543999642133713;1.8612319231033325;1.394703984260559;0.0;0.0;0.0
2388;-0.10052800178527832;1.9781079292297363;1.2675800323486328;-0.00878399983048439;1.8729439973831177;1.419103980064392;-15.154999732971191;-21.62125015258789;-75.63500213623047
2391;0.0;0.0;0.0;-0.07515199482440948;1.8963679075241089;1.3546879291534424;0.0;0.0;0.0
