Timestamp(ms);LG-Accel x(g);LG-Accel y(g);LG-Accel z(g);HG-Accel x(g);HG-Accel y(g);HG-Accel z(g);Gyro x(dps);Gyro y(dps);Gyro z(dps)
103;0.0;0.0;0.0;0.12492799758911133;-0.895967960357666;0.8871839642524719;0.0;0.0;0.0
105;0.0;0.0;0.0;0.16787199676036835;-0.9115839600563049;0.8549759984016418;0.0;0.0;0.0
107;0.0;0.0;0.0;0.23814399540424347;-0.8998720049858093;0.8305760025978088;0.0;0.0;0.0
109;0.0;0.0;0.0;0.2654719948768616;-0.8686400055885315;0.8178879618644714;0.0;0.0;0.0
111;0.0;0.0;0.0;0.33183997869491577;-0.8764479756355286;0.7856799960136414;0.0;0.0;0.0
114;0.0;0.0;0.0;0.3386719822883606;-0.8305760025978088;0.7671359777450562;0.0;0.0;0.0
116;0.0;0.0;0.0;0.350383996963501;-0.8149600028991699;0.7388319969177246;0.0;0.0;0.0
118;0.0;0.0;0.0;0.3659999966621399;-0.7837280035018921;0.7271199822425842;0.0;0.0;0.0
120;0.22155199944972992;-0.6766119599342346;0.6304959654808044;0.350383996963501;-0.7524960041046143;0.7271199822425842;0.0;0.0;0.0
122;0.0;0.0;0.0;0.33086398243904114;-0.725167989730835;0.7066239714622498;0.0;0.0;0.0
124;0.0;0.0;0.0;0.33476799726486206;-0.7056480050086975;0.7066239714622498;0.0;0.0;0.0
126;0.0;0.0;0.0;0.30353599786758423;-0.7173599600791931;0.7144320011138916;0.0;0.0;0.0
128;0.20666798949241638;-0.5860880017280579;0.5870639681816101;0.29572799801826477;-0.709551990032196;0.6988160014152527;0.0;0.0;0.0
131;0.0;0.0;0.0;0.29572799801826477;-0.7134559750556946;0.6861279606819153;0.0;0.0;0.0
133;0.0;0.0;0.0;0.2996319830417633;-0.725167989730835;0.7066239714622498;0.0;0.0;0.0
135;0.0;0.0;0.0;0.30353599786758423;-0.7134559750556946;0.7310239672660828;0.0;0.0;0.0
137;0.19056399166584015;-0.5856000185012817;0.589747965335846;0.29182398319244385;-0.7681120038032532;0.7310239672660828;0.0;0.0;0.0
139;0.0;0.0;0.0;0.26449599862098694;-0.7642079591751099;0.7554239630699158;0.0;0.0;0.0
141;0.0;0.0;0.0;0.2332639992237091;-0.7603039741516113;0.7837280035018921;0.0;0.0;0.0
143;0.0;0.0;0.0;0.15908800065517426;-0.7563999891281128;0.8159359693527222;0.0;0.0;0.0
145;0.08808399736881256;-0.6339119672775269;0.6634359955787659;0.13176000118255615;-0.7954399585723877;0.8891359567642212;0.0;0.0;0.0
148;0.0;0.0;0.0;0.11614400148391724;-0.7837280035018921;0.9057279825210571;0.0;0.0;0.0
150;0.0;0.0;0.0;0.062463998794555664;-0.7368800044059753;0.9545279741287231;0.0;0.0;0.0
152;0.0;0.0;0.0;0.054655998945236206;-0.6744160056114197;1.0150399208068848;0.0;0.0;0.0
154;-0.0424560010433197;-0.5921880006790161;0.8256959915161133;0.062463998794555664;-0.6548959612846375;1.0228480100631714;0.0;0.0;0.0
156;0.0;0.0;0.0;0.03903999924659729;-0.6431840062141418;1.0394400358200073;0.0;0.0;0.0
158;0.0;0.0;0.0;0.04684799909591675;-0.5924319624900818;1.0843359231948853;0.0;0.0;0.0
160;0.0;0.0;0.0;0.058559998869895935;-0.5533919930458069;1.0794559717178345;0.0;0.0;0.0
162;-0.0634399950504303;-0.4543280005455017;0.9335439801216125;0.0663679987192154;-0.5260639786720276;1.0794559717178345;13.794374465942383;41.86000061035156;-7.035000324249268
165;0.0;0.0;0.0;0.07027199864387512;-0.4596959948539734;1.0960479974746704;0.0;0.0;0.0
167;0.0;0.0;0.0;0.07807999849319458;-0.4323679804801941;1.0882400274276733;0.0;0.0;0.0
169;0.0;0.0;0.0;0.12004800140857697;-0.38942399621009827;1.0960479974746704;0.0;0.0;0.0
171;-0.026108000427484512;-0.289139986038208;0.957211971282959;0.14347200095653534;-0.35819199681282043;1.0843359231948853;19.53437614440918;16.59000015258789;-5.775000095367432
173;0.0;0.0;0.0;0.15518400073051453;-0.2996319830417633;1.0794559717178345;0.0;0.0;0.0
175;0.0;0.0;0.0;0.1903200000524521;-0.2449759989976883;1.0677440166473389;0.0;0.0;0.0
177;0.0;0.0;0.0;0.2332639992237091;-0.20203199982643127;1.0599359273910522;0.0;0.0;0.0
179;0.07149200141429901;-0.115167997777462;0.9318360090255737;0.2176479995250702;-0.14737600088119507;1.051151990890503;21.774375915527344;-5.039999961853027;-2.06499981880188
182;0.0;0.0;0.0;0.2332639992237091;-0.13176000118255615;1.02675199508667;0.0;0.0;0.0
184;0.0;0.0;0.0;0.2449759989976883;-0.11614400148391724;0.9740479588508606;0.0;0.0;0.0
186;0.0;0.0;0.0;0.28011199831962585;-0.11224000155925751;0.9584319591522217;0.0;0.0;0.0
188;0.1495719999074936;0.02122800052165985;0.8583920001983643;0.30353599786758423;-0.07320000231266022;0.921343982219696;17.71437644958496;-17.56999969482422;4.654999732971191
190;0.0;0.0;0.0;0.33769598603248596;-0.11614400148391724;0.9057279825210571;0.0;0.0;0.0
192;0.0;0.0;0.0;0.3113439977169037;-0.13566400110721588;0.8569279909133911;0.0;0.0;0.0
194;0.0;0.0;0.0;0.28011199831962585;-0.1903200000524521;0.8774240016937256;0.0;0.0;0.0
196;0.1803160011768341;-0.01634800061583519;0.7600600123405457;0.24887999892234802;-0.20203199982643127;0.8852319717407227;10.9243745803833;-16.51999855041504;10.675000190734863
199;0.0;0.0;0.0;0.23716799914836884;-0.24887999892234802;0.896943986415863;0.0;0.0;0.0
201;0.0;0.0;0.0;0.205935999751091;-0.2566879987716675;0.896943986415863;0.0;0.0;0.0
203;0.0;0.0;0.0;0.18641600012779236;-0.2996319830417633;0.9545279741287231;0.0;0.0;0.0
205;0.08735200017690659;-0.1315159946680069;0.7927559614181519;0.1395680010318756;-0.30353599786758423;0.9662399888038635;0.6343749761581421;14.140000343322754;6.335000038146973
207;0.0;0.0;0.0;0.1239520013332367;-0.3425759971141815;0.9584319591522217;0.0;0.0;0.0
209;0.0;0.0;0.0;0.12004800140857697;-0.3269599974155426;0.9945439696311951;0.0;0.0;0.0
211;0.0;0.0;0.0;0.08979199826717377;-0.3152479827404022;1.0111359357833862;0.0;0.0;0.0
214;-0.007075999863445759;-0.2071560025215149;0.8664439916610718;0.062463998794555664;-0.35819199681282043;1.0111359357833862;-11.895625114440918;45.220001220703125;-3.184999942779541
216;0.0;0.0;0.0;0.058559998869895935;-0.38942399621009827;1.0072319507598877;0.0;0.0;0.0
218;0.0;0.0;0.0;0.03903999924659729;-0.40113598108291626;0.9701439738273621;0.0;0.0;0.0
220;0.0;0.0;0.0;0.03513599932193756;-0.40113598108291626;0.937936007976532;0.0;0.0;0.0
222;-0.06880799680948257;-0.25693199038505554;0.8491199612617493;0.07027199864387512;-0.4167519807815552;0.9945439696311951;-11.965624809265137;43.33000183105469;-5.775000095367432
224;0.0;0.0;0.0;0.09759999811649323;-0.4089439809322357;0.9828319549560547;0.0;0.0;0.0
226;0.0;0.0;0.0;0.1786080002784729;-0.447983980178833;0.9828319549560547;0.0;0.0;0.0
228;0.0;0.0;0.0;0.19422399997711182;-0.4987359941005707;0.9545279741287231;0.0;0.0;0.0
230;0.040991999208927155;-0.32720398902893066;0.8359439969062805;0.19422399997711182;-0.4870239794254303;0.9545279741287231;1.8943750858306885;24.71000099182129;-4.865000247955322
233;0.0;0.0;0.0;0.1815359890460968;-0.5104479789733887;0.9018239974975586;0.0;0.0;0.0
235;0.0;0.0;0.0;0.236191987991333;-0.4714079797267914;0.87254399061203;0.0;0.0;0.0
237;0.0;0.0;0.0;0.3337920010089874;-0.4753119945526123;0.8813279867172241;0.0;0.0;0.0
239;0.14932799339294434;-0.3408679962158203;0.7544479966163635;0.35624000430107117;-0.436271995306015;0.8286240100860596;18.764375686645508;14.630000114440918;-5.005000114440918
241;0.0;0.0;0.0;0.39528000354766846;-0.4167519807815552;0.8247199654579163;0.0;0.0;0.0
243;0.0;0.0;0.0;0.3757599890232086;-0.37380799651145935;0.8003199696540833;0.0;0.0;0.0
245;0.0;0.0;0.0;0.35233598947525024;-0.4089439809322357;0.8364319801330566;0.0;0.0;0.0
247;0.2391199916601181;-0.27083998918533325;0.6963759660720825;0.3416000008583069;-0.38942399621009827;0.8442400097846985;38.50437545776367;25.970001220703125;-8.925000190734863
250;0.0;0.0;0.0;0.3542879819869995;-0.31915199756622314;0.9135359525680542;0.0;0.0;0.0
252;0.0;0.0;0.0;0.3386719822883606;-0.28011199831962585;0.9584319591522217;0.0;0.0;0.0
254;0.0;0.0;0.0;0.3230559825897217;-0.2176479995250702;1.02675199508667;0.0;0.0;0.0
256;0.2100839912891388;-0.1471319943666458;0.8356999754905701;0.28011199831962585;-0.17470400035381317;1.0599359273910522;52.92437744140625;70.20999908447266;-20.755001068115234
258;0.0;0.0;0.0;0.260591983795166;-0.13176000118255615;1.1448479890823364;0.0;0.0;0.0
260;0.0;0.0;0.0;0.22545599937438965;-0.03806399926543236;1.180959939956665;0.0;0.0;0.0
262;0.0;0.0;0.0;0.17080000042915344;0.04782399907708168;1.2502559423446655;0.0;0.0;0.0
265;0.10491999983787537;0.09223199635744095;1.0555440187454224;0.15518400073051453;0.08686399459838867;1.3390719890594482;57.68437576293945;114.80000305175781;-30.764999389648438
267;0.0;0.0;0.0;0.14737600088119507;0.2000799924135208;1.3761600255966187;0.0;0.0;0.0
269;0.0;0.0;0.0;0.12785600125789642;0.23131199181079865;1.3878719806671143;0.0;0.0;0.0
271;0.0;0.0;0.0;0.08979199826717377;0.28596800565719604;1.4571679830551147;0.0;0.0;0.0
273;-0.00634399987757206;0.3606320023536682;1.2761199474334717;0.0663679987192154;0.3328160047531128;1.4854719638824463;58.524375915527344;128.8699951171875;-28.17500114440918
275;0.0;0.0;0.0;0.058559998869895935;0.35624000430107117;1.5352479219436646;0.0;0.0;0.0
277;0.0;0.0;0.0;0.054655998945236206;0.39137598872184753;1.5713599920272827;0.0;0.0;0.0
279;0.0;0.0;0.0;0.058559998869895935;0.3757599890232086;1.5752639770507812;0.0;0.0;0.0
282;-0.06588000059127808;0.5087400078773499;1.4198359251022339;0.015615999698638916;0.3835679888725281;1.6035679578781128;60.9743766784668;119.9800033569336;-16.485000610351562
284;0.0;0.0;0.0;-0.020495999604463577;0.3757599890232086;1.6728639602661133;0.0;0.0;0.0
286;0.0;0.0;0.0;-0.07124799489974976;0.35233598947525024;1.6845759153366089;0.0;0.0;0.0
288;0.0;0.0;0.0;-0.15615999698638916;0.35624000430107117;1.7333760261535645;0.0;0.0;0.0
290;-0.2130119949579239;0.4950760006904602;1.5554999113082886;-0.230335995554924;0.3601439893245697;1.7899839878082275;65.03437042236328;103.04000091552734;-5.005000114440918
292;0.0;0.0;0.0;-0.3123199939727783;0.35233598947525024;1.834879994392395;0.0;0.0;0.0
294;0.0;0.0;0.0;-0.3123199939727783;0.33671998977661133;1.875872015953064;0.0;0.0;0.0
296;0.0;0.0;0.0;-0.3630719780921936;0.3445279896259308;1.900272011756897;0.0;0.0;0.0
299;-0.4455440044403076;0.48507198691368103;1.7214199304580688;-0.3786879777908325;0.3757599890232086;1.9197919368743896;56.774375915527344;83.30000305175781;-4.305000305175781
301;0.0;0.0;0.0;-0.3962559998035431;0.3640480041503906;1.92467200756073;0.0;0.0;0.0
303;0.0;0.0;0.0;-0.3972319960594177;0.3757599890232086;1.932479977607727;0.0;0.0;0.0
305;0.0;0.0;0.0;-0.41967999935150146;0.3640480041503906;1.883679986000061;0.0;0.0;0.0
307;-0.5341159701347351;0.5041040182113647;1.775831937789917;-0.4274879992008209;0.35233598947525024;1.867087960243225;36.05437469482422;55.09000015258789;-11.654999732971191
309;0.0;0.0;0.0;-0.4001599848270416;0.35233598947525024;1.8553760051727295;0.0;0.0;0.0
311;0.0;0.0;0.0;-0.411871999502182;0.32891198992729187;1.859279990196228;0.0;0.0;0.0
313;0.0;0.0;0.0;-0.3816159963607788;0.32891198992729187;1.8270719051361084;0.0;0.0;0.0
316;-0.5184999704360962;0.46799197793006897;1.7077559232711792;-0.3777119815349579;0.3093920052051544;1.7948639392852783;19.744375228881836;23.59000015258789;-20.264999389648438
318;0.0;0.0;0.0;-0.3699039816856384;0.30158400535583496;1.7704639434814453;0.0;0.0;0.0
320;0.0;0.0;0.0;-0.3699039816856384;0.3211039900779724;1.708975911140442;0.0;0.0;0.0
322;0.0;0.0;0.0;-0.3269599974155426;0.3054879903793335;1.6689599752426147;0.0;0.0;0.0
324;-0.47457998991012573;0.44896000623703003;1.5767279863357544;-0.30353599786758423;0.33671998977661133;1.6279679536819458;13.58437442779541;-9.869999885559082;-25.235000610351562
326;0.0;0.0;0.0;-0.25278398394584656;0.3172000050544739;1.5752639770507812;0.0;0.0;0.0
328;0.0;0.0;0.0;-0.22545599937438965;0.32891198992729187;1.5108479261398315;0.0;0.0;0.0
330;0.0;0.0;0.0;-0.18251200020313263;0.3484320044517517;1.4454560279846191;0.0;0.0;0.0
333;-0.3530679941177368;0.47628799080848694;1.3812839984893799;-0.20203199982643127;0.3757599890232086;1.4005600214004517;12.744375228881836;-42.06999969482422;-27.05500030517578
335;0.0;0.0;0.0;-0.1454239934682846;0.3757599890232086;1.3429759740829468;0.0;0.0;0.0
337;0.0;0.0;0.0;-0.0907679945230484;0.387472003698349;1.278559923171997;0.0;0.0;0.0
339;0.0;0.0;0.0;-0.06734399497509003;0.40699198842048645;1.2092639207839966;0.0;0.0;0.0
341;-0.21740399301052094;0.5150839686393738;1.1558279991149902;-0.0009759999811649323;0.4147999882698059;1.1614400148391724;13.724374771118164;-56.0;-28.03499984741211
343;0.0;0.0;0.0;0.010735999792814255;0.3835679888725281;1.1126400232315063;0.0;0.0;0.0
345;0.0;0.0;0.0;0.08100800216197968;0.4265120029449463;1.0677440166473389;0.0;0.0;0.0
347;0.0;0.0;0.0;0.09662400186061859;0.43432000279426575;1.0394400358200073;0.0;0.0;0.0
350;-0.054899998009204865;0.5602239966392517;0.9552599787712097;0.14640000462532043;0.4655520021915436;1.0033279657363892;16.80437660217285;-55.720001220703125;-25.094999313354492
352;0.0;0.0;0.0;0.18251200020313263;0.4811680018901825;0.945743978023529;0.0;0.0;0.0
354;0.0;0.0;0.0;0.19422399997711182;0.5123999714851379;0.896943986415863;0.0;0.0;0.0
356;0.0;0.0;0.0;0.21374399960041046;0.5084959864616394;0.8159359693527222;0.0;0.0;0.0
358;0.07466399669647217;0.6173200011253357;0.7607919573783875;0.25278398394584656;0.48507198691368103;0.7759199738502502;21.004375457763672;-47.18000030517578;-16.764999389648438
360;0.0;0.0;0.0;0.2996319830417633;0.5202080011367798;0.7427359819412231;0.0;0.0;0.0
362;0.0;0.0;0.0;0.36502400040626526;0.5319200158119202;0.7388319969177246;0.0;0.0;0.0
364;0.0;0.0;0.0;0.3962559998035431;0.5163040161132812;0.7310239672660828;0.0;0.0;0.0
367;0.2252119928598404;0.6461119651794434;0.6217119693756104;0.3806400001049042;0.5319200158119202;0.7515199780464172;33.18437576293945;-22.119998931884766;-7.24500036239624
369;0.0;0.0;0.0;0.3337920010089874;0.48507198691368103;0.7593280076980591;0.0;0.0;0.0
371;0.0;0.0;0.0;0.3025600016117096;0.4772639870643616;0.7720159888267517;0.0;0.0;0.0
373;0.0;0.0;0.0;0.22838398814201355;0.4928799867630005;0.8120319843292236;0.0;0.0;0.0
375;0.1727519929409027;0.6365959644317627;0.6717320084571838;0.18544000387191772;0.5319200158119202;0.8735199570655823;44.524375915527344;18.270000457763672;3.115000009536743
377;0.0;0.0;0.0;0.10443200170993805;0.5241119861602783;0.9545279741287231;0.0;0.0;0.0
379;0.0;0.0;0.0;0.006831999868154526;0.5709599852561951;0.9701439738273621;0.0;0.0;0.0
381;0.0;0.0;0.0;-0.024399999529123306;0.5787680149078369;1.0228480100631714;0.0;0.0;0.0
384;-0.08173999935388565;0.6980839967727661;0.8576599955558777;-0.05563199892640114;0.5943840146064758;1.0882400274276733;44.454376220703125;58.45000076293945;5.84499979019165
386;0.0;0.0;0.0;-0.0936959981918335;0.6295199990272522;1.124351978302002;0.0;0.0;0.0
388;0.0;0.0;0.0;-0.09759999811649323;0.6256160140037537;1.1614400148391724;0.0;0.0;0.0
390;0.0;0.0;0.0;-0.11321599781513214;0.6451359987258911;1.2258559465408325;0.0;0.0;0.0
392;-0.21545200049877167;0.749567985534668;1.0335839986801147;-0.08588799834251404;0.6334239840507507;1.246351957321167;39.134376525878906;71.88999938964844;7.525000095367432
394;0.0;0.0;0.0;-0.0663679987192154;0.6451359987258911;1.270751953125;0.0;0.0;0.0
396;0.0;0.0;0.0;-0.09759999811649323;0.6451359987258911;1.2863680124282837;0.0;0.0;0.0
398;0.0;0.0;0.0;-0.11321599781513214;0.6646559834480286;1.30295991897583;0.0;0.0;0.0
401;-0.2193560004234314;0.7812879681587219;1.150704026222229;-0.11711999773979187;0.6880800127983093;1.30295991897583;37.17437744140625;56.21000289916992;14.175000190734863
403;0.0;0.0;0.0;-0.15615999698638916;0.6880800127983093;1.278559923171997;0.0;0.0;0.0
405;0.0;0.0;0.0;-0.14932799339294434;0.7232159972190857;1.278559923171997;0.0;0.0;0.0
407;0.0;0.0;0.0;-0.16396799683570862;0.7115039825439453;1.2258559465408325;0.0;0.0;0.0
409;-0.2583959996700287;0.8254519701004028;1.1231319904327393;-0.13761599361896515;0.6568480134010315;1.2014559507369995;38.08437728881836;23.940000534057617;22.78499984741211
411;0.0;0.0;0.0;-0.1180959939956665;0.6724640130996704;1.2092639207839966;0.0;0.0;0.0
413;0.0;0.0;0.0;-0.05953599885106087;0.6412320137023926;1.180959939956665;0.0;0.0;0.0
415;0.0;0.0;0.0;0.0029279999434947968;0.6490399837493896;1.156559944152832;0.0;0.0;0.0
418;-0.17177599668502808;0.774944007396698;1.0472480058670044;-0.0009759999811649323;0.6139039993286133;1.1282559633255005;41.09437561035156;-1.2599999904632568;28.524999618530273
420;0.0;0.0;0.0;0.010735999792814255;0.5592479705810547;1.1204479932785034;0.0;0.0;0.0
422;0.0;0.0;0.0;-0.04001599922776222;0.5241119861602783;1.1038559675216675;0.0;0.0;0.0
424;0.0;0.0;0.0;-0.04001599922776222;0.5319200158119202;1.1165440082550049;0.0;0.0;0.0
426;-0.12712399661540985;0.6846640110015869;0.9872239828109741;0.018543999642133713;0.5358240008354187;1.0960479974746704;38.2243766784668;-5.25;33.07500076293945
428;0.0;0.0;0.0;-0.01268799975514412;0.5045920014381409;1.0882400274276733;0.0;0.0;0.0
430;0.0;0.0;0.0;0.02635199949145317;0.5163040161132812;1.0921440124511719;0.0;0.0;0.0
432;0.0;0.0;0.0;-0.00878399983048439;0.48507198691368103;1.0921440124511719;0.0;0.0;0.0
435;-0.12004800140857697;0.6356199979782104;0.965507984161377;-0.03611199930310249;0.48897600173950195;1.099951982498169;30.454376220703125;-1.540000081062317;36.85499954223633
437;0.0;0.0;0.0;-0.027327999472618103;0.4421280026435852;1.1204479932785034;0.0;0.0;0.0
439;0.0;0.0;0.0;-0.05075199902057648;0.4382239878177643;1.124351978302002;0.0;0.0;0.0
441;0.0;0.0;0.0;-0.07027199864387512;0.4694559872150421;1.1526559591293335;0.0;0.0;0.0
443;-0.1786080002784729;0.5926759839057922;1.0033279657363892;-0.07417599856853485;0.4928799867630005;1.1614400148391724;17.084375381469727;2.0999999046325684;38.95500183105469
445;0.0;0.0;0.0;-0.10150399804115295;0.4967840015888214;1.1692479848861694;0.0;0.0;0.0
447;0.0;0.0;0.0;-0.07417599856853485;0.48897600173950195;1.1936479806900024;0.0;0.0;0.0
450;0.0;0.0;0.0;-0.08979199826717377;0.4772639870643616;1.148751974105835;0.0;0.0;0.0
452;-0.20788799226284027;0.6185399889945984;1.042367935180664;-0.08979199826717377;0.46164798736572266;1.1770559549331665;-4.405625343322754;-0.14000001549720764;42.314998626708984
454;0.0;0.0;0.0;-0.0663679987192154;0.43432000279426575;1.165343999862671;0.0;0.0;0.0
456;0.0;0.0;0.0;-0.054655998945236206;0.3718560039997101;1.1448479890823364;0.0;0.0;0.0
458;0.0;0.0;0.0;-0.011711999773979187;0.3445279896259308;1.180959939956665;0.0;0.0;0.0
460;-0.17128799855709076;0.5150839686393738;1.0348039865493774;-0.04684799909591675;0.29767999053001404;1.1848639249801636;-27.295623779296875;1.9600000381469727;46.79499816894531
462;0.0;0.0;0.0;-0.031231999397277832;0.2664479911327362;1.189743995666504;0.0;0.0;0.0
464;0.0;0.0;0.0;-0.054655998945236206;0.23521599173545837;1.1848639249801636;0.0;0.0;0.0
467;0.0;0.0;0.0;-0.07417599856853485;0.16103999316692352;1.197551965713501;0.0;0.0;0.0
469;-0.18861199915409088;0.3508719801902771;1.062619924545288;-0.09759999811649323;0.10638399422168732;1.2258559465408325;-42.205623626708984;13.230000495910645;50.435001373291016
471;0.0;0.0;0.0;-0.08979199826717377;0.05172799900174141;1.2502559423446655;0.0;0.0;0.0
473;0.0;0.0;0.0;-0.14444799721240997;-0.0029279999434947968;1.2658720016479492;0.0;0.0;0.0
475;0.0;0.0;0.0;-0.12883199751377106;-0.053679998964071274;1.2941759824752808;0.0;0.0;0.0
477;-0.23814399540424347;0.12785600125789642;1.13264799118042;-0.17080000042915344;-0.15518400073051453;1.2990559339523315;-50.25562286376953;11.899999618530273;54.845001220703125
479;0.0;0.0;0.0;-0.14347200095653534;-0.17080000042915344;1.30295991897583;0.0;0.0;0.0
481;0.0;0.0;0.0;-0.1512800008058548;-0.2176479995250702;1.270751953125;0.0;0.0;0.0
484;0.0;0.0;0.0;-0.18251200020313263;-0.2566879987716675;1.229759931564331;0.0;0.0;0.0
486;-0.2798680067062378;-0.07295599579811096;1.1475319862365723;-0.15225599706172943;-0.2879199981689453;1.2424479722976685;-54.87562561035156;-3.7799999713897705;56.665000915527344
488;0.0;0.0;0.0;-0.11711999773979187;-0.33086398243904114;1.1848639249801636;0.0;0.0;0.0
490;0.0;0.0;0.0;-0.0936959981918335;-0.350383996963501;1.1448479890823364;0.0;0.0;0.0
492;0.0;0.0;0.0;-0.031231999397277832;-0.41284799575805664;1.0882400274276733;0.0;0.0;0.0
494;-0.20642399787902832;-0.2437559962272644;1.006011962890625;0.007807999849319458;-0.4714079797267914;1.0394400358200073;-50.25562286376953;-32.20000076293945;59.1150016784668
496;0.0;0.0;0.0;0.054655998945236206;-0.5143519639968872;0.9906399846076965;0.0;0.0;0.0
498;0.0;0.0;0.0;0.11614400148391724;-0.5494880080223083;0.9584319591522217;0.0;0.0;0.0
501;0.0;0.0;0.0;0.11321599781513214;-0.6158559918403625;0.896943986415863;0.0;0.0;0.0
503;-0.01634800061583519;-0.427731990814209;0.831063985824585;0.1395680010318756;-0.6431840062141418;0.896943986415863;-36.395626068115234;-52.21999740600586;63.45500183105469
505;0.0;0.0;0.0;0.1239520013332367;-0.6588000059127808;0.8891359567642212;0.0;0.0;0.0
507;0.0;0.0;0.0;0.11614400148391724;-0.6588000059127808;0.8813279867172241;0.0;0.0;0.0
509;0.0;0.0;0.0;0.0936959981918335;-0.6353759765625;0.8774240016937256;0.0;0.0;0.0
511;-0.013663999736309052;-0.5048359632492065;0.7598159909248352;0.08979199826717377;-0.6236639618873596;0.8813279867172241;-26.735624313354492;-45.63999938964844;64.08500671386719
513;0.0;0.0;0.0;0.10833600163459778;-0.5768159627914429;0.8891359567642212;0.0;0.0;0.0
515;0.0;0.0;0.0;0.14737600088119507;-0.6002399921417236;0.8608319759368896;0.0;0.0;0.0
518;0.0;0.0;0.0;0.1668960005044937;-0.6588000059127808;0.8608319759368896;0.0;0.0;0.0
520;0.013175999745726585;-0.49410000443458557;0.7446879744529724;0.1903200000524521;-0.6861279606819153;0.8774240016937256;-30.235624313354492;-28.69999885559082;61.98500061035156
522;0.0;0.0;0.0;0.18251200020313263;-0.7017439603805542;0.8608319759368896;0.0;0.0;0.0
524;0.0;0.0;0.0;0.19812799990177155;-0.725167989730835;0.8774240016937256;0.0;0.0;0.0
526;0.0;0.0;0.0;0.2449759989976883;-0.8383839726448059;0.8647359609603882;0.0;0.0;0.0
528;0.08930400013923645;-0.6146360039710999;0.7451759576797485;0.19422399997711182;-0.7837280035018921;0.9340319633483887;-37.37562561035156;-6.579999923706055;62.19499969482422
530;0.0;0.0;0.0;0.10443200170993805;-0.8539999723434448;0.9135359525680542;0.0;0.0;0.0
532;0.0;0.0;0.0;0.15518400073051453;-0.8461920022964478;0.9545279741287231;0.0;0.0;0.0
535;0.0;0.0;0.0;0.14347200095653534;-0.8813279867172241;0.9828319549560547;0.0;0.0;0.0
537;0.020495999604463577;-0.7341960072517395;0.8300879597663879;0.058559998869895935;-0.9711199998855591;0.9662399888038635;-41.71562576293945;14.0;63.314998626708984
539;0.0;0.0;0.0;0.07710400223731995;-1.0921440124511719;0.9828319549560547;0.0;0.0;0.0
541;0.0;0.0;0.0;0.02635199949145317;-1.0491999387741089;1.0150399208068848;0.0;0.0;0.0
543;0.0;0.0;0.0;0.04196799919009209;-1.099951982498169;1.0638400316238403;0.0;0.0;0.0
545;-0.07295599579811096;-0.9528200030326843;0.88401198387146;0.06148799881339073;-1.1546080112457275;1.0599359273910522;-43.045623779296875;21.98000144958496;63.94499969482422
547;0.0;0.0;0.0;0.045871999114751816;-1.189743995666504;1.051151990890503;0.0;0.0;0.0
549;0.0;0.0;0.0;0.02635199949145317;-1.2170720100402832;1.0843359231948853;0.0;0.0;0.0
552;0.0;0.0;0.0;0.018543999642133713;-1.2522079944610596;1.0394400358200073;0.0;0.0;0.0
554;-0.0954039990901947;-1.083359956741333;0.9345200061798096;0.018543999642133713;-1.2990559339523315;1.051151990890503;-36.955623626708984;11.40999984741211;63.03499984741211
556;0.0;0.0;0.0;0.053679998964071274;-1.3107680082321167;1.1165440082550049;0.0;0.0;0.0
558;0.0;0.0;0.0;0.045871999114751816;-1.3498079776763916;1.075551986694336;0.0;0.0;0.0
560;0.0;0.0;0.0;0.03415999934077263;-1.338096022605896;1.099951982498169;0.0;0.0;0.0
562;-0.08295999467372894;-1.2051160335540771;0.9584319591522217;0.010735999792814255;-1.3654239177703857;1.0677440166473389;-29.045623779296875;-7.210000038146973;62.125
564;0.0;0.0;0.0;-0.01268799975514412;-1.4122719764709473;1.0472480058670044;0.0;0.0;0.0
566;0.0;0.0;0.0;-0.032207999378442764;-1.4395999908447266;1.0677440166473389;0.0;0.0;0.0
569;0.0;0.0;0.0;0.018543999642133713;-1.4981600046157837;1.0638400316238403;0.0;0.0;0.0
571;-0.13078400492668152;-1.315403938293457;0.933788001537323;0.0029279999434947968;-1.525488018989563;1.0316319465637207;-28.485624313354492;-15.329999923706055;54.28499984741211
573;0.0;0.0;0.0;0.011711999773979187;-1.5918560028076172;1.0433440208435059;0.0;0.0;0.0
575;0.0;0.0;0.0;0.04294399917125702;-1.5957599878311157;1.0394400358200073;0.0;0.0;0.0
577;0.0;0.0;0.0;0.03903999924659729;-1.6426079273223877;1.0355359315872192;0.0;0.0;0.0
579;-0.1076039969921112;-1.4713199138641357;0.9118279814720154;0.027327999472618103;-1.66212797164917;1.0228480100631714;-33.66562271118164;-10.359999656677246;36.92499923706055
582;0.0;0.0;0.0;0.011711999773979187;-1.6504160165786743;0.986735999584198;0.0;0.0;0.0
583;0.0;0.0;0.0;-0.003903999924659729;-1.677743911743164;0.9945439696311951;0.0;0.0;0.0
586;0.0;0.0;0.0;0.0;-1.6738399267196655;0.9945439696311951;0.0;0.0;0.0
588;-0.11419199407100677;-1.5181679725646973;0.8669319748878479;-0.003903999924659729;-1.66212797164917;0.9740479588508606;-35.2756233215332;-4.760000228881836;18.655000686645508
590;0.0;0.0;0.0;-0.015615999698638916;-1.66212797164917;0.9418399930000305;0.0;0.0;0.0
592;0.0;0.0;0.0;0.007807999849319458;-1.6660319566726685;0.9262239933013916;0.0;0.0;0.0
594;0.0;0.0;0.0;-0.019519999623298645;-1.677743911743164;0.9135359525680542;0.0;0.0;0.0
596;-0.11858399957418442;-1.5298799276351929;0.7961719632148743;0.011711999773979187;-1.6504160165786743;0.8647359609603882;-29.67562484741211;-10.850000381469727;4.304999828338623
599;0.0;0.0;0.0;0.03903999924659729;-1.6660319566726685;0.8608319759368896;0.0;0.0;0.0
600;0.0;0.0;0.0;0.05075199902057648;-1.6504160165786743;0.8198399543762207;0.0;0.0;0.0
603;0.0;0.0;0.0;0.07027199864387512;-1.6347999572753906;0.8120319843292236;0.0;0.0;0.0
605;-0.06270799785852432;-1.5181679725646973;0.7122359871864319;0.08979199826717377;-1.6035679578781128;0.8159359693527222;-19.03562355041504;-14.489999771118164;-8.574999809265137
607;0.0;0.0;0.0;0.08588799834251404;-1.6113759279251099;0.7671359777450562;0.0;0.0;0.0
609;0.0;0.0;0.0;0.13566400110721588;-1.5450079441070557;0.7876319885253906;0.0;0.0;0.0
611;0.0;0.0;0.0;0.14737600088119507;-1.4669280052185059;0.7720159888267517;0.0;0.0;0.0
613;0.0024399999529123306;-1.392751932144165;0.66075199842453;0.15518400073051453;-1.443503975868225;0.7554239630699158;-5.945625305175781;-8.75;-18.30500030517578
616;0.0;0.0;0.0;0.1786080002784729;-1.4044640064239502;0.7837280035018921;0.0;0.0;0.0
618;0.0;0.0;0.0;0.205935999751091;-1.3498079776763916;0.7671359777450562;0.0;0.0;0.0
620;0.0;0.0;0.0;0.18641600012779236;-1.3302879333496094;0.7593280076980591;0.0;0.0;0.0
622;0.07149200141429901;-1.2346400022506714;0.6329360008239746;0.1903200000524521;-1.3263839483261108;0.7515199780464172;6.514374732971191;1.6799999475479126;-22.9950008392334
624;0.0;0.0;0.0;0.18251200020313263;-1.2717279195785522;0.7837280035018921;0.0;0.0;0.0
626;0.0;0.0;0.0;0.1512800008058548;-1.256111979484558;0.8491199612617493;0.0;0.0;0.0
628;0.0;0.0;0.0;0.08198399841785431;-1.1741279363632202;0.8686400055885315;0.0;0.0;0.0
630;0.019519999623298645;-1.1065399646759033;0.7124800086021423;0.05075199902057648;-1.1546080112457275;0.962336003780365;19.46437644958496;17.71000099182129;-28.17500114440918
632;0.0;0.0;0.0;0.003903999924659729;-1.0648159980773926;0.9984479546546936;0.0;0.0;0.0
634;0.0;0.0;0.0;-0.011711999773979187;-1.0335839986801147;1.0228480100631714;0.0;0.0;0.0
637;0.0;0.0;0.0;-0.031231999397277832;-0.9555040001869202;1.0599359273910522;0.0;0.0;0.0
639;-0.12468399852514267;-0.875715970993042;0.8837679624557495;-0.019519999623298645;-0.8696159720420837;1.0316319465637207;21.494375228881836;29.470001220703125;-38.185001373291016
641;0.0;0.0;0.0;0.006831999868154526;-0.8149600028991699;1.0599359273910522;0.0;0.0;0.0
643;0.0;0.0;0.0;0.057583998888731;-0.7173599600791931;1.0677440166473389;0.0;0.0;0.0
645;0.0;0.0;0.0;0.08881600201129913;-0.6978399753570557;1.0560319423675537;0.0;0.0;0.0
647;-0.0680759996175766;-0.6073160171508789;0.9303719997406006;0.10735999792814255;-0.6080479621887207;1.0433440208435059;18.69437599182129;15.050000190734863;-42.03499984741211
649;0.0;0.0;0.0;0.10833600163459778;-0.5690079927444458;1.0599359273910522;0.0;0.0;0.0
652;0.0;0.0;0.0;0.09955199807882309;-0.5065439939498901;1.0355359315872192;0.0;0.0;0.0
654;0.0;0.0;0.0;0.09272000193595886;-0.4987359941005707;1.0189440250396729;0.0;0.0;0.0
656;-0.020739998668432236;-0.4008919894695282;0.9040200114250183;0.11224000155925751;-0.45579198002815247;1.0150399208068848;19.184375762939453;-4.199999809265137;-39.8650016784668
658;0.0;0.0;0.0;0.09174399822950363;-0.447983980178833;0.9945439696311951;0.0;0.0;0.0
660;0.0;0.0;0.0;0.115167997777462;-0.3816159963607788;0.962336003780365;0.0;0.0;0.0
662;0.0;0.0;0.0;0.12297599762678146;-0.3816159963607788;0.9174399971961975;0.0;0.0;0.0
664;-0.0026839999482035637;-0.27132800221443176;0.8300879597663879;0.13468798995018005;-0.3816159963607788;0.8930400013923645;18.204376220703125;-21.76999855041504;-36.224998474121094
666;0.0;0.0;0.0;0.15030398964881897;-0.34647998213768005;0.8608319759368896;0.0;0.0;0.0
669;0.0;0.0;0.0;0.14640000462532043;-0.35819199681282043;0.8442400097846985;0.0;0.0;0.0
671;0.0;0.0;0.0;0.15811198949813843;-0.3542879819869995;0.8120319843292236;0.0;0.0;0.0
673;0.030499998480081558;-0.2235039919614792;0.7207759618759155;0.10735999792814255;-0.31915199756622314;0.8364319801330566;16.1043758392334;-26.8799991607666;-34.54500198364258
675;0.0;0.0;0.0;0.1395680010318756;-0.260591983795166;0.8774240016937256;0.0;0.0;0.0
677;0.0;0.0;0.0;0.10150399804115295;-0.24107199907302856;0.8608319759368896;0.0;0.0;0.0
679;0.0;0.0;0.0;0.0936959981918335;-0.18641600012779236;0.8852319717407227;0.0;0.0;0.0
681;-0.024399999529123306;-0.09906399995088577;0.729315996170044;0.03903999924659729;-0.14737600088119507;0.8364319801330566;8.89437484741211;-10.710000038146973;-38.95500183105469
684;0.0;0.0;0.0;-0.023423999547958374;-0.09662400186061859;0.7954399585723877;0.0;0.0;0.0
686;0.0;0.0;0.0;-0.05075199902057648;-0.11614400148391724;0.7671359777450562;0.0;0.0;0.0
688;0.0;0.0;0.0;-0.0663679987192154;-0.10052800178527832;0.7310239672660828;0.0;0.0;0.0
690;-0.16567599773406982;0.027084000408649445;0.642695963382721;-0.0663679987192154;-0.13566400110721588;0.7232159972190857;-0.4156249761581421;5.179999828338623;-43.505001068115234
692;0.0;0.0;0.0;-0.0936959981918335;-0.12785600125789642;0.7388319969177246;0.0;0.0;0.0
694;0.0;0.0;0.0;-0.027327999472618103;-0.1668960005044937;0.7437120079994202;0.0;0.0;0.0
696;0.0;0.0;0.0;0.058559998869895935;-0.24107199907302856;0.7671359777450562;0.0;0.0;0.0
698;-0.13102799654006958;-0.05660799890756607;0.6226879954338074;0.08198399841785431;-0.23716799914836884;0.8042240142822266;3.224375009536743;9.520000457763672;-46.375
701;0.0;0.0;0.0;0.08198399841785431;-0.2566879987716675;0.8364319801330566;0.0;0.0;0.0
703;0.0;0.0;0.0;0.03903999924659729;-0.22935999929904938;0.8364319801330566;0.0;0.0;0.0
705;0.0;0.0;0.0;0.011711999773979187;-0.24887999892234802;0.8530240058898926;0.0;0.0;0.0
707;-0.08369199931621552;-0.11711999773979187;0.7149199843406677;-0.031231999397277832;-0.2449759989976883;0.8569279909133911;5.324374675750732;19.110000610351562;-47.845001220703125
709;0.0;0.0;0.0;-0.0634399950504303;-0.23716799914836884;0.8813279867172241;0.0;0.0;0.0
711;0.0;0.0;0.0;-0.10638399422168732;-0.24887999892234802;0.896943986415863;0.0;0.0;0.0
713;0.0;0.0;0.0;-0.12590399384498596;-0.2723039984703064;0.9096319675445557;0.0;0.0;0.0
715;-0.2286279946565628;-0.13053999841213226;0.7695760130882263;-0.1454239934682846;-0.31915199756622314;0.937936007976532;2.5943751335144043;20.160001754760742;-50.85499954223633
718;0.0;0.0;0.0;-0.11419199407100677;-0.30743998289108276;0.9584319591522217;0.0;0.0;0.0
720;0.0;0.0;0.0;-0.12590399384498596;-0.33086398243904114;0.9701439738273621;0.0;0.0;0.0
722;0.0;0.0;0.0;-0.11028799414634705;-0.3113439977169037;0.9584319591522217;0.0;0.0;0.0
724;-0.23814399540424347;-0.18544000387191772;0.831063985824585;-0.10638399422168732;-0.2996319830417633;0.9740479588508606;-2.585624933242798;27.09000015258789;-62.47500228881836
726;0.0;0.0;0.0;-0.07417599856853485;-0.23716799914836884;0.9662399888038635;0.0;0.0;0.0
728;0.0;0.0;0.0;-0.05075199902057648;-0.14737600088119507;0.9906399846076965;0.0;0.0;0.0
730;0.0;0.0;0.0;-0.015615999698638916;-0.07710400223731995;1.0189440250396729;0.0;0.0;0.0
732;-0.16835999488830566;-0.019763998687267303;0.8776679635047913;-0.019519999623298645;0.00878399983048439;1.0677440166473389;0.3543750047683716;40.53000259399414;-77.17499542236328
735;0.0;0.0;0.0;0.007807999849319458;0.05563199892640114;1.0716480016708374;0.0;0.0;0.0
737;0.0;0.0;0.0;-0.027327999472618103;0.13371199369430542;1.0960479974746704;0.0;0.0;0.0
739;0.0;0.0;0.0;-0.027327999472618103;0.20788799226284027;1.1204479932785034;0.0;0.0;0.0
741;-0.14786399900913239;0.26278799772262573;0.9635559916496277;-0.058559998869895935;0.23131199181079865;1.1282559633255005;10.08437442779541;39.27000045776367;-75.98499298095703
743;0.0;0.0;0.0;-0.0634399950504303;0.2898719906806946;1.1448479890823364;0.0;0.0;0.0
745;0.0;0.0;0.0;-0.07124799489974976;0.3445279896259308;1.148751974105835;0.0;0.0;0.0
747;0.0;0.0;0.0;-0.08295999467372894;0.4030880033969879;1.2014559507369995;0.0;0.0;0.0
749;-0.19275999069213867;0.4740919768810272;1.0333399772644043;-0.09467199444770813;0.4265120029449463;1.197551965713501;17.994375228881836;30.170001983642578;-64.92499542236328
752;0.0;0.0;0.0;-0.0907679945230484;0.48507198691368103;1.1936479806900024;0.0;0.0;0.0
754;0.0;0.0;0.0;-0.08686399459838867;0.4811680018901825;1.214143991470337;0.0;0.0;0.0
756;0.0;0.0;0.0;-0.0907679945230484;0.5006880164146423;1.2180479764938354;0.0;0.0;0.0
758;-0.1983719915151596;0.6200039982795715;1.0779919624328613;-0.04391999915242195;0.5123999714851379;1.1858400106430054;21.004375457763672;25.200000762939453;-53.72500228881836
760;0.0;0.0;0.0;-0.05172799900174141;0.5045920014381409;1.205359935760498;0.0;0.0;0.0
762;0.0;0.0;0.0;-0.10247999429702759;0.4694559872150421;1.197551965713501;0.0;0.0;0.0
764;0.0;0.0;0.0;-0.12199999392032623;0.4304159879684448;1.197551965713501;0.0;0.0;0.0
766;-0.21911199390888214;0.6009719967842102;1.0718920230865479;-0.1600639969110489;0.39137598872184753;1.214143991470337;24.154375076293945;22.1200008392334;-43.224998474121094
769;0.0;0.0;0.0;-0.17958399653434753;0.3835679888725281;1.2424479722976685;0.0;0.0;0.0
771;0.0;0.0;0.0;-0.21081599593162537;0.3640480041503906;1.2863680124282837;0.0;0.0;0.0
773;0.0;0.0;0.0;-0.21081599593162537;0.399183988571167;1.3390719890594482;0.0;0.0;0.0
775;-0.3193959891796112;0.5267959833145142;1.1546080112457275;-0.2147199958562851;0.40699198842048645;1.3595679998397827;27.024375915527344;26.32000160217285;-42.10499954223633
777;0.0;0.0;0.0;-0.28889599442481995;0.44993600249290466;1.3800640106201172;0.0;0.0;0.0
779;0.0;0.0;0.0;-0.24985599517822266;0.5045920014381409;1.4005600214004517;0.0;0.0;0.0
781;0.0;0.0;0.0;-0.23423999547958374;0.5553439855575562;1.4083679914474487;0.0;0.0;0.0
783;-0.36575600504875183;0.6468439698219299;1.2502559423446655;-0.17958399653434753;0.6295199990272522;1.3888479471206665;21.424375534057617;31.290000915527344;-49.73500061035156
786;0.0;0.0;0.0;-0.09467199444770813;0.6997919678688049;1.3761600255966187;0.0;0.0;0.0
788;0.0;0.0;0.0;-0.04001599922776222;0.7271199822425842;1.3517600297927856;0.0;0.0;0.0
790;0.0;0.0;0.0;0.0302559994161129;0.750544011592865;1.3351680040359497;0.0;0.0;0.0
792;-0.16787199676036835;0.8335039615631104;1.2148759365081787;0.06148799881339073;0.7583519816398621;1.278559923171997;20.724376678466797;11.479999542236328;-47.42499923706055
794;0.0;0.0;0.0;0.09662400186061859;0.7934879660606384;1.2619680166244507;0.0;0.0;0.0
796;0.0;0.0;0.0;0.09759999811649323;0.8208159804344177;1.254159927368164;0.0;0.0;0.0
798;0.0;0.0;0.0;0.07027199864387512;0.8403359651565552;1.2580640316009521;0.0;0.0;0.0
800;-0.044895999133586884;0.9535520076751709;1.1270359754562378;0.054655998945236206;0.8676639795303345;1.2424479722976685;31.364376068115234;-7.139999866485596;-35.10499954223633
803;0.0;0.0;0.0;0.04294399917125702;0.9106079936027527;1.2502559423446655;0.0;0.0;0.0
805;0.0;0.0;0.0;0.03513599932193756;0.9223200082778931;1.2658720016479492;0.0;0.0;0.0
807;0.0;0.0;0.0;0.07027199864387512;0.937936007976532;1.2424479722976685;0.0;0.0;0.0
809;-0.06319599598646164;1.0701839923858643;1.1272799968719482;0.0663679987192154;0.9886879920959473;1.278559923171997;36.4743766784668;-4.199999809265137;-26.565000534057617
811;0.0;0.0;0.0;0.08198399841785431;0.9847840070724487;1.2619680166244507;0.0;0.0;0.0
813;0.0;0.0;0.0;0.11614400148391724;0.9925919771194458;1.2746559381484985;0.0;0.0;0.0
815;0.0;0.0;0.0;0.11224000155925751;1.0277279615402222;1.270751953125;0.0;0.0;0.0
817;-0.019276000559329987;1.1372839212417603;1.1499719619750977;0.10443200170993805;1.0082080364227295;1.295151948928833;29.684375762939453;14.5600004196167;-19.844999313354492
820;0.0;0.0;0.0;0.062463998794555664;0.9925919771194458;1.2824640274047852;0.0;0.0;0.0
822;0.0;0.0;0.0;0.03513599932193756;1.012112021446228;1.3146719932556152;0.0;0.0;0.0
824;0.0;0.0;0.0;-0.007807999849319458;0.9769759774208069;1.3312640190124512;0.0;0.0;0.0
826;-0.08759599924087524;1.1416759490966797;1.1985279321670532;-0.031231999397277832;1.0394400358200073;1.3839679956436157;23.314374923706055;42.560001373291016;-13.614999771118164
828;0.0;0.0;0.0;-0.07515199482440948;1.0316319465637207;1.4327679872512817;0.0;0.0;0.0
830;0.0;0.0;0.0;-0.0907679945230484;1.0862879753112793;1.4776639938354492;0.0;0.0;0.0
832;0.0;0.0;0.0;-0.13371199369430542;1.1136159896850586;1.4620479345321655;0.0;0.0;0.0
834;-0.21886800229549408;1.2085319757461548;1.3244320154190063;-0.17177599668502808;1.1136159896850586;1.5059679746627808;19.814374923706055;63.06999969482422;-8.225000381469727
837;0.0;0.0;0.0;-0.19129599630832672;1.1292319297790527;1.51475191116333;0.0;0.0;0.0
839;0.0;0.0;0.0;-0.2030079960823059;1.1175199747085571;1.5264639854431152;0.0;0.0;0.0
841;0.0;0.0;0.0;-0.19129599630832672;1.1526559591293335;1.5303679704666138;0.0;0.0;0.0
843;-0.3159799873828888;1.2507439851760864;1.386896014213562;-0.19129599630832672;1.148751974105835;1.5264639854431152;20.30437660217285;55.650001525878906;3.745000123977661
845;0.0;0.0;0.0;-0.1786080002784729;1.148751974105835;1.5381759405136108;0.0;0.0;0.0
847;0.0;0.0;0.0;-0.14444799721240997;1.1682720184326172;1.5752639770507812;0.0;0.0;0.0
849;0.0;0.0;0.0;-0.18641600012779236;1.1643680334091187;1.5791679620742798;0.0;0.0;0.0
851;-0.2925559878349304;1.2841719388961792;1.423251986503601;-0.18641600012779236;1.148751974105835;1.5674560070037842;24.294376373291016;33.53000259399414;21.174999237060547
854;0.0;0.0;0.0;-0.2332639992237091;1.097999930381775;1.5752639770507812;0.0;0.0;0.0
856;0.0;0.0;0.0;-0.26449599862098694;1.0706720352172852;1.5586719512939453;0.0;0.0;0.0
858;0.0;0.0;0.0;-0.2879199981689453;1.0238239765167236;1.5791679620742798;0.0;0.0;0.0
860;-0.3806400001049042;1.203652024269104;1.4291080236434937;-0.3152479827404022;1.019919991493225;1.5713599920272827;22.754375457763672;19.740001678466797;35.03499984741211
862;0.0;0.0;0.0;-0.2967039942741394;0.937936007976532;1.5635520219802856;0.0;0.0;0.0
864;0.0;0.0;0.0;-0.3084160089492798;0.937936007976532;1.5586719512939453;0.0;0.0;0.0
866;0.0;0.0;0.0;-0.3123199939727783;0.9027999639511108;1.5586719512939453;0.0;0.0;0.0
868;-0.4289519786834717;1.0684759616851807;1.4293519258499146;-0.3357439935207367;0.8598560094833374;1.5547679662704468;14.07437515258789;17.360000610351562;41.404998779296875
871;0.0;0.0;0.0;-0.3240320086479187;0.848143994808197;1.5830719470977783;0.0;0.0;0.0
873;0.0;0.0;0.0;-0.37088000774383545;0.8130080103874207;1.5352479219436646;0.0;0.0;0.0
875;0.0;0.0;0.0;-0.3903999924659729;0.7388319969177246;1.5713599920272827;0.0;0.0;0.0
877;-0.4916599988937378;0.9250040054321289;1.4278879165649414;-0.4206559956073761;0.7036960124969482;1.5713599920272827;4.484375;13.020000457763672;44.834999084472656
879;0.0;0.0;0.0;-0.3933279812335968;0.6802719831466675;1.5635520219802856;0.0;0.0;0.0
881;0.0;0.0;0.0;-0.41967999935150146;0.6529439687728882;1.5791679620742798;0.0;0.0;0.0
883;0.0;0.0;0.0;-0.41577598452568054;0.6217119693756104;1.5430560111999512;0.0;0.0;0.0
885;-0.5358240008354187;0.7800679802894592;1.4256919622421265;-0.4391999840736389;0.6139039993286133;1.5586719512939453;-5.525625228881836;1.4700000286102295;45.32500076293945
888;0.0;0.0;0.0;-0.41577598452568054;0.6060959696769714;1.5391520261764526;0.0;0.0;0.0
890;0.0;0.0;0.0;-0.38942399621009827;0.5592479705810547;1.5186560153961182;0.0;0.0;0.0
892;0.0;0.0;0.0;-0.36209598183631897;0.5397279858589172;1.5020639896392822;0.0;0.0;0.0
894;-0.5187439918518066;0.7017439603805542;1.3722559213638306;-0.35819199681282043;0.5280159711837769;1.4376479387283325;-14.975625038146973;-19.17999839782715;45.32500076293945
896;0.0;0.0;0.0;-0.31622397899627686;0.4928799867630005;1.4005600214004517;0.0;0.0;0.0
898;0.0;0.0;0.0;-0.2810879945755005;0.4811680018901825;1.327359914779663;0.0;0.0;0.0
900;0.0;0.0;0.0;-0.23423999547958374;0.43432000279426575;1.2658720016479492;0.0;0.0;0.0
902;-0.3835679888725281;0.6121959686279297;1.2007240056991577;-0.1756799966096878;0.4655520021915436;1.246351957321167;-19.03562355041504;-41.790000915527344;48.685001373291016
905;0.0;0.0;0.0;-0.10247999429702759;0.4772639870643616;1.1770559549331665;0.0;0.0;0.0
907;0.0;0.0;0.0;-0.0634399950504303;0.4811680018901825;1.1526559591293335;0.0;0.0;0.0
909;0.0;0.0;0.0;-0.05953599885106087;0.5084959864616394;1.1126400232315063;0.0;0.0;0.0
911;-0.18836799263954163;0.6048759818077087;1.0230920314788818;0.014639999717473984;0.4967840015888214;1.0716480016708374;-15.045625686645508;-58.65999984741211;57.29500198364258
913;0.0;0.0;0.0;0.03806399926543236;0.3601439893245697;0.9945439696311951;0.0;0.0;0.0
915;0.0;0.0;0.0;0.022447999566793442;0.4655520021915436;1.0111359357833862;0.0;0.0;0.0
917;0.0;0.0;0.0;0.0029279999434947968;0.32891198992729187;0.896943986415863;0.0;0.0;0.0
919;-0.09637999534606934;0.5282599925994873;0.8547319769859314;0.06148799881339073;0.33671998977661133;0.9584319591522217;-11.475625038146973;-61.529998779296875;69.61500549316406
922;0.0;0.0;0.0;0.15811198949813843;0.30158400535583496;0.9340319633483887;0.0;0.0;0.0
924;0.0;0.0;0.0;0.15811198949813843;0.18055999279022217;0.8647359609603882;0.0;0.0;0.0
926;0.0;0.0;0.0;0.1815359890460968;0.10638399422168732;0.8569279909133911;0.0;0.0;0.0
928;0.02537599951028824;0.3315959870815277;0.7690879702568054;0.16201600432395935;0.10638399422168732;0.8608319759368896;-13.5756254196167;-37.16999816894531;75.14500427246094
930;0.0;0.0;0.0;0.12297599762678146;0.12199999392032623;0.8774240016937256;0.0;0.0;0.0
932;0.0;0.0;0.0;0.13078400492668152;0.1180959939956665;0.9174399971961975;0.0;0.0;0.0
934;0.0;0.0;0.0;0.057583998888731;0.1298079937696457;0.9135359525680542;0.0;0.0;0.0
936;0.0;0.25619998574256897;0.790071964263916;0.06148799881339073;0.16103999316692352;0.9701439738273621;-14.41562557220459;3.430000066757202;78.36500549316406
939;0.0;0.0;0.0;0.0029279999434947968;0.09857599437236786;0.9418399930000305;0.0;0.0;0.0
941;0.0;0.0;0.0;-0.0634399950504303;0.05172799900174141;0.9984479546546936;0.0;0.0;0.0
943;0.0;0.0;0.0;-0.06734399497509003;-0.045871999114751816;1.0150399208068848;0.0;0.0;0.0
945;-0.15347599983215332;0.1698240041732788;0.8654679656028748;-0.0907679945230484;-0.08881600201129913;1.0228480100631714;-15.67562484741211;16.940000534057617;85.29500579833984
947;0.0;0.0;0.0;-0.1180959939956665;-0.1668960005044937;1.051151990890503;0.0;0.0;0.0
949;0.0;0.0;0.0;-0.1454239934682846;-0.20203199982643127;1.0599359273910522;0.0;0.0;0.0
951;0.0;0.0;0.0;-0.18348799645900726;-0.23716799914836884;1.099951982498169;0.0;0.0;0.0
953;-0.2710839807987213;-0.06173199787735939;0.9347639679908752;-0.20691199600696564;-0.29182398319244385;1.099951982498169;-15.885624885559082;22.1200008392334;86.20500183105469
956;0.0;0.0;0.0;-0.21081599593162537;-0.2879199981689453;1.1126400232315063;0.0;0.0;0.0
958;0.0;0.0;0.0;-0.19910399615764618;-0.3230559825897217;1.1370400190353394;0.0;0.0;0.0
960;0.0;0.0;0.0;-0.2537599802017212;-0.37380799651145935;1.148751974105835;0.0;0.0;0.0
962;-0.3391599953174591;-0.20691199600696564;0.9894199967384338;-0.23814399540424347;-0.4206559956073761;1.1370400190353394;-16.515625;13.300000190734863;83.82500457763672
964;0.0;0.0;0.0;-0.21862399578094482;-0.4714079797267914;1.148751974105835;0.0;0.0;0.0
966;0.0;0.0;0.0;-0.2030079960823059;-0.5026400089263916;1.1448479890823364;0.0;0.0;0.0
968;0.0;0.0;0.0;-0.18348799645900726;-0.5416799783706665;1.1126400232315063;0.0;0.0;0.0
970;-0.31866398453712463;-0.36624398827552795;0.994055986404419;-0.13761599361896515;-0.5494880080223083;1.1038559675216675;-20.365623474121094;2.240000009536743;78.71500396728516
973;0.0;0.0;0.0;-0.14932799339294434;-0.5651040077209473;1.0843359231948853;0.0;0.0;0.0
975;0.0;0.0;0.0;-0.0907679945230484;-0.5533919930458069;1.075551986694336;0.0;0.0;0.0
977;0.0;0.0;0.0;-0.13761599361896515;-0.6002399921417236;1.075551986694336;0.0;0.0;0.0
979;-0.24692799150943756;-0.4387120008468628;0.9476959705352783;-0.10638399422168732;-0.5963360071182251;1.0638400316238403;-23.025625228881836;-2.799999952316284;75.21500396728516
981;0.0;0.0;0.0;-0.11028799414634705;-0.611952006816864;1.0433440208435059;0.0;0.0;0.0
983;0.0;0.0;0.0;-0.0907679945230484;-0.6353759765625;1.0355359315872192;0.0;0.0;0.0
985;0.0;0.0;0.0;-0.08295999467372894;-0.6470879912376404;1.0189440250396729;0.0;0.0;0.0
987;-0.1995919942855835;-0.4970279932022095;0.9025560021400452;-0.05563199892640114;-0.6822239756584167;1.0111359357833862;-22.46562385559082;-7.980000019073486;74.0250015258789
990;0.0;0.0;0.0;-0.00878399983048439;-0.7407839894294739;1.0033279657363892;0.0;0.0;0.0
992;0.0;0.0;0.0;-0.024399999529123306;-0.7642079591751099;1.0150399208068848;0.0;0.0;0.0
994;0.0;0.0;0.0;-0.04782399907708168;-0.8110559582710266;0.9906399846076965;0.0;0.0;0.0
996;-0.15737999975681305;-0.6248840093612671;0.8805959820747375;-0.01659199967980385;-0.8461920022964478;1.002351999282837;-22.185625076293945;-6.789999961853027;71.22500610351562
998;0.0;0.0;0.0;-0.04782399907708168;-0.8696159720420837;1.0189440250396729;0.0;0.0;0.0
1000;0.0;0.0;0.0;-0.05172799900174141;-0.8891359567642212;1.0716480016708374;0.0;0.0;0.0
1002;0.0;0.0;0.0;-0.07124799489974976;-0.9515999555587769;1.0472480058670044;0.0;0.0;0.0
1004;-0.16860400140285492;-0.7756760120391846;0.9176839590072632;-0.0907679945230484;-0.9633119702339172;1.0882400274276733;-23.515625;0.559999942779541;65.06500244140625
1007;0.0;0.0;0.0;-0.10247999429702759;-1.0296800136566162;1.0960479974746704;0.0;0.0;0.0
1009;0.0;0.0;0.0;-0.09857599437236786;-0.9984479546546936;1.0960479974746704;0.0;0.0;0.0
1011;0.0;0.0;0.0;-0.10638399422168732;-0.986735999584198;1.0804319381713867;0.0;0.0;0.0
1013;-0.2239919900894165;-0.8630279898643494;0.9537959694862366;-0.07515199482440948;-1.0062559843063354;1.0472480058670044;-28.905624389648438;1.1899999380111694;55.54500198364258
1015;0.0;0.0;0.0;-0.028303999453783035;-1.0257760286331177;1.0355359315872192;0.0;0.0;0.0
1017;0.0;0.0;0.0;0.045871999114751816;-1.0296800136566162;0.9789279699325562;0.0;0.0;0.0
1019;0.0;0.0;0.0;0.12297599762678146;-1.0648159980773926;0.9584319591522217;0.0;0.0;0.0
1022;-0.07173600047826767;-0.9088999629020691;0.8420439958572388;0.19324800372123718;-1.0960479974746704;0.8569279909133911;-31.635623931884766;-11.550000190734863;50.3650016784668
1024;0.0;0.0;0.0;0.2088640034198761;-1.0960479974746704;0.8042240142822266;0.0;0.0;0.0
1026;0.0;0.0;0.0;0.24399998784065247;-1.1233760118484497;0.7837280035018921;0.0;0.0;0.0
1028;0.0;0.0;0.0;0.25571200251579285;-1.107759952545166;0.7759199738502502;0.0;0.0;0.0
1030;0.11687599867582321;-0.9794159531593323;0.6734399795532227;0.27132800221443176;-1.1428959369659424;0.7437120079994202;-18.05562400817871;-13.300000190734863;52.39500045776367
1032;0.0;0.0;0.0;0.2566879987716675;-1.205359935760498;0.7515199780464172;0.0;0.0;0.0
1034;0.0;0.0;0.0;0.2332639992237091;-1.2092639207839966;0.7310239672660828;0.0;0.0;0.0
1036;0.0;0.0;0.0;0.2566879987716675;-1.256111979484558;0.7671359777450562;0.0;0.0;0.0
1039;0.12639199197292328;-1.0775039196014404;0.6358639597892761;0.21374399960041046;-1.2639199495315552;0.7876319885253906;1.614375114440918;-2.799999952316284;56.10499954223633
1041;0.0;0.0;0.0;0.21374399960041046;-1.2639199495315552;0.8452159762382507;0.0;0.0;0.0
1043;0.0;0.0;0.0;0.18641600012779236;-1.2795360088348389;0.8647359609603882;0.0;0.0;0.0
1045;0.0;0.0;0.0;0.1395680010318756;-1.2834399938583374;0.9174399971961975;0.0;0.0;0.0
1047;0.050995998084545135;-1.1416759490966797;0.7585960030555725;0.054655998945236206;-1.2912479639053345;0.962336003780365;10.9243745803833;21.910001754760742;50.505001068115234
1049;0.0;0.0;0.0;0.022447999566793442;-1.2834399938583374;1.002351999282837;0.0;0.0;0.0
1051;0.0;0.0;0.0;0.006831999868154526;-1.295151948928833;1.051151990890503;0.0;0.0;0.0
1053;0.0;0.0;0.0;-0.04391999915242195;-1.2834399938583374;1.1038559675216675;0.0;0.0;0.0
1056;-0.12663599848747253;-1.1619279384613037;0.9257360100746155;-0.09857599437236786;-1.2990559339523315;1.132159948348999;6.86437463760376;45.5;36.154998779296875
1058;0.0;0.0;0.0;-0.08686399459838867;-1.2717279195785522;1.1848639249801636;0.0;0.0;0.0
1060;0.0;0.0;0.0;-0.14932799339294434;-1.2600159645080566;1.2014559507369995;0.0;0.0;0.0
1062;0.0;0.0;0.0;-0.1298079937696457;-1.2092639207839966;1.214143991470337;0.0;0.0;0.0
1064;-0.2483920007944107;-1.1209360361099243;1.0611560344696045;-0.18348799645900726;-1.2444000244140625;1.2180479764938354;1.7543751001358032;50.12000274658203;20.405000686645508
1066;0.0;0.0;0.0;-0.1756799966096878;-1.2404959201812744;1.2092639207839966;0.0;0.0;0.0
1068;0.0;0.0;0.0;-0.22252799570560455;-1.2248799800872803;1.23854398727417;0.0;0.0;0.0
1070;0.0;0.0;0.0;-0.21081599593162537;-1.2522079944610596;1.2336640357971191;0.0;0.0;0.0
1073;-0.3198840022087097;-1.1060519218444824;1.0989760160446167;-0.2147199958562851;-1.248304009437561;1.2424479722976685;2.5943751335144043;26.040000915527344;10.954999923706055
1075;0.0;0.0;0.0;-0.2576639950275421;-1.2404959201812744;1.205359935760498;0.0;0.0;0.0
1077;0.0;0.0;0.0;-0.2420479953289032;-1.2444000244140625;1.180959939956665;0.0;0.0;0.0
1079;0.0;0.0;0.0;-0.23814399540424347;-1.2365919351577759;1.148751974105835;0.0;0.0;0.0
1081;-0.3596560060977936;-1.1116639375686646;1.048467993736267;-0.187391996383667;-1.2404959201812744;1.1126400232315063;4.344374656677246;-6.440000057220459;1.9950000047683716
1083;0.0;0.0;0.0;-0.17177599668502808;-1.2756320238113403;1.0638400316238403;0.0;0.0;0.0
1085;0.0;0.0;0.0;-0.14932799339294434;-1.295151948928833;0.9789279699325562;0.0;0.0;0.0
1087;0.0;0.0;0.0;-0.1180959939956665;-1.2834399938583374;0.9662399888038635;0.0;0.0;0.0
1090;-0.268887996673584;-1.1328920125961304;0.8776679635047913;-0.0907679945230484;-1.2795360088348389;0.9057279825210571;5.814374923706055;-28.979999542236328;-8.645000457763672
1092;0.0;0.0;0.0;-0.05563199892640114;-1.2404959201812744;0.8891359567642212;0.0;0.0;0.0
1094;0.0;0.0;0.0;-0.01268799975514412;-1.2326879501342773;0.8813279867172241;0.0;0.0;0.0
1096;0.0;0.0;0.0;-0.024399999529123306;-1.197551965713501;0.8364319801330566;0.0;0.0;0.0
1098;-0.15274399518966675;-1.097999930381775;0.7378559708595276;0.0029279999434947968;-1.205359935760498;0.8081279993057251;9.664375305175781;-32.689998626708984;-16.975000381469727
1100;0.0;0.0;0.0;-0.01659199967980385;-1.1663199663162231;0.7720159888267517;0.0;0.0;0.0
1102;0.0;0.0;0.0;-0.01268799975514412;-1.1819360256195068;0.7515199780464172;0.0;0.0;0.0
1104;0.0;0.0;0.0;0.010735999792814255;-1.1780319213867188;0.7632319927215576;0.0;0.0;0.0
1107;-0.12151199579238892;-1.0445640087127686;0.6422079801559448;0.0029279999434947968;-1.1819360256195068;0.7232159972190857;10.784375190734863;-24.639999389648438;-21.94499969482422
1109;0.0;0.0;0.0;0.006831999868154526;-1.1819360256195068;0.7271199822425842;0.0;0.0;0.0
1111;0.0;0.0;0.0;0.0029279999434947968;-1.189743995666504;0.7388319969177246;0.0;0.0;0.0
1113;0.0;0.0;0.0;-0.028303999453783035;-1.2287839651107788;0.7388319969177246;0.0;0.0;0.0
1115;-0.12468399852514267;-1.0718920230865479;0.6222000122070312;-0.05172799900174141;-1.2600159645080566;0.7593280076980591;9.384374618530273;-8.470000267028809;-27.125
1117;0.0;0.0;0.0;-0.07515199482440948;-1.334191918373108;0.7876319885253906;0.0;0.0;0.0
1119;0.0;0.0;0.0;-0.09857599437236786;-1.3732320070266724;0.8003199696540833;0.0;0.0;0.0
1121;0.0;0.0;0.0;-0.13761599361896515;-1.3966559171676636;0.8208159804344177;0.0;0.0;0.0
1124;-0.2332639992237091;-1.2200000286102295;0.6783199906349182;-0.187391996383667;-1.4083679914474487;0.8774240016937256;6.654375076293945;13.15999984741211;-38.53499984741211
1126;0.0;0.0;0.0;-0.24985599517822266;-1.377135992050171;0.9096319675445557;0.0;0.0;0.0
1128;0.0;0.0;0.0;-0.3201279938220978;-1.3810399770736694;0.9096319675445557;0.0;0.0;0.0
1130;0.0;0.0;0.0;-0.35916799306869507;-1.3576159477233887;0.9262239933013916;0.0;0.0;0.0
1132;-0.4172399938106537;-1.2417160272598267;0.7817760109901428;-0.38259199261665344;-1.3654239177703857;0.937936007976532;3.364375114440918;21.770000457763672;-55.6150016784668
1134;0.0;0.0;0.0;-0.4089439809322357;-1.3068640232086182;0.9340319633483887;0.0;0.0;0.0
1136;0.0;0.0;0.0;-0.37088000774383545;-1.2990559339523315;0.921343982219696;0.0;0.0;0.0
1138;0.0;0.0;0.0;-0.3513599932193756;-1.2404959201812744;0.9262239933013916;0.0;0.0;0.0
1141;-0.4818999767303467;-1.1438720226287842;0.7949519753456116;-0.31622397899627686;-1.1858400106430054;0.8852319717407227;0.1443750113248825;5.389999866485596;-72.41499328613281
1143;0.0;0.0;0.0;-0.2810879945755005;-1.158511996269226;0.8403359651565552;0.0;0.0;0.0
1145;0.0;0.0;0.0;-0.24595199525356293;-1.0804319381713867;0.7798239588737488;0.0;0.0;0.0
1147;0.0;0.0;0.0;-0.16787199676036835;-1.0491999387741089;0.7427359819412231;0.0;0.0;0.0
1149;-0.3467240035533905;-0.9586759805679321;0.6487959623336792;-0.14151999354362488;-1.0140639543533325;0.6578239798545837;4.554374694824219;-21.349998474121094;-83.54499816894531
1151;0.0;0.0;0.0;-0.05172799900174141;-0.9555040001869202;0.6012159585952759;0.0;0.0;0.0
1153;0.0;0.0;0.0;-0.01268799975514412;-0.8891359567642212;0.5895040035247803;0.0;0.0;0.0
1155;0.0;0.0;0.0;0.04196799919009209;-0.8618080019950867;0.5729119777679443;0.0;0.0;0.0
1158;-0.1327359974384308;-0.7693319916725159;0.4777520000934601;0.06929600238800049;-0.7876319885253906;0.5524159669876099;20.584375381469727;-35.279998779296875;-87.81499481201172
1160;0.0;0.0;0.0;0.10735999792814255;-0.6861279606819153;0.5563200116157532;0.0;0.0;0.0
1162;0.0;0.0;0.0;0.10052800178527832;-0.6158559918403625;0.5407040119171143;0.0;0.0;0.0
1164;0.0;0.0;0.0;0.10443200170993805;-0.5104479789733887;0.5241119861602783;0.0;0.0;0.0
1166;-0.0024399999529123306;-0.4711639881134033;0.42138800024986267;0.14640000462532043;-0.4635999798774719;0.5163040161132812;35.42437744140625;-25.899999618530273;-86.55500030517578
1168;0.0;0.0;0.0;0.18251200020313263;-0.40113598108291626;0.5407040119171143;0.0;0.0;0.0
1170;0.0;0.0;0.0;0.2176479995250702;-0.3152479827404022;0.5446079969406128;0.0;0.0;0.0
1172;0.0;0.0;0.0;0.22155199944972992;-0.21374399960041046;0.5407040119171143;0.0;0.0;0.0
1175;0.06954000145196915;-0.1756799966096878;0.427731990814209;0.1786080002784729;-0.17080000042915344;0.5846239924430847;42.00437545776367;-9.100000381469727;-79.48499298095703
1177;0.0;0.0;0.0;0.205935999751091;-0.17470400035381317;0.5807200074195862;0.0;0.0;0.0
1179;0.0;0.0;0.0;0.1786080002784729;-0.12785600125789642;0.5973119735717773;0.0;0.0;0.0
1181;0.0;0.0;0.0;0.1903200000524521;-0.13176000118255615;0.6666079759597778;0.0;0.0;0.0
1183;0.07075999677181244;-0.006831999868154526;0.4882439970970154;0.14737600088119507;-0.06539200246334076;0.6861279606819153;42.42437744140625;15.050000190734863;-72.27499389648438
1185;0.0;0.0;0.0;0.11907199770212173;-0.037087999284267426;0.7280960083007812;0.0;0.0;0.0
1187;0.0;0.0;0.0;0.057583998888731;-0.04879999905824661;0.7319999933242798;0.0;0.0;0.0
1189;0.0;0.0;0.0;0.0029279999434947968;-0.04879999905824661;0.7973920106887817;0.0;0.0;0.0
1192;-0.05441199988126755;0.08808399736881256;0.6219559907913208;-0.00878399983048439;-0.06441599875688553;0.8130080103874207;37.734375;32.20000076293945;-65.69499969482422
1194;0.0;0.0;0.0;-0.03611199930310249;-0.029279999434947968;0.8413119912147522;0.0;0.0;0.0
1196;0.0;0.0;0.0;-0.024399999529123306;-0.01756799966096878;0.9027999639511108;0.0;0.0;0.0
1198;0.0;0.0;0.0;-0.028303999453783035;-0.02147199958562851;0.9311040043830872;0.0;0.0;0.0
1200;-0.14444799721240997;0.10223599523305893;0.7646960020065308;-0.08295999467372894;-0.0605119988322258;0.9311040043830872;25.55437660217285;32.83000183105469;-66.32499694824219
1202;0.0;0.0;0.0;-0.11028799414634705;-0.053679998964071274;0.9506239891052246;0.0;0.0;0.0
1204;0.0;0.0;0.0;-0.1180959939956665;-0.06539200246334076;0.9496479630470276;0.0;0.0;0.0
1206;0.0;0.0;0.0;-0.12199999392032623;-0.045871999114751816;0.9701439738273621;0.0;0.0;0.0
1209;-0.21447598934173584;0.09686800092458725;0.8286240100860596;-0.07905599474906921;0.020495999604463577;0.986735999584198;10.784375190734863;28.560001373291016;-74.51499938964844
1211;0.0;0.0;0.0;-0.0634399950504303;0.032207999378442764;0.9418399930000305;0.0;0.0;0.0
1213;0.0;0.0;0.0;-0.024399999529123306;0.08686399459838867;0.9662399888038635;0.0;0.0;0.0
1215;0.0;0.0;0.0;-0.004879999905824661;0.12199999392032623;0.9418399930000305;0.0;0.0;0.0
1217;-0.15323199331760406;0.2164279967546463;0.8308199644088745;-0.0009759999811649323;0.1727519929409027;0.945743978023529;-0.27562499046325684;19.46000099182129;-83.75499725341797
1219;0.0;0.0;0.0;0.018543999642133713;0.23131199181079865;0.9584319591522217;0.0;0.0;0.0
1221;0.0;0.0;0.0;0.06539200246334076;0.24302399158477783;0.9545279741287231;0.0;0.0;0.0
1224;0.0;0.0;0.0;0.06929600238800049;0.2898719906806946;0.9779520034790039;0.0;0.0;0.0
1226;-0.05270399898290634;0.39357200264930725;0.8386279940605164;0.0849120020866394;0.3835679888725281;0.9984479546546936;-5.8056254386901855;20.510000228881836;-86.06499481201172
1228;0.0;0.0;0.0;0.10052800178527832;0.41870400309562683;0.9906399846076965;0.0;0.0;0.0
1230;0.0;0.0;0.0;0.115167997777462;0.4928799867630005;1.0394400358200073;0.0;0.0;0.0
1232;0.0;0.0;0.0;0.1424959897994995;0.5202080011367798;1.0111359357833862;0.0;0.0;0.0
1234;0.008295999839901924;0.6041439771652222;0.8862079977989197;0.14640000462532043;0.5280159711837769;1.0560319423675537;-8.535625457763672;31.500001907348633;-79.83499908447266
1236;0.0;0.0;0.0;0.1268799901008606;0.4694559872150421;1.0716480016708374;0.0;0.0;0.0
1238;0.0;0.0;0.0;0.09564799815416336;0.48507198691368103;1.1204479932785034;0.0;0.0;0.0
1241;0.0;0.0;0.0;0.06539200246334076;0.4577440023422241;1.165343999862671;0.0;0.0;0.0
1243;-0.0348920002579689;0.6204919815063477;0.9855159521102905;0.0029279999434947968;0.4694559872150421;1.214143991470337;-5.945625305175781;46.62000274658203;-69.68499755859375
1245;0.0;0.0;0.0;-0.01659199967980385;0.4538399875164032;1.2658720016479492;0.0;0.0;0.0
1247;0.0;0.0;0.0;-0.06734399497509003;0.48507198691368103;1.3107680082321167;0.0;0.0;0.0
1249;0.0;0.0;0.0;-0.1298079937696457;0.4538399875164032;1.3595679998397827;0.0;0.0;0.0
1251;-0.19861599802970886;0.6048759818077087;1.1824239492416382;-0.19129599630832672;0.4538399875164032;1.4210560321807861;-2.375624895095825;66.5;-65.3449935913086
1253;0.0;0.0;0.0;-0.23814399540424347;0.43432000279426575;1.4815679788589478;0.0;0.0;0.0
1255;0.0;0.0;0.0;-0.26156800985336304;0.4421280026435852;1.5225600004196167;0.0;0.0;0.0
1258;0.0;0.0;0.0;-0.27718400955200195;0.5045920014381409;1.5830719470977783;0.0;0.0;0.0
1260;-0.3828359842300415;0.6024360060691833;1.3939719200134277;-0.2967039942741394;0.5084959864616394;1.6113759279251099;0.9843749403953552;67.97000122070312;-65.3449935913086
1262;0.0;0.0;0.0;-0.3513599932193756;0.5514400005340576;1.664080023765564;0.0;0.0;0.0
1264;0.0;0.0;0.0;-0.3474559783935547;0.586575984954834;1.6601759195327759;0.0;0.0;0.0
1266;0.0;0.0;0.0;-0.35916799306869507;0.6139039993286133;1.664080023765564;0.0;0.0;0.0
1268;-0.4594520032405853;0.7100399732589722;1.5181679725646973;-0.30060797929763794;0.66075199842453;1.6445599794387817;2.9443750381469727;44.310001373291016;-64.71499633789062
1270;0.0;0.0;0.0;-0.26156800985336304;0.6958879828453064;1.6357759237289429;0.0;0.0;0.0
1272;0.0;0.0;0.0;-0.21862399578094482;0.7271199822425842;1.6113759279251099;0.0;0.0;0.0
1275;0.0;0.0;0.0;-0.10638399422168732;0.7193120121955872;1.5635520219802856;0.0;0.0;0.0
1277;-0.3147599995136261;0.8354560136795044;1.4583879709243774;-0.0634399950504303;0.7310239672660828;1.5108479261398315;8.964374542236328;-10.850000381469727;-54.14500045776367
1279;0.0;0.0;0.0;-0.00878399983048439;0.7193120121955872;1.441551923751831;0.0;0.0;0.0
1281;0.0;0.0;0.0;0.053679998964071274;0.7075999975204468;1.417151927947998;0.0;0.0;0.0
1283;0.0;0.0;0.0;0.09564799815416336;0.7075999975204468;1.3761600255966187;0.0;0.0;0.0
1285;-0.08247199654579163;0.8359439969062805;1.2953959703445435;0.09662400186061859;0.7232159972190857;1.3634719848632812;19.114376068115234;-46.27000045776367;-42.45500183105469
1287;0.0;0.0;0.0;0.11907199770212173;0.7544479966163635;1.327359914779663;0.0;0.0;0.0
1289;0.0;0.0;0.0;0.10345599800348282;0.7934879660606384;1.3351680040359497;0.0;0.0;0.0
1292;0.0;0.0;0.0;0.1424959897994995;0.7895839810371399;1.3351680040359497;0.0;0.0;0.0
1294;0.018543999642133713;0.9091439843177795;1.2087759971618652;0.19715198874473572;0.8325279951095581;1.3185759782791138;23.594375610351562;-42.630001068115234;-35.10499954223633
1296;0.0;0.0;0.0;0.22838398814201355;0.8442400097846985;1.2824640274047852;0.0;0.0;0.0
1298;0.0;0.0;0.0;0.22448000311851501;0.8793759942054749;1.2658720016479492;0.0;0.0;0.0
1300;0.0;0.0;0.0;0.22448000311851501;0.8949919939041138;1.2824640274047852;0.0;0.0;0.0
1302;0.09442799538373947;1.0113799571990967;1.1602200269699097;0.2088640034198761;0.9184159636497498;1.278559923171997;20.514375686645508;-26.17999839782715;-27.545000076293945
1304;0.0;0.0;0.0;0.24009600281715393;0.9418399930000305;1.270751953125;0.0;0.0;0.0
1306;0.0;0.0;0.0;0.20105600357055664;0.9262239933013916;1.2746559381484985;0.0;0.0;0.0
1309;0.0;0.0;0.0;0.20495998859405518;0.9145119786262512;1.278559923171997;0.0;0.0;0.0
1311;0.08271599560976028;1.0633519887924194;1.1489959955215454;0.1815359890460968;0.937936007976532;1.2824640274047852;18.484375;-8.680000305175781;-17.395000457763672
1313;0.0;0.0;0.0;0.16591998934745789;0.9106079936027527;1.3146719932556152;0.0;0.0;0.0
1315;0.0;0.0;0.0;0.1542080044746399;0.9340319633483887;1.3234559297561646;0.0;0.0;0.0
1317;0.0;0.0;0.0;0.13859200477600098;0.9418399930000305;1.3468799591064453;0.0;0.0;0.0
1319;0.03245199844241142;1.0621320009231567;1.1951119899749756;0.1268799901008606;0.9418399930000305;1.327359914779663;16.66437530517578;8.050000190734863;-7.945000171661377
1321;0.0;0.0;0.0;0.10345599800348282;0.9027999639511108;1.3351680040359497;0.0;0.0;0.0
1323;0.0;0.0;0.0;0.057583998888731;0.9184159636497498;1.3556640148162842;0.0;0.0;0.0
1326;0.0;0.0;0.0;0.04196799919009209;0.8988959789276123;1.3878719806671143;0.0;0.0;0.0
1328;-0.06368400156497955;1.0333399772644043;1.229759931564331;0.018543999642133713;0.8559519648551941;1.3966559171676636;15.82437515258789;17.150001525878906;3.18500018119812
1330;0.0;0.0;0.0;-0.03611199930310249;0.8754720091819763;1.4366719722747803;0.0;0.0;0.0
1332;0.0;0.0;0.0;-0.08686399459838867;0.8247199654579163;1.4737600088119507;0.0;0.0;0.0
1334;0.0;0.0;0.0;-0.14151999354362488;0.8051999807357788;1.4864479303359985;0.0;0.0;0.0
1336;-0.21252399682998657;0.9506239891052246;1.3390719890594482;-0.19910399615764618;0.7115039825439453;1.5225600004196167;12.184374809265137;23.240001678466797;12.494999885559082
1338;0.0;0.0;0.0;-0.2420479953289032;0.7232159972190857;1.5303679704666138;0.0;0.0;0.0
1340;0.0;0.0;0.0;-0.27718400955200195;0.6490399837493896;1.5674560070037842;0.0;0.0;0.0
1343;0.0;0.0;0.0;-0.30060797929763794;0.6021919846534729;1.5879520177841187;0.0;0.0;0.0
1345;-0.39064398407936096;0.7795799970626831;1.4239839315414429;-0.3396480083465576;0.5553439855575562;1.6162559986114502;3.0843751430511475;25.48000144958496;14.3149995803833
1347;0.0;0.0;0.0;-0.31622397899627686;0.5826719999313354;1.6406559944152832;0.0;0.0;0.0
1349;0.0;0.0;0.0;-0.3240320086479187;0.5787680149078369;1.6318719387054443;0.0;0.0;0.0
1351;0.0;0.0;0.0;-0.33183997869491577;0.5397279858589172;1.6406559944152832;0.0;0.0;0.0
1353;-0.4550600051879883;0.688323974609375;1.494499921798706;-0.3357439935207367;0.5319200158119202;1.6152799129486084;-6.085625171661377;18.900001525878906;11.095000267028809
1355;0.0;0.0;0.0;-0.3474559783935547;0.4928799867630005;1.5957599878311157;0.0;0.0;0.0
1357;0.0;0.0;0.0;-0.3123199939727783;0.46164798736572266;1.5635520219802856;0.0;0.0;0.0
1360;0.0;0.0;0.0;-0.3123199939727783;0.47336000204086304;1.5547679662704468;0.0;0.0;0.0
1362;-0.447983980178833;0.6134160161018372;1.4332560300827026;-0.2654719948768616;0.44993600249290466;1.4981600046157837;-9.795625686645508;-6.369999885559082;12.5649995803833
1364;0.0;0.0;0.0;-0.24595199525356293;0.4147999882698059;1.490351915359497;0.0;0.0;0.0
1366;0.0;0.0;0.0;-0.23423999547958374;0.42260798811912537;1.4376479387283325;0.0;0.0;0.0
1368;0.0;0.0;0.0;-0.22252799570560455;0.39528000354766846;1.417151927947998;0.0;0.0;0.0
1370;-0.3542879819869995;0.5411919951438904;1.3161360025405884;-0.22643199563026428;0.37966400384902954;1.4083679914474487;-5.595625400543213;-30.099998474121094;15.154999732971191
1372;0.0;0.0;0.0;-0.1756799966096878;0.36795198917388916;1.3517600297927856;0.0;0.0;0.0
1374;0.0;0.0;0.0;-0.17958399653434753;0.387472003698349;1.3312640190124512;0.0;0.0;0.0
1377;0.0;0.0;0.0;-0.14444799721240997;0.39528000354766846;1.30295991897583;0.0;0.0;0.0
1379;-0.29523998498916626;0.5160599946975708;1.2129240036010742;-0.12590399384498596;0.39137598872184753;1.2941759824752808;-2.7256250381469727;-39.130001068115234;16.55500030517578
1381;0.0;0.0;0.0;-0.11028799414634705;0.4265120029449463;1.2424479722976685;0.0;0.0;0.0
1383;0.0;0.0;0.0;-0.07905599474906921;0.41870400309562683;1.197551965713501;0.0;0.0;0.0
1385;0.0;0.0;0.0;-0.03611199930310249;0.4577440023422241;1.1614400148391724;0.0;0.0;0.0
1387;-0.19568799436092377;0.5643720030784607;1.0701839923858643;-0.024399999529123306;0.4577440023422241;1.1126400232315063;-1.6056249141693115;-33.73999786376953;17.815000534057617
1390;0.0;0.0;0.0;0.018543999642133713;0.4772639870643616;1.099951982498169;0.0;0.0;0.0
1391;0.0;0.0;0.0;0.057583998888731;0.4772639870643616;1.0843359231948853;0.0;0.0;0.0
1394;0.0;0.0;0.0;0.045871999114751816;0.4577440023422241;1.0921440124511719;0.0;0.0;0.0
1396;-0.08906000107526779;0.5975559949874878;0.9640439748764038;0.057583998888731;0.4655520021915436;1.0804319381713867;6.86437463760376;-24.639999389648438;24.46500015258789
1398;0.0;0.0;0.0;0.049775999039411545;0.47336000204086304;1.0960479974746704;0.0;0.0;0.0
1400;0.0;0.0;0.0;0.049775999039411545;0.4421280026435852;1.0921440124511719;0.0;0.0;0.0
1402;0.0;0.0;0.0;0.0029279999434947968;0.4577440023422241;1.1165440082550049;0.0;0.0;0.0
1404;-0.08832799643278122;0.5816959738731384;0.9789279699325562;-0.01268799975514412;0.4304159879684448;1.1526559591293335;14.564374923706055;-10.149999618530273;32.8650016784668
1407;0.0;0.0;0.0;-0.00878399983048439;0.4626239836215973;1.1575360298156738;0.0;0.0;0.0
1409;0.0;0.0;0.0;-0.05563199892640114;0.4665279984474182;1.1868159770965576;0.0;0.0;0.0
1411;0.0;0.0;0.0;-0.0634399950504303;0.4938559830188751;1.1946239471435547;0.0;0.0;0.0
1413;-0.18519599735736847;0.5765720009803772;1.051151990890503;-0.10638399422168732;0.3962559998035431;1.1985279321670532;12.39437484741211;5.880000114440918;37.69499969482422
1415;0.0;0.0;0.0;-0.12590399384498596;0.4274879992008209;1.2346400022506714;0.0;0.0;0.0
1417;0.0;0.0;0.0;-0.21081599593162537;0.5953599810600281;1.3244320154190063;0.0;0.0;0.0
1419;0.0;0.0;0.0;-0.19910399615764618;0.5563200116157532;1.262943983078003;0.0;0.0;0.0
1421;-0.29182398319244385;0.6553840041160583;1.1397240161895752;-0.21862399578094482;0.610975980758667;1.311743974685669;7.004374980926514;16.380001068115234;42.314998626708984
1424;0.0;0.0;0.0;-0.20203199982643127;0.5709599852561951;1.2746559381484985;0.0;0.0;0.0
1426;0.0;0.0;0.0;-0.13663999736309052;0.4265120029449463;1.1858400106430054;0.0;0.0;0.0
1428;0.0;0.0;0.0;-0.205935999751091;0.4030880033969879;1.180959939956665;0.0;0.0;0.0
1430;-0.31036800146102905;0.6029239892959595;1.0933640003204346;-0.19812799990177155;0.36795198917388916;1.214143991470337;-0.34562498331069946;13.649999618530273;51.415000915527344
1432;0.0;0.0;0.0;-0.20203199982643127;0.36795198917388916;1.2619680166244507;0.0;0.0;0.0
1434;0.0;0.0;0.0;-0.1786080002784729;0.3835679888725281;1.295151948928833;0.0;0.0;0.0
1436;0.0;0.0;0.0;-0.25278398394584656;0.32891198992729187;1.2902719974517822;0.0;0.0;0.0
1438;-0.3379400074481964;0.48092398047447205;1.1380159854888916;-0.29182398319244385;0.26254400610923767;1.3107680082321167;4.624374866485596;10.149999618530273;61.005001068115234
1441;0.0;0.0;0.0;-0.374783992767334;0.23131199181079865;1.278559923171997;0.0;0.0;0.0
1443;0.0;0.0;0.0;-0.3903999924659729;0.16884799301624298;1.2863680124282837;0.0;0.0;0.0
1445;0.0;0.0;0.0;-0.3903999924659729;0.13371199369430542;1.2619680166244507;0.0;0.0;0.0
1447;-0.4858039915561676;0.32330000400543213;1.1485079526901245;-0.3669759929180145;0.13761599361896515;1.295151948928833;2.244374990463257;0.06999999284744263;63.73500061035156
1449;0.0;0.0;0.0;-0.32793599367141724;0.13761599361896515;1.2619680166244507;0.0;0.0;0.0
1451;0.0;0.0;0.0;-0.31622397899627686;0.06734399497509003;1.2502559423446655;0.0;0.0;0.0
1453;0.0;0.0;0.0;-0.33183997869491577;0.024399999529123306;1.2014559507369995;0.0;0.0;0.0
1455;-0.44603198766708374;0.20325200259685516;1.1099560260772705;-0.34355199337005615;-0.006831999868154526;1.2014559507369995;-3.075624942779541;-8.609999656677246;59.39500045776367
1457;0.0;0.0;0.0;-0.30451199412345886;-0.03415999934077263;1.1770559549331665;0.0;0.0;0.0
1460;0.0;0.0;0.0;-0.2654719948768616;-0.03806399926543236;1.156559944152832;0.0;0.0;0.0
1462;0.0;0.0;0.0;-0.2654719948768616;-0.03415999934077263;1.1165440082550049;0.0;0.0;0.0
1464;-0.3916199803352356;0.10321199893951416;1.0208959579467773;-0.18348799645900726;-0.0029279999434947968;1.075551986694336;-5.455625057220459;-14.210000038146973;54.564998626708984
1466;0.0;0.0;0.0;-0.1600639969110489;-0.010735999792814255;1.051151990890503;0.0;0.0;0.0
1468;0.0;0.0;0.0;-0.14151999354362488;0.020495999604463577;1.0033279657363892;0.0;0.0;0.0
1470;0.0;0.0;0.0;-0.07515199482440948;0.01268799975514412;0.9662399888038635;0.0;0.0;0.0
1472;-0.23765599727630615;0.13566400110721588;0.8871839642524719;-0.0634399950504303;-0.03415999934077263;0.945743978023529;-3.4956250190734863;-25.1299991607666;56.525001525878906
1475;0.0;0.0;0.0;-0.04001599922776222;-0.006831999868154526;0.9252479672431946;0.0;0.0;0.0
1477;0.0;0.0;0.0;-0.004879999905824661;-0.03806399926543236;0.9301279783248901;0.0;0.0;0.0
1479;0.0;0.0;0.0;-0.00878399983048439;-0.03415999934077263;0.9018239974975586;0.0;0.0;0.0
1481;-0.134443998336792;0.10711599886417389;0.7969039678573608;0.010735999792814255;-0.03806399926543236;0.9018239974975586;1.6843750476837158;-21.420000076293945;61.6349983215332
1483;0.0;0.0;0.0;-0.04001599922776222;-0.07320000231266022;0.9018239974975586;0.0;0.0;0.0
1485;0.0;0.0;0.0;-0.06734399497509003;-0.06929600238800049;0.8930400013923645;0.0;0.0;0.0
1487;0.0;0.0;0.0;-0.0907679945230484;-0.11614400148391724;0.921343982219696;0.0;0.0;0.0
1489;-0.1937360018491745;0.049531999975442886;0.7915359735488892;-0.14151999354362488;-0.1239520013332367;0.9545279741287231;1.614375114440918;-3.3600001335144043;63.595001220703125
1492;0.0;0.0;0.0;-0.12590399384498596;-0.18251200020313263;0.9828319549560547;0.0;0.0;0.0
1494;0.0;0.0;0.0;-0.1298079937696457;-0.18641600012779236;0.9906399846076965;0.0;0.0;0.0
1496;0.0;0.0;0.0;-0.19129599630832672;-0.20203199982643127;1.0228480100631714;0.0;0.0;0.0
1498;-0.2852360010147095;-0.058559998869895935;0.8620519638061523;-0.21081599593162537;-0.205935999751091;1.0111359357833862;-3.705625057220459;13.579999923706055;59.53499984741211
1500;0.0;0.0;0.0;-0.24595199525356293;-0.20983999967575073;1.002351999282837;0.0;0.0;0.0
1502;0.0;0.0;0.0;-0.23423999547958374;-0.18641600012779236;1.0150399208068848;0.0;0.0;0.0
1504;0.0;0.0;0.0;-0.20691199600696564;-0.22155199944972992;0.9701439738273621;0.0;0.0;0.0
1506;-0.3369639813899994;-0.0924759954214096;0.8588799834251404;-0.187391996383667;-0.2996319830417633;0.937936007976532;-9.935625076293945;10.640000343322754;57.3650016784668
1509;0.0;0.0;0.0;-0.1327359974384308;-0.3269599974155426;0.9096319675445557;0.0;0.0;0.0
1511;0.0;0.0;0.0;-0.1327359974384308;-0.4050399959087372;0.8735199570655823;0.0;0.0;0.0
1513;0.0;0.0;0.0;-0.09759999811649323;-0.4167519807815552;0.8198399543762207;0.0;0.0;0.0
1515;-0.24277999997138977;-0.25327199697494507;0.7461519837379456;-0.054655998945236206;-0.5026400089263916;0.8159359693527222;-8.115625381469727;-4.690000057220459;61.98500061035156
1517;0.0;0.0;0.0;-0.07027199864387512;-0.537775993347168;0.8042240142822266;0.0;0.0;0.0
1519;0.0;0.0;0.0;-0.07807999849319458;-0.5885279774665833;0.8364319801330566;0.0;0.0;0.0
1521;0.0;0.0;0.0;-0.10540799796581268;-0.6353759765625;0.8159359693527222;0.0;0.0;0.0
1523;-0.20325200259685516;-0.44944798946380615;0.7066239714622498;-0.10931199789047241;-0.6666079759597778;0.8608319759368896;1.334375023841858;-1.3300000429153442;65.20500183105469
1526;0.0;0.0;0.0;-0.1180959939956665;-0.732975959777832;0.8891359567642212;0.0;0.0;0.0
1528;0.0;0.0;0.0;-0.15225599706172943;-0.7603039741516113;0.9174399971961975;0.0;0.0;0.0
1530;0.0;0.0;0.0;-0.19129599630832672;-0.7915359735488892;0.9340319633483887;0.0;0.0;0.0
1532;-0.2827959954738617;-0.6248840093612671;0.7947080135345459;-0.19519999623298645;-0.8422879576683044;1.0111359357833862;3.0843751430511475;10.359999656677246;60.44499969482422
1534;0.0;0.0;0.0;-0.21862399578094482;-0.8071519732475281;1.0472480058670044;0.0;0.0;0.0
1536;0.0;0.0;0.0;-0.2030079960823059;-0.7915359735488892;1.0550559759140015;0.0;0.0;0.0
1538;0.0;0.0;0.0;-0.23814399540424347;-0.8032479882240295;1.0394400358200073;0.0;0.0;0.0
1540;-0.3274479806423187;-0.6695359945297241;0.90938800573349;-0.22643199563026428;-0.8383839726448059;1.0355359315872192;-7.13562536239624;15.539999961853027;49.45500183105469
1543;0.0;0.0;0.0;-0.21081599593162537;-0.8618080019950867;1.0355359315872192;0.0;0.0;0.0
1545;0.0;0.0;0.0;-0.19129599630832672;-0.8618080019950867;1.0716480016708374;0.0;0.0;0.0
1547;0.0;0.0;0.0;-0.15615999698638916;-0.8813279867172241;1.0677440166473389;0.0;0.0;0.0
1549;-0.3079279959201813;-0.7244359850883484;0.9215880036354065;-0.13761599361896515;-0.8618080019950867;1.051151990890503;-20.155624389648438;7.420000076293945;39.8650016784668
1551;0.0;0.0;0.0;-0.12199999392032623;-0.8735199570655823;1.0472480058670044;0.0;0.0;0.0
1553;0.0;0.0;0.0;-0.10247999429702759;-0.8813279867172241;1.0228480100631714;0.0;0.0;0.0
1555;0.0;0.0;0.0;-0.07905599474906921;-0.9398880004882812;0.9945439696311951;0.0;0.0;0.0
1557;-0.22618798911571503;-0.7778719663619995;0.901091992855072;-0.04782399907708168;-0.9515999555587769;0.9828319549560547;-31.21562385559082;2.799999952316284;34.334999084472656
1560;0.0;0.0;0.0;-0.01659199967980385;-0.9984479546546936;0.9789279699325562;0.0;0.0;0.0
1562;0.0;0.0;0.0;0.018543999642133713;-1.0687199831008911;0.9662399888038635;0.0;0.0;0.0
1564;0.0;0.0;0.0;0.02635199949145317;-1.0843359231948853;1.0111359357833862;0.0;0.0;0.0
1566;-0.11467999964952469;-0.9191479682922363;0.8635159730911255;0.03806399926543236;-1.146799921989441;1.0150399208068848;-34.78562545776367;2.5199999809265137;32.375
1568;0.0;0.0;0.0;0.0302559994161129;-1.1858400106430054;1.0150399208068848;0.0;0.0;0.0
1570;0.0;0.0;0.0;-0.004879999905824661;-1.189743995666504;1.002351999282837;0.0;0.0;0.0
1572;0.0;0.0;0.0;-0.028303999453783035;-1.2209759950637817;0.9740479588508606;0.0;0.0;0.0
1574;-0.12419600039720535;-1.0623760223388672;0.8696159720420837;-0.028303999453783035;-1.2444000244140625;0.9906399846076965;-32.33562469482422;5.460000038146973;30.69499969482422
1577;0.0;0.0;0.0;-0.03903999924659729;-1.2795360088348389;1.0150399208068848;0.0;0.0;0.0
1579;0.0;0.0;0.0;-0.019519999623298645;-1.3068640232086182;0.9906399846076965;0.0;0.0;0.0
1581;0.0;0.0;0.0;-0.003903999924659729;-1.3654239177703857;0.9545279741287231;0.0;0.0;0.0
1583;-0.1407880038022995;-1.1841319799423218;0.8461920022964478;0.0;-1.4005600214004517;0.9262239933013916;-27.015625;-6.650000095367432;29.295000076293945
1585;0.0;0.0;0.0;0.023423999547958374;-1.474735975265503;0.8891359567642212;0.0;0.0;0.0
1587;0.0;0.0;0.0;0.011711999773979187;-1.4981600046157837;0.8774240016937256;0.0;0.0;0.0
1589;0.0;0.0;0.0;0.058559998869895935;-1.5411039590835571;0.8403359651565552;0.0;0.0;0.0
1591;-0.09345199912786484;-1.3571280241012573;0.7366359829902649;0.08979199826717377;-1.564527988433838;0.8042240142822266;-19.665624618530273;-24.079999923706055;25.584999084472656
1594;0.0;0.0;0.0;0.13078400492668152;-1.5489119291305542;0.7720159888267517;0.0;0.0;0.0
1596;0.0;0.0;0.0;0.15030398964881897;-1.580143928527832;0.7271199822425842;0.0;0.0;0.0
1598;0.0;0.0;0.0;0.13078400492668152;-1.5918560028076172;0.7105280160903931;0.0;0.0;0.0
1600;0.01512799970805645;-1.4386240243911743;0.6165879964828491;0.16591998934745789;-1.5957599878311157;0.6910079717636108;-12.385624885559082;-31.009998321533203;16.905000686645508
1602;0.0;0.0;0.0;0.16201600432395935;-1.6152799129486084;0.6705119609832764;0.0;0.0;0.0
1604;0.0;0.0;0.0;0.13859200477600098;-1.5918560028076172;0.6783199906349182;0.0;0.0;0.0
1606;0.0;0.0;0.0;0.16201600432395935;-1.6191840171813965;0.6578239798545837;0.0;0.0;0.0
1608;0.03147599846124649;-1.4703439474105835;0.5587599873542786;0.15030398964881897;-1.6035679578781128;0.6705119609832764;-7.905625343322754;-13.789999961853027;2.134999990463257
1611;0.0;0.0;0.0;0.14347200095653534;-1.5840479135513306;0.6783199906349182;0.0;0.0;0.0
1613;0.0;0.0;0.0;0.1512800008058548;-1.5918560028076172;0.7066239714622498;0.0;0.0;0.0
1615;0.0;0.0;0.0;0.13566400110721588;-1.5450079441070557;0.7066239714622498;0.0;0.0;0.0
1617;0.029279999434947968;-1.4322799444198608;0.5765720009803772;0.12004800140857697;-1.5137759447097778;0.7232159972190857;-6.225625038146973;15.1899995803833;-14.875
1619;0.0;0.0;0.0;0.08588799834251404;-1.4708319902420044;0.7671359777450562;0.0;0.0;0.0
1621;0.0;0.0;0.0;0.09759999811649323;-1.435696005821228;0.8325279951095581;0.0;0.0;0.0
1623;0.0;0.0;0.0;0.07027199864387512;-1.3966559171676636;0.8247199654579163;0.0;0.0;0.0
1625;-0.031964000314474106;-1.2995439767837524;0.681003987789154;0.04684799909591675;-1.3810399770736694;0.8774240016937256;-3.005625009536743;37.380001068115234;-29.014999389648438
1628;0.0;0.0;0.0;0.006831999868154526;-1.3615199327468872;0.9135359525680542;0.0;0.0;0.0
1630;0.0;0.0;0.0;-0.03611199930310249;-1.3537119626998901;0.921343982219696;0.0;0.0;0.0
1632;0.0;0.0;0.0;-0.10247999429702759;-1.3185759782791138;0.962336003780365;0.0;0.0;0.0
1634;-0.1693359911441803;-1.2124359607696533;0.8020280003547668;-0.11419199407100677;-1.3263839483261108;0.9906399846076965;1.614375114440918;46.83000183105469;-40.21500015258789
1636;0.0;0.0;0.0;-0.18348799645900726;-1.3185759782791138;1.0150399208068848;0.0;0.0;0.0
1638;0.0;0.0;0.0;-0.23814399540424347;-1.2795360088348389;1.0716480016708374;0.0;0.0;0.0
1640;0.0;0.0;0.0;-0.24985599517822266;-1.2639199495315552;1.0716480016708374;0.0;0.0;0.0
1642;-0.33183997869491577;-1.154852032661438;0.9303719997406006;-0.27718400955200195;-1.248304009437561;1.124351978302002;8.124374389648438;44.45000076293945;-51.345001220703125
1645;0.0;0.0;0.0;-0.27718400955200195;-1.205359935760498;1.1526559591293335;0.0;0.0;0.0
1647;0.0;0.0;0.0;-0.284991979598999;-1.1546080112457275;1.1448479890823364;0.0;0.0;0.0
1649;0.0;0.0;0.0;-0.2693759799003601;-1.1389919519424438;1.1126400232315063;0.0;0.0;0.0
1651;-0.3938159942626953;-1.0194319486618042;1.0003999471664429;-0.230335995554924;-1.060912013053894;1.124351978302002;12.814374923706055;26.18000030517578;-59.185001373291016
1653;0.0;0.0;0.0;-0.18348799645900726;-1.0648159980773926;1.1087360382080078;0.0;0.0;0.0
1655;0.0;0.0;0.0;-0.15225599706172943;-1.002351999282837;1.1204479932785034;0.0;0.0;0.0
1657;0.0;0.0;0.0;-0.14054399728775024;-0.9906399846076965;1.0599359273910522;0.0;0.0;0.0
1659;-0.2752319872379303;-0.8891359567642212;0.962336003780365;-0.0907679945230484;-0.9555040001869202;1.051151990890503;20.654375076293945;-0.2800000011920929;-61.28499984741211
1662;0.0;0.0;0.0;-0.05563199892640114;-0.912559986114502;1.051151990890503;0.0;0.0;0.0
1664;0.0;0.0;0.0;-0.05172799900174141;-0.8774240016937256;1.0150399208068848;0.0;0.0;0.0
1666;0.0;0.0;0.0;-0.028303999453783035;-0.8539999723434448;0.9984479546546936;0.0;0.0;0.0
1668;-0.1722639948129654;-0.7571319937705994;0.8905999660491943;0.010735999792814255;-0.8500959873199463;0.9945439696311951;29.614376068115234;-19.809999465942383;-59.39500045776367
1670;0.0;0.0;0.0;0.0302559994161129;-0.7837280035018921;0.9496479630470276;0.0;0.0;0.0
1672;0.0;0.0;0.0;0.07710400223731995;-0.725167989730835;0.9301279783248901;0.0;0.0;0.0
1674;0.0;0.0;0.0;0.08100800216197968;-0.6783199906349182;0.9057279825210571;0.0;0.0;0.0
1676;-0.052216000854969025;-0.5965799689292908;0.8017839789390564;0.11126399785280228;-0.6197599768638611;0.9057279825210571;32.83437728881836;-27.509998321533203;-54.98500061035156
1679;0.0;0.0;0.0;0.13176000118255615;-0.5533919930458069;0.9262239933013916;0.0;0.0;0.0
1681;0.0;0.0;0.0;0.18251200020313263;-0.5026400089263916;0.9057279825210571;0.0;0.0;0.0
1683;0.0;0.0;0.0;0.1903200000524521;-0.4323679804801941;0.9301279783248901;0.0;0.0;0.0
1685;0.038307998329401016;-0.36795198917388916;0.7912920117378235;0.16299200057983398;-0.3659999966621399;0.9301279783248901;32.274375915527344;-18.759998321533203;-52.1150016784668
1687;0.0;0.0;0.0;0.17080000042915344;-0.37380799651145935;0.9301279783248901;0.0;0.0;0.0
1689;0.0;0.0;0.0;0.11224000155925751;-0.4206559956073761;0.9418399930000305;0.0;0.0;0.0
1691;0.0;0.0;0.0;0.0663679987192154;-0.4089439809322357;0.9545279741287231;0.0;0.0;0.0
1693;-0.013907999731600285;-0.2740119993686676;0.8220359683036804;-0.003903999924659729;-0.42455998063087463;0.986735999584198;24.224376678466797;-6.930000305175781;-49.525001525878906
1696;0.0;0.0;0.0;-0.01268799975514412;-0.42846399545669556;1.0355359315872192;0.0;0.0;0.0
1698;0.0;0.0;0.0;-0.06734399497509003;-0.40113598108291626;1.0843359231948853;0.0;0.0;0.0
1700;0.0;0.0;0.0;-0.1298079937696457;-0.3113439977169037;1.1282559633255005;0.0;0.0;0.0
1702;-0.19641999900341034;-0.24570798873901367;0.9484279751777649;-0.18348799645900726;-0.3386719822883606;1.156559944152832;7.844374656677246;18.130001068115234;-58.55500030517578
1704;0.0;0.0;0.0;-0.14932799339294434;-0.4323679804801941;1.132159948348999;0.0;0.0;0.0
1706;0.0;0.0;0.0;-0.1298079937696457;-0.3972319960594177;1.1770559549331665;0.0;0.0;0.0
1708;0.0;0.0;0.0;-0.20691199600696564;-0.22935999929904938;1.278559923171997;0.0;0.0;0.0
1710;-0.3071959912776947;-0.2025199979543686;1.051151990890503;-0.2810879945755005;-0.19812799990177155;1.2502559423446655;-9.16562557220459;44.65999984741211;-74.65499877929688
1713;0.0;0.0;0.0;-0.3357439935207367;-0.29182398319244385;1.2092639207839966;0.0;0.0;0.0
1715;0.0;0.0;0.0;-0.4167519807815552;-0.26449599862098694;1.214143991470337;0.0;0.0;0.0
1717;0.0;0.0;0.0;-0.42455998063087463;-0.1903200000524521;1.2824640274047852;0.0;0.0;0.0
1719;-0.5038599967956543;-0.09027999639511108;1.1099560260772705;-0.4323679804801941;-0.10443200170993805;1.319551944732666;-11.195625305175781;36.68000030517578;-83.4749984741211
1721;0.0;0.0;0.0;-0.38649600744247437;-0.057583998888731;1.3595679998397827;0.0;0.0;0.0
1723;0.0;0.0;0.0;-0.35526400804519653;-0.010735999792814255;1.3761600255966187;0.0;0.0;0.0
1725;0.0;0.0;0.0;-0.31622397899627686;0.03611199930310249;1.3839679956436157;0.0;0.0;0.0
1727;-0.4862920045852661;0.1088239997625351;1.226099967956543;-0.3123199939727783;0.032207999378442764;1.3478559255599976;-5.315625190734863;11.479999542236328;-94.3949966430664
1730;0.0;0.0;0.0;-0.22252799570560455;0.05563199892640114;1.3068640232086182;0.0;0.0;0.0
1732;0.0;0.0;0.0;-0.19129599630832672;0.11028799414634705;1.2658720016479492;0.0;0.0;0.0
1734;0.0;0.0;0.0;-0.13371199369430542;0.13761599361896515;1.2092639207839966;0.0;0.0;0.0
1736;-0.3111000061035156;0.24058400094509125;1.1272799968719482;-0.09857599437236786;0.15323199331760406;1.1692479848861694;0.004375003278255463;-27.15999984741211;-89.98499298095703
1738;0.0;0.0;0.0;-0.09857599437236786;0.2000799924135208;1.124351978302002;0.0;0.0;0.0
1740;0.0;0.0;0.0;-0.09857599437236786;0.1844639927148819;1.0433440208435059;0.0;0.0;0.0
1742;0.0;0.0;0.0;-0.06734399497509003;0.15323199331760406;1.0316319465637207;0.0;0.0;0.0
1744;-0.2076440006494522;0.3076840043067932;0.9454999566078186;-0.06734399497509003;0.15323199331760406;0.9945439696311951;12.604374885559082;-47.80999755859375;-81.0949935913086
1747;0.0;0.0;0.0;-0.07417599856853485;0.09857599437236786;0.986735999584198;0.0;0.0;0.0
1749;0.0;0.0;0.0;-0.08198399841785431;0.05953599885106087;0.9701439738273621;0.0;0.0;0.0
1751;0.0;0.0;0.0;-0.058559998869895935;0.05953599885106087;1.02675199508667;0.0;0.0;0.0
1753;-0.18836799263954163;0.21081599593162537;0.8720560073852539;-0.058559998869895935;0.1298079937696457;1.0599359273910522;25.204376220703125;-38.14999771118164;-77.94499969482422
1755;0.0;0.0;0.0;-0.062463998794555664;0.20398399233818054;1.099951982498169;0.0;0.0;0.0
1757;0.0;0.0;0.0;-0.10150399804115295;0.32500800490379333;1.132159948348999;0.0;0.0;0.0
1759;0.0;0.0;0.0;-0.11321599781513214;0.39137598872184753;1.1614400148391724;0.0;0.0;0.0
1761;-0.22252799570560455;0.4416399896144867;0.9852719902992249;-0.1483519971370697;0.4655520021915436;1.148751974105835;28.564376831054688;-10.359999656677246;-82.4949951171875
1764;0.0;0.0;0.0;-0.13761599361896515;0.5358240008354187;1.1936479806900024;0.0;0.0;0.0
1766;0.0;0.0;0.0;-0.09467199444770813;0.5787680149078369;1.1770559549331665;0.0;0.0;0.0
1768;0.0;0.0;0.0;-0.020495999604463577;0.5943840146064758;1.1848639249801636;0.0;0.0;0.0
1770;-0.19275999069213867;0.7000359892845154;1.048467993736267;0.014639999717473984;0.6295199990272522;1.205359935760498;27.37437629699707;-12.739999771118164;-78.78499603271484
1772;0.0;0.0;0.0;0.053679998964071274;0.6646559834480286;1.205359935760498;0.0;0.0;0.0
1774;0.0;0.0;0.0;0.03415999934077263;0.6724640130996704;1.180959939956665;0.0;0.0;0.0
1776;0.0;0.0;0.0;0.022447999566793442;0.7115039825439453;1.189743995666504;0.0;0.0;0.0
1778;-0.09320800006389618;0.8137399554252625;1.0518839359283447;0.045871999114751816;0.7154079675674438;1.165343999862671;29.474376678466797;-29.67999839782715;-69.26499938964844
1781;0.0;0.0;0.0;0.03806399926543236;0.7661600112915039;1.1370400190353394;0.0;0.0;0.0
1783;0.0;0.0;0.0;0.06148799881339073;0.7856799960136414;1.132159948348999;0.0;0.0;0.0
1785;0.0;0.0;0.0;0.0849120020866394;0.8130080103874207;1.148751974105835;0.0;0.0;0.0
1787;-0.050995998084545135;0.9206119775772095;1.0216280221939087;0.09564799815416336;0.8442400097846985;1.1448479890823364;30.384376525878906;-38.709999084472656;-61.494998931884766
1789;0.0;0.0;0.0;0.10345599800348282;0.871567964553833;1.1282559633255005;0.0;0.0;0.0
1791;0.0;0.0;0.0;0.0849120020866394;0.9184159636497498;1.1526559591293335;0.0;0.0;0.0
1793;0.0;0.0;0.0;0.07710400223731995;0.9301279783248901;1.1331360340118408;0.0;0.0;0.0
1795;-0.03171999752521515;1.0450519323349;1.0150399208068848;0.11126399785280228;0.9496479630470276;1.1448479890823364;24.924375534057617;-35.84000015258789;-51.834999084472656
1798;0.0;0.0;0.0;0.10735999792814255;0.961359977722168;1.156559944152832;0.0;0.0;0.0
1800;0.0;0.0;0.0;0.09955199807882309;0.9145119786262512;1.140944004058838;0.0;0.0;0.0
1802;0.0;0.0;0.0;0.12297599762678146;0.9106079936027527;1.1770559549331665;0.0;0.0;0.0
1804;-0.022204000502824783;1.0638400316238403;1.0235799551010132;0.11907199770212173;0.9027999639511108;1.1770559549331665;13.934374809265137;-25.479999542236328;-42.17499923706055
1806;0.0;0.0;0.0;0.08881600201129913;0.9067040085792542;1.1692479848861694;0.0;0.0;0.0
1808;0.0;0.0;0.0;0.053679998964071274;0.8403359651565552;1.180959939956665;0.0;0.0;0.0
1810;0.0;0.0;0.0;0.03806399926543236;0.8247199654579163;1.2014559507369995;0.0;0.0;0.0
1813;-0.06417199969291687;0.985759973526001;1.0643279552459717;0.014639999717473984;0.8247199654579163;1.2336640357971191;3.224375009536743;-7.0;-37.76499938964844
1815;0.0;0.0;0.0;0.006831999868154526;0.8364319801330566;1.2502559423446655;0.0;0.0;0.0
1817;0.0;0.0;0.0;0.0029279999434947968;0.8012959957122803;1.2580640316009521;0.0;0.0;0.0
1819;0.0;0.0;0.0;-0.01659199967980385;0.7856799960136414;1.2697759866714478;0.0;0.0;0.0
1821;-0.1239520013332367;0.9362279772758484;1.1162999868392944;-0.00878399983048439;0.7427359819412231;1.2746559381484985;-3.2856249809265137;0.21000000834465027;-33.845001220703125
1823;0.0;0.0;0.0;-0.028303999453783035;0.7427359819412231;1.2863680124282837;0.0;0.0;0.0
1825;0.0;0.0;0.0;-0.05563199892640114;0.7544479966163635;1.30295991897583;0.0;0.0;0.0
1827;0.0;0.0;0.0;-0.09467199444770813;0.7154079675674438;1.3068640232086182;0.0;0.0;0.0
1830;-0.17958399653434753;0.8747400045394897;1.1704679727554321;-0.09467199444770813;0.7036960124969482;1.3146719932556152;-6.435625076293945;-6.650000095367432;-29.505001068115234
1832;0.0;0.0;0.0;-0.07905599474906921;0.7388319969177246;1.3234559297561646;0.0;0.0;0.0
1834;0.0;0.0;0.0;-0.06734399497509003;0.6958879828453064;1.295151948928833;0.0;0.0;0.0
1836;0.0;0.0;0.0;-0.0634399950504303;0.6685599684715271;1.3107680082321167;0.0;0.0;0.0
1838;-0.18958799540996552;0.832040011882782;1.1755919456481934;-0.03611199930310249;0.7036960124969482;1.2990559339523315;-12.17562484741211;-16.100000381469727;-28.735000610351562
1840;0.0;0.0;0.0;-0.00878399983048439;0.7193120121955872;1.2824640274047852;0.0;0.0;0.0
1842;0.0;0.0;0.0;0.006831999868154526;0.7075999975204468;1.246351957321167;0.0;0.0;0.0
1844;0.0;0.0;0.0;0.018543999642133713;0.684175968170166;1.2014559507369995;0.0;0.0;0.0
1847;-0.12443999946117401;0.8305760025978088;1.1128839254379272;0.0029279999434947968;0.684175968170166;1.1614400148391724;-17.28562355041504;-21.979999542236328;-25.235000610351562
1849;0.0;0.0;0.0;0.0302559994161129;0.6724640130996704;1.1370400190353394;0.0;0.0;0.0
1851;0.0;0.0;0.0;0.04196799919009209;0.6568480134010315;1.148751974105835;0.0;0.0;0.0
1853;0.0;0.0;0.0;0.10345599800348282;0.6568480134010315;1.124351978302002;0.0;0.0;0.0
1855;-0.06368400156497955;0.8030039668083191;1.0111359357833862;0.09955199807882309;0.6802719831466675;1.124351978302002;-16.095624923706055;-18.829999923706055;-16.065000534057617
1857;0.0;0.0;0.0;0.10345599800348282;0.6334239840507507;1.0677440166473389;0.0;0.0;0.0
1859;0.0;0.0;0.0;0.07320000231266022;0.6021919846534729;1.0589599609375;0.0;0.0;0.0
1861;0.0;0.0;0.0;0.057583998888731;0.5709599852561951;1.0794559717178345;0.0;0.0;0.0
1864;-0.03879600018262863;0.7427359819412231;0.9537959694862366;0.06148799881339073;0.5553439855575562;1.1204479932785034;-8.255624771118164;-6.300000190734863;-4.65500020980835
1866;0.0;0.0;0.0;0.06539200246334076;0.5319200158119202;1.075551986694336;0.0;0.0;0.0
1868;0.0;0.0;0.0;0.06929600238800049;0.5436319708824158;1.0677440166473389;0.0;0.0;0.0
1870;0.0;0.0;0.0;0.02635199949145317;0.4928799867630005;1.051151990890503;0.0;0.0;0.0
1872;-0.07246799767017365;0.6483079791069031;0.9420839548110962;0.02635199949145317;0.44993600249290466;1.0794559717178345;2.174375057220459;5.389999866485596;5.565000057220459
1874;0.0;0.0;0.0;0.02635199949145317;0.4421280026435852;1.132159948348999;0.0;0.0;0.0
1876;0.0;0.0;0.0;-0.01659199967980385;0.4577440023422241;1.165343999862671;0.0;0.0;0.0
1878;0.0;0.0;0.0;-0.020495999604463577;0.4577440023422241;1.197551965713501;0.0;0.0;0.0
1881;-0.14395999908447266;0.5763279795646667;1.018455982208252;-0.10638399422168732;0.4655520021915436;1.1858400106430054;12.114375114440918;18.830001831054688;10.8149995803833
1883;0.0;0.0;0.0;-0.15323199331760406;0.4655520021915436;1.2375680208206177;0.0;0.0;0.0
1885;0.0;0.0;0.0;-0.16396799683570862;0.5241119861602783;1.2375680208206177;0.0;0.0;0.0
1887;0.0;0.0;0.0;-0.16396799683570862;0.5553439855575562;1.2658720016479492;0.0;0.0;0.0
1889;-0.2671799957752228;0.6361079812049866;1.116055965423584;-0.1600639969110489;0.563152015209198;1.2619680166244507;16.80437660217285;26.880001068115234;11.864999771118164
1891;0.0;0.0;0.0;-0.14932799339294434;0.6060959696769714;1.278559923171997;0.0;0.0;0.0
1893;0.0;0.0;0.0;-0.14932799339294434;0.6217119693756104;1.2580640316009521;0.0;0.0;0.0
1895;0.0;0.0;0.0;-0.12199999392032623;0.6646559834480286;1.2668479681015015;0.0;0.0;0.0
1898;-0.2630319893360138;0.7693319916725159;1.1385040283203125;-0.1298079937696457;0.7115039825439453;1.2580640316009521;21.844375610351562;17.64000129699707;16.69499969482422
1900;0.0;0.0;0.0;-0.16396799683570862;0.7427359819412231;1.2863680124282837;0.0;0.0;0.0
1902;0.0;0.0;0.0;-0.14932799339294434;0.7973920106887817;1.2824640274047852;0.0;0.0;0.0
1904;0.0;0.0;0.0;-0.19129599630832672;0.8169119954109192;1.2746559381484985;0.0;0.0;0.0
1906;-0.2740119993686676;0.9128040075302124;1.1450920104980469;-0.187391996383667;0.8364319801330566;1.2668479681015015;28.634376525878906;5.53000020980835;26.28499984741211
1908;0.0;0.0;0.0;-0.187391996383667;0.8559519648551941;1.2902719974517822;0.0;0.0;0.0
1910;0.0;0.0;0.0;-0.1600639969110489;0.8325279951095581;1.2619680166244507;0.0;0.0;0.0
1912;0.0;0.0;0.0;-0.16396799683570862;0.8403359651565552;1.254159927368164;0.0;0.0;0.0
1915;-0.29523998498916626;0.9794159531593323;1.122156023979187;-0.12199999392032623;0.848143994808197;1.221951961517334;27.234375;-1.4000000953674316;35.665000915527344
1917;0.0;0.0;0.0;-0.10638399422168732;0.8130080103874207;1.2424479722976685;0.0;0.0;0.0
1919;0.0;0.0;0.0;-0.12590399384498596;0.7895839810371399;1.180959939956665;0.0;0.0;0.0
1921;0.0;0.0;0.0;-0.16396799683570862;0.7856799960136414;1.197551965713501;0.0;0.0;0.0
1923;-0.253028005361557;0.9259799718856812;1.0784800052642822;-0.17958399653434753;0.7466399669647217;1.214143991470337;22.96437644958496;-0.14000001549720764;43.57500076293945
1925;0.0;0.0;0.0;-0.20691199600696564;0.7036960124969482;1.221951961517334;0.0;0.0;0.0
1927;0.0;0.0;0.0;-0.22252799570560455;0.7115039825439453;1.2092639207839966;0.0;0.0;0.0
1929;0.0;0.0;0.0;-0.2420479953289032;0.6997919678688049;1.23854398727417;0.0;0.0;0.0
1932;-0.33842799067497253;0.8400920033454895;1.0867760181427002;-0.22643199563026428;0.6997919678688049;1.214143991470337;14.844374656677246;5.53000020980835;43.92499923706055
1934;0.0;0.0;0.0;-0.16787199676036835;0.6997919678688049;1.197551965713501;0.0;0.0;0.0
1936;0.0;0.0;0.0;-0.1756799966096878;0.6724640130996704;1.1526559591293335;0.0;0.0;0.0
1938;0.0;0.0;0.0;-0.1600639969110489;0.6724640130996704;1.1692479848861694;0.0;0.0;0.0
1940;-0.3089039921760559;0.8105679750442505;1.047003984451294;-0.15615999698638916;0.6685599684715271;1.1526559591293335;4.134374618530273;0.9099999666213989;42.17499923706055
1942;0.0;0.0;0.0;-0.10247999429702759;0.6490399837493896;1.1370400190353394;0.0;0.0;0.0
1944;0.0;0.0;0.0;-0.12199999392032623;0.6334239840507507;1.1165440082550049;0.0;0.0;0.0
1946;0.0;0.0;0.0;-0.14151999354362488;0.6139039993286133;1.1204479932785034;0.0;0.0;0.0
1949;-0.2547360062599182;0.7632319927215576;0.9833199977874756;-0.16103999316692352;0.6217119693756104;1.075551986694336;-4.615625381469727;-4.340000152587891;43.57500076293945
1951;0.0;0.0;0.0;-0.13761599361896515;0.6021919846534729;1.051151990890503;0.0;0.0;0.0
1953;0.0;0.0;0.0;-0.13761599361896515;0.6060959696769714;1.0355359315872192;0.0;0.0;0.0
1955;0.0;0.0;0.0;-0.13761599361896515;0.5592479705810547;0.9750239849090576;0.0;0.0;0.0
1957;-0.26669198274612427;0.7132120132446289;0.9027999639511108;-0.13761599361896515;0.4928799867630005;0.9789279699325562;-14.135624885559082;-2.380000114440918;46.165000915527344
1959;0.0;0.0;0.0;-0.11419199407100677;0.46164798736572266;0.9701439738273621;0.0;0.0;0.0
1961;0.0;0.0;0.0;-0.0907679945230484;0.4265120029449463;0.9301279783248901;0.0;0.0;0.0
1963;0.0;0.0;0.0;-0.05563199892640114;0.3757599890232086;0.9262239933013916;0.0;0.0;0.0
1966;-0.2222839891910553;0.5587599873542786;0.8220359683036804;-0.09857599437236786;0.3328160047531128;0.9301279783248901;-18.265625;9.869999885559082;49.80500030517578
1968;0.0;0.0;0.0;-0.09857599437236786;0.33671998977661133;0.9262239933013916;0.0;0.0;0.0
1970;0.0;0.0;0.0;-0.14054399728775024;0.32891198992729187;0.9662399888038635;0.0;0.0;0.0
1972;0.0;0.0;0.0;-0.17958399653434753;0.28596800565719604;0.9828319549560547;0.0;0.0;0.0
1974;-0.26034799218177795;0.4543280005455017;0.831063985824585;-0.19519999623298645;0.2898719906806946;0.986735999584198;-15.395625114440918;25.130001068115234;56.525001525878906
1976;0.0;0.0;0.0;-0.2030079960823059;0.3054879903793335;0.9906399846076965;0.0;0.0;0.0
1978;0.0;0.0;0.0;-0.19129599630832672;0.21569599211215973;0.9418399930000305;0.0;0.0;0.0
1981;0.0;0.0;0.0;-0.1600639969110489;0.1844639927148819;0.9545279741287231;0.0;0.0;0.0
1983;-0.29572799801826477;0.366487979888916;0.8349679708480835;-0.14151999354362488;0.12590399384498596;0.9701439738273621;-10.145625114440918;24.990001678466797;65.97500610351562
1985;0.0;0.0;0.0;-0.1600639969110489;0.09467199444770813;0.9750239849090576;0.0;0.0;0.0
1987;0.0;0.0;0.0;-0.17177599668502808;0.04782399907708168;0.9418399930000305;0.0;0.0;0.0
1989;0.0;0.0;0.0;-0.22252799570560455;-0.0029279999434947968;0.9906399846076965;0.0;0.0;0.0
1991;-0.3147599995136261;0.1908079981803894;0.8454599976539612;-0.2537599802017212;-0.0029279999434947968;1.0189440250396729;-1.7456250190734863;28.350000381469727;73.6050033569336
1993;0.0;0.0;0.0;-0.2810879945755005;-0.010735999792814255;1.0111359357833862;0.0;0.0;0.0
1995;0.0;0.0;0.0;-0.3474559783935547;-0.022447999566793442;1.02675199508667;0.0;0.0;0.0
1998;0.0;0.0;0.0;-0.34355199337005615;-0.053679998964071274;1.0433440208435059;0.0;0.0;0.0
2000;-0.4345639944076538;0.10223599523305893;0.9008479714393616;-0.33183997869491577;-0.06148799881339073;1.0433440208435059;4.414374828338623;33.38999938964844;76.26500701904297
2002;0.0;0.0;0.0;-0.3123199939727783;-0.10052800178527832;1.0433440208435059;0.0;0.0;0.0
2004;0.0;0.0;0.0;-0.2576639950275421;-0.1395680010318756;1.0472480058670044;0.0;0.0;0.0
2006;0.0;0.0;0.0;-0.2810879945755005;-0.22545599937438965;1.0316319465637207;0.0;0.0;0.0
2008;-0.4038199782371521;-0.007563999854028225;0.9103639721870422;-0.24985599517822266;-0.1903200000524521;1.0316319465637207;8.054374694824219;28.420001983642578;80.81500244140625
2010;0.0;0.0;0.0;-0.230335995554924;-0.2176479995250702;1.075551986694336;0.0;0.0;0.0
2012;0.0;0.0;0.0;-0.24595199525356293;-0.2683999836444855;1.099951982498169;0.0;0.0;0.0
2014;0.0;0.0;0.0;-0.2537599802017212;-0.2879199981689453;1.1282559633255005;0.0;0.0;0.0
2017;-0.38308000564575195;-0.12809999287128448;0.9757559895515442;-0.3123199939727783;-0.29572799801826477;1.148751974105835;12.814374923706055;33.11000061035156;84.03500366210938
2019;0.0;0.0;0.0;-0.3201279938220978;-0.2840159833431244;1.1858400106430054;0.0;0.0;0.0
2021;0.0;0.0;0.0;-0.35916799306869507;-0.3230559825897217;1.2180479764938354;0.0;0.0;0.0
2023;0.0;0.0;0.0;-0.39430397748947144;-0.34647998213768005;1.2424479722976685;0.0;0.0;0.0
2025;-0.47848400473594666;-0.19885998964309692;1.0860439538955688;-0.37088000774383545;-0.3777119815349579;1.2863680124282837;10.854374885559082;32.060001373291016;84.03500366210938
2027;0.0;0.0;0.0;-0.374783992767334;-0.41284799575805664;1.3068640232086182;0.0;0.0;0.0
2029;0.0;0.0;0.0;-0.39430397748947144;-0.4714079797267914;1.3185759782791138;0.0;0.0;0.0
2032;0.0;0.0;0.0;-0.39820799231529236;-0.447983980178833;1.3722559213638306;0.0;0.0;0.0
2034;-0.5075199604034424;-0.30060797929763794;1.1977959871292114;-0.42846399545669556;-0.447983980178833;1.4083679914474487;0.28437501192092896;24.57000160217285;79.06500244140625
2036;0.0;0.0;0.0;-0.4870239794254303;-0.44017598032951355;1.392751932144165;0.0;0.0;0.0
2038;0.0;0.0;0.0;-0.49483197927474976;-0.41284799575805664;1.417151927947998;0.0;0.0;0.0
2040;0.0;0.0;0.0;-0.42455998063087463;-0.4089439809322357;1.4044640064239502;0.0;0.0;0.0
2042;-0.5668119788169861;-0.2984119951725006;1.2531839609146118;-0.39820799231529236;-0.4635999798774719;1.3556640148162842;-18.96562385559082;9.239999771118164;72.55500030517578
2044;0.0;0.0;0.0;-0.32793599367141724;-0.5182560086250305;1.2746559381484985;0.0;0.0;0.0
2046;0.0;0.0;0.0;-0.23814399540424347;-0.5963360071182251;1.2375680208206177;0.0;0.0;0.0
2049;0.0;0.0;0.0;-0.19910399615764618;-0.6627039909362793;1.205359935760498;0.0;0.0;0.0
2051;-0.374783992767334;-0.4596959948539734;1.1194720268249512;-0.18348799645900726;-0.7407839894294739;1.1614400148391724;-38.705623626708984;-17.079999923706055;73.81500244140625
2053;0.0;0.0;0.0;-0.1483519971370697;-0.8539999723434448;1.165343999862671;0.0;0.0;0.0
2055;0.0;0.0;0.0;-0.1756799966096878;-0.9281759858131409;1.1370400190353394;0.0;0.0;0.0
2057;0.0;0.0;0.0;-0.2147199958562851;-1.0335839986801147;1.148751974105835;0.0;0.0;0.0
2059;-0.30743998289108276;-0.8051999807357788;1.0284600257873535;-0.19910399615764618;-1.1272799968719482;1.165343999862671;-47.805625915527344;-11.760000228881836;73.2550048828125
2062;0.0;0.0;0.0;-0.19129599630832672;-1.1663199663162231;1.197551965713501;0.0;0.0;0.0
2063;0.0;0.0;0.0;-0.19129599630832672;-1.256111979484558;1.221951961517334;0.0;0.0;0.0
2066;0.0;0.0;0.0;-0.21862399578094482;-1.3420000076293945;1.2424479722976685;0.0;0.0;0.0
2068;-0.330375999212265;-1.1204479932785034;1.0948280096054077;-0.2147199958562851;-1.3810399770736694;1.270751953125;-54.455623626708984;5.110000133514404;64.99500274658203
2070;0.0;0.0;0.0;-0.24595199525356293;-1.435696005821228;1.3107680082321167;0.0;0.0;0.0
2072;0.0;0.0;0.0;-0.2810879945755005;-1.4825439453125;1.3400479555130005;0.0;0.0;0.0
2074;0.0;0.0;0.0;-0.24985599517822266;-1.5137759447097778;1.3722559213638306;0.0;0.0;0.0
2076;-0.3777119815349579;-1.33980393409729;1.203895926475525;-0.2654719948768616;-1.525488018989563;1.3839679956436157;-58.795623779296875;7.769999980926514;53.025001525878906
2078;0.0;0.0;0.0;-0.2576639950275421;-1.5450079441070557;1.3761600255966187;0.0;0.0;0.0
2080;0.0;0.0;0.0;-0.2693759799003601;-1.5840479135513306;1.3595679998397827;0.0;0.0;0.0
2083;0.0;0.0;0.0;-0.1571359932422638;-1.5879520177841187;1.3185759782791138;0.0;0.0;0.0
2085;-0.33476799726486206;-1.4344760179519653;1.2173160314559937;-0.13761599361896515;-1.6074719429016113;1.30295991897583;-57.395626068115234;-12.880000114440918;40.775001525878906
2087;0.0;0.0;0.0;-0.11419199407100677;-1.5996639728546143;1.2668479681015015;0.0;0.0;0.0
2089;0.0;0.0;0.0;-0.0009759999811649323;-1.6347999572753906;1.189743995666504;0.0;0.0;0.0
2091;0.0;0.0;0.0;0.03415999934077263;-1.6504160165786743;1.132159948348999;0.0;0.0;0.0
2093;-0.14151999354362488;-1.5066999197006226;1.069208025932312;0.09174399822950363;-1.7011679410934448;1.1038559675216675;-45.56562423706055;-51.72999954223633;36.57500076293945
2095;0.0;0.0;0.0;0.11126399785280228;-1.6660319566726685;1.0355359315872192;0.0;0.0;0.0
2097;0.0;0.0;0.0;0.13859200477600098;-1.7323999404907227;0.9584319591522217;0.0;0.0;0.0
2100;0.0;0.0;0.0;0.1542080044746399;-1.759727954864502;0.8813279867172241;0.0;0.0;0.0
2102;0.009271999821066856;-1.5918560028076172;0.8249639868736267;0.13859200477600098;-1.7987679243087769;0.8286240100860596;-27.92562484741211;-76.08999633789062;36.64500045776367
2104;0.0;0.0;0.0;0.1542080044746399;-1.857327938079834;0.7671359777450562;0.0;0.0;0.0
2106;0.0;0.0;0.0;0.17372798919677734;-1.8768479824066162;0.7671359777450562;0.0;0.0;0.0
2108;0.0;0.0;0.0;0.17763200402259827;-1.8768479824066162;0.7310239672660828;0.0;0.0;0.0
2110;0.06685599684715271;-1.7275199890136719;0.6419639587402344;0.22448000311851501;-1.900272011756897;0.6861279606819153;-12.735625267028809;-73.56999969482422;29.9950008392334
2112;0.0;0.0;0.0;0.2635200023651123;-1.9315040111541748;0.6949119567871094;0.0;0.0;0.0
2114;0.0;0.0;0.0;0.29475200176239014;-1.900272011756897;0.6461119651794434;0.0;0.0;0.0
2117;0.0;0.0;0.0;0.32598400115966797;-1.8534239530563354;0.6295199990272522;0.0;0.0;0.0
2119;0.18397599458694458;-1.734839916229248;0.536799967288971;0.3640480041503906;-1.7987679243087769;0.6090239882469177;-3.565624952316284;-49.77000045776367;13.545000076293945
2121;0.0;0.0;0.0;0.387472003698349;-1.7519199848175049;0.6051200032234192;0.0;0.0;0.0
2123;0.0;0.0;0.0;0.4265120029449463;-1.6465119123458862;0.5602239966392517;0.0;0.0;0.0
2125;0.0;0.0;0.0;0.40699198842048645;-1.6074719429016113;0.5690079927444458;0.0;0.0;0.0
2127;0.2840159833431244;-1.5398839712142944;0.4589639902114868;0.4147999882698059;-1.5606240034103394;0.5280159711837769;7.424375057220459;-26.03999900817871;-0.3850000202655792
2129;0.0;0.0;0.0;0.4265120029449463;-1.5059679746627808;0.49190399050712585;0.0;0.0;0.0
2131;0.0;0.0;0.0;0.44603198766708374;-1.4630240201950073;0.47921597957611084;0.0;0.0;0.0
2134;0.0;0.0;0.0;0.44993600249290466;-1.4161759614944458;0.47921597957611084;0.0;0.0;0.0
2136;0.3257399797439575;-1.327847957611084;0.37551599740982056;0.47336000204086304;-1.3810399770736694;0.48799997568130493;22.614376068115234;-19.8799991607666;-5.075000286102295
2138;0.0;0.0;0.0;0.4928799867630005;-1.338096022605896;0.48799997568130493;0.0;0.0;0.0
2140;0.0;0.0;0.0;0.5045920014381409;-1.2990559339523315;0.48799997568130493;0.0;0.0;0.0
2142;0.0;0.0;0.0;0.4694559872150421;-1.3068640232086182;0.5036159753799438;0.0;0.0;0.0
2144;0.35282400250434875;-1.1848639249801636;0.3723439872264862;0.4030880033969879;-1.2600159645080566;0.4997119903564453;35.49437713623047;-10.779999732971191;-9.135000228881836
2146;0.0;0.0;0.0;0.35233598947525024;-1.2287839651107788;0.5163040161132812;0.0;0.0;0.0
2148;0.0;0.0;0.0;0.31036800146102905;-1.2209759950637817;0.5563200116157532;0.0;0.0;0.0
2151;0.0;0.0;0.0;0.2869440019130707;-1.1819360256195068;0.5768159627914429;0.0;0.0;0.0
2153;0.2088640034198761;-1.0748199224472046;0.44066399335861206;0.25571200251579285;-1.1428959369659424;0.6666079759597778;38.2243766784668;14.489999771118164;-18.725000381469727
2155;0.0;0.0;0.0;0.21667200326919556;-1.0921440124511719;0.6783199906349182;0.0;0.0;0.0
2157;0.0;0.0;0.0;0.18934398889541626;-1.0374879837036133;0.7427359819412231;0.0;0.0;0.0
2159;0.0;0.0;0.0;0.12297599762678146;-1.0062559843063354;0.7632319927215576;0.0;0.0;0.0
2161;0.07027199864387512;-0.8971880078315735;0.59853196144104;0.115167997777462;-0.8852319717407227;0.7915359735488892;31.71437644958496;43.26000213623047;-33.28499984741211
2164;0.0;0.0;0.0;0.08881600201129913;-0.8500959873199463;0.8081279993057251;0.0;0.0;0.0
2165;0.0;0.0;0.0;0.08100800216197968;-0.8461920022964478;0.8325279951095581;0.0;0.0;0.0
2168;0.0;0.0;0.0;0.03806399926543236;-0.8344799876213074;0.8247199654579163;0.0;0.0;0.0
2170;-0.04684799909591675;-0.7268759608268738;0.712723970413208;0.03806399926543236;-0.8383839726448059;0.896943986415863;21.844375610351562;50.04999923706055;-42.875
2172;0.0;0.0;0.0;-0.0009759999811649323;-0.8266719579696655;0.9018239974975586;0.0;0.0;0.0
2174;0.0;0.0;0.0;-0.028303999453783035;-0.8188639879226685;0.937936007976532;0.0;0.0;0.0
2176;0.0;0.0;0.0;-0.05172799900174141;-0.7954399585723877;0.9789279699325562;0.0;0.0;0.0
2178;-0.14347200095653534;-0.6729519963264465;0.8161799907684326;-0.11419199407100677;-0.7720159888267517;0.9984479546546936;16.384376525878906;47.810001373291016;-50.01499938964844
2180;0.0;0.0;0.0;-0.187391996383667;-0.7446879744529724;0.9984479546546936;0.0;0.0;0.0
2182;0.0;0.0;0.0;-0.22252799570560455;-0.6822239756584167;1.0550559759140015;0.0;0.0;0.0
2185;0.0;0.0;0.0;-0.2537599802017212;-0.7017439603805542;1.0638400316238403;0.0;0.0;0.0
2187;-0.3333039879798889;-0.5770599842071533;0.9091439843177795;-0.23814399540424347;-0.709551990032196;1.0394400358200073;9.804374694824219;45.63999938964844;-58.415000915527344
2189;0.0;0.0;0.0;-0.2030079960823059;-0.6861279606819153;1.0716480016708374;0.0;0.0;0.0
2191;0.0;0.0;0.0;-0.2030079960823059;-0.6431840062141418;1.148751974105835;0.0;0.0;0.0
2193;0.0;0.0;0.0;-0.20691199600696564;-0.5729119777679443;1.1692479848861694;0.0;0.0;0.0
2195;-0.3286679983139038;-0.49653998017311096;0.9955199956893921;-0.187391996383667;-0.5963360071182251;1.189743995666504;6.794374942779541;38.43000030517578;-67.65499877929688
2198;0.0;0.0;0.0;-0.2420479953289032;-0.5690079927444458;1.2092639207839966;0.0;0.0;0.0
2199;0.0;0.0;0.0;-0.22252799570560455;-0.5690079927444458;1.221951961517334;0.0;0.0;0.0
2202;0.0;0.0;0.0;-0.29280000925064087;-0.5885279774665833;1.246351957321167;0.0;0.0;0.0
2204;-0.3681959807872772;-0.4365159869194031;1.1006839275360107;-0.2967039942741394;-0.5807200074195862;1.2658720016479492;3.434375047683716;31.71000099182129;-72.625
2206;0.0;0.0;0.0;-0.3240320086479187;-0.5885279774665833;1.2824640274047852;0.0;0.0;0.0
2208;0.0;0.0;0.0;-0.33183997869491577;-0.611952006816864;1.2990559339523315;0.0;0.0;0.0
2210;0.0;0.0;0.0;-0.3786879777908325;-0.6002399921417236;1.3146719932556152;0.0;0.0;0.0
2212;-0.47262799739837646;-0.47091999650001526;1.1702239513397217;-0.3933279812335968;-0.6080479621887207;1.3478559255599976;-0.13562500476837158;17.780000686645508;-79.625
2215;0.0;0.0;0.0;-0.3903999924659729;-0.561199963092804;1.3517600297927856;0.0;0.0;0.0
2217;0.0;0.0;0.0;-0.4206559956073761;-0.5182560086250305;1.2990559339523315;0.0;0.0;0.0
2219;0.0;0.0;0.0;-0.3630719780921936;-0.4753119945526123;1.2863680124282837;0.0;0.0;0.0
2221;-0.4992239773273468;-0.38649600744247437;1.175104022026062;-0.34355199337005615;-0.4206559956073761;1.2658720016479492;-3.145624876022339;-1.540000081062317;-88.58499908447266
2223;0.0;0.0;0.0;-0.28889599442481995;-0.3699039816856384;1.2014559507369995;0.0;0.0;0.0
2225;0.0;0.0;0.0;-0.17177599668502808;-0.30353599786758423;1.189743995666504;0.0;0.0;0.0
2227;0.0;0.0;0.0;-0.0907679945230484;-0.25278398394584656;1.1204479932785034;0.0;0.0;0.0
2229;-0.30646398663520813;-0.1820240020751953;1.0433440208435059;-0.08295999467372894;-0.21374399960041046;1.099951982498169;1.614375114440918;-37.939998626708984;-90.26499938964844
2232;0.0;0.0;0.0;-0.00878399983048439;-0.1512800008058548;1.0472480058670044;0.0;0.0;0.0
2234;0.0;0.0;0.0;0.053679998964071274;-0.08100800216197968;1.0316319465637207;0.0;0.0;0.0
2236;0.0;0.0;0.0;0.06539200246334076;-0.02635199949145317;0.986735999584198;0.0;0.0;0.0
2238;-0.09637999534606934;0.047091998159885406;0.8935279846191406;0.11907199770212173;0.03611199930310249;0.9545279741287231;10.9243745803833;-63.13999938964844;-84.03499603271484
2240;0.0;0.0;0.0;0.14640000462532043;0.0907679945230484;0.921343982219696;0.0;0.0;0.0
2242;0.0;0.0;0.0;0.17763200402259827;0.09467199444770813;0.896943986415863;0.0;0.0;0.0
2244;0.0;0.0;0.0;0.17372798919677734;0.09857599437236786;0.8442400097846985;0.0;0.0;0.0
2246;0.05197199806571007;0.22130799293518066;0.7607919573783875;0.20495998859405518;0.05563199892640114;0.8198399543762207;14.14437484741211;-67.47999572753906;-75.35499572753906
2249;0.0;0.0;0.0;0.2088640034198761;0.07515199482440948;0.7954399585723877;0.0;0.0;0.0
2251;0.0;0.0;0.0;0.22448000311851501;0.0907679945230484;0.8247199654579163;0.0;0.0;0.0
2253;0.0;0.0;0.0;0.24009600281715393;0.10247999429702759;0.8286240100860596;0.0;0.0;0.0
2255;0.1088239997625351;0.22545599937438965;0.7017439603805542;0.2205759882926941;0.13761599361896515;0.8735199570655823;13.864375114440918;-45.07999801635742;-73.11499786376953
2257;0.0;0.0;0.0;0.20105600357055664;0.21959999203681946;0.9018239974975586;0.0;0.0;0.0
2259;0.0;0.0;0.0;0.21667200326919556;0.2781600058078766;0.945743978023529;0.0;0.0;0.0
2261;0.0;0.0;0.0;0.1815359890460968;0.34062400460243225;0.9662399888038635;0.0;0.0;0.0
2263;0.06612399965524673;0.4101639986038208;0.8054440021514893;0.15030398964881897;0.4030880033969879;0.9945439696311951;9.034375190734863;-3.640000104904175;-79.9749984741211
2266;0.0;0.0;0.0;0.1268799901008606;0.4811680018901825;1.0228480100631714;0.0;0.0;0.0
2268;0.0;0.0;0.0;0.13078400492668152;0.5475360155105591;1.051151990890503;0.0;0.0;0.0
2270;0.0;0.0;0.0;0.13078400492668152;0.5709599852561951;1.0677440166473389;0.0;0.0;0.0
2272;0.0056119998916983604;0.6646559834480286;0.9076799750328064;0.13078400492668152;0.6217119693756104;1.0843359231948853;3.5743751525878906;11.34000015258789;-81.79499816894531
2274;0.0;0.0;0.0;0.13566400110721588;0.6958879828453064;1.1126400232315063;0.0;0.0;0.0
2276;0.0;0.0;0.0;0.13566400110721588;0.7232159972190857;1.132159948348999;0.0;0.0;0.0
2278;0.0;0.0;0.0;0.1395680010318756;0.7427359819412231;1.1282559633255005;0.0;0.0;0.0
2280;0.01903199963271618;0.851315975189209;0.9862479567527771;0.1239520013332367;0.7778719663619995;1.1126400232315063;1.5443750619888306;7.210000038146973;-77.03499603271484
2283;0.0;0.0;0.0;0.11224000155925751;0.7778719663619995;1.124351978302002;0.0;0.0;0.0
2285;0.0;0.0;0.0;0.12785600125789642;0.7349280118942261;1.1165440082550049;0.0;0.0;0.0
2287;0.0;0.0;0.0;0.10150399804115295;0.7036960124969482;1.140944004058838;0.0;0.0;0.0
2289;-0.017079999670386314;0.8705919981002808;1.0082080364227295;0.0663679987192154;0.6919839978218079;1.1848639249801636;1.9643750190734863;2.6600000858306885;-69.54499816894531
2291;0.0;0.0;0.0;0.03806399926543236;0.6997919678688049;1.229759931564331;0.0;0.0;0.0
2293;0.0;0.0;0.0;-0.004879999905824661;0.7193120121955872;1.2863680124282837;0.0;0.0;0.0
2295;0.0;0.0;0.0;-0.01268799975514412;0.7271199822425842;1.3556640148162842;0.0;0.0;0.0
2297;-0.11077599972486496;0.8488759994506836;1.1497279405593872;-0.04782399907708168;0.750544011592865;1.3595679998397827;-0.13562500476837158;15.119999885559082;-72.48499298095703
2300;0.0;0.0;0.0;-0.07124799489974976;0.8051999807357788;1.392751932144165;0.0;0.0;0.0
2302;0.0;0.0;0.0;-0.10247999429702759;0.8247199654579163;1.3888479471206665;0.0;0.0;0.0
2304;0.0;0.0;0.0;-0.12199999392032623;0.8910880088806152;1.409343957901001;0.0;0.0;0.0
2306;-0.22448000311851501;0.9745360016822815;1.2641639709472656;-0.1180959939956665;0.9340319633483887;1.3878719806671143;-10.775625228881836;24.010000228881836;-78.85499572753906
2308;0.0;0.0;0.0;-0.0907679945230484;0.962336003780365;1.4220319986343384;0.0;0.0;0.0
2310;0.0;0.0;0.0;-0.04391999915242195;1.0208959579467773;1.4054399728775024;0.0;0.0;0.0
2312;0.0;0.0;0.0;-0.00878399983048439;1.075551986694336;1.377135992050171;0.0;0.0;0.0
2314;-0.17348399758338928;1.1629040241241455;1.2551360130310059;0.0029279999434947968;1.1145919561386108;1.3488320112228394;-13.92562484741211;3.1500000953674316;-74.65499877929688
2317;0.0;0.0;0.0;0.03806399926543236;1.122399926185608;1.3000320196151733;0.0;0.0;0.0
2319;0.0;0.0;0.0;0.057583998888731;1.1419199705123901;1.2590399980545044;0.0;0.0;0.0
2321;0.0;0.0;0.0;0.07320000231266022;1.1458239555358887;1.2024319171905518;0.0;0.0;0.0
2323;-0.07685999572277069;1.2580640316009521;1.122399926185608;0.07710400223731995;1.0989760160446167;1.1575360298156738;-6.995625019073486;-28.559999465942383;-58.345001220703125
2325;0.0;0.0;0.0;0.12297599762678146;1.1058080196380615;1.0921440124511719;0.0;0.0;0.0
2327;0.0;0.0;0.0;0.16591998934745789;1.0550559759140015;1.0550559759140015;0.0;0.0;0.0
2329;0.0;0.0;0.0;0.18934398889541626;1.0394400358200073;1.0560319423675537;0.0;0.0;0.0
2331;0.0302559994161129;1.193892002105713;0.9677039980888367;0.21276798844337463;1.0043039321899414;1.0599359273910522;4.974374771118164;-42.349998474121094;-39.584999084472656
2334;0.0;0.0;0.0;0.24009600281715393;0.9847840070724487;1.0599359273910522;0.0;0.0;0.0
2336;0.0;0.0;0.0;0.22448000311851501;0.9184159636497498;1.0638400316238403;0.0;0.0;0.0
2338;0.0;0.0;0.0;0.2518079876899719;0.8988959789276123;1.0355359315872192;0.0;0.0;0.0
2340;0.1134599968791008;1.0723799467086792;0.9281759858131409;0.24399998784065247;0.9106079936027527;1.051151990890503;12.814374923706055;-21.349998474121094;-25.024999618530273
2342;0.0;0.0;0.0;0.18934398889541626;0.9223200082778931;1.1204479932785034;0.0;0.0;0.0
2344;0.0;0.0;0.0;0.18544000387191772;0.9067040085792542;1.099951982498169;0.0;0.0;0.0
2346;0.0;0.0;0.0;0.11907199770212173;0.9184159636497498;1.180959939956665;0.0;0.0;0.0
2348;0.05563199892640114;1.0435879230499268;1.0016199350357056;0.12297599762678146;0.9262239933013916;1.1770559549331665;12.814374923706055;11.0600004196167;-12.565000534057617
2350;0.0;0.0;0.0;0.13468798995018005;0.9067040085792542;1.1770559549331665;0.0;0.0;0.0
2353;0.0;0.0;0.0;0.09272000193595886;0.871567964553833;1.2014559507369995;0.0;0.0;0.0
2355;0.0;0.0;0.0;0.045871999114751816;0.8988959789276123;1.221951961517334;0.0;0.0;0.0
2357;-0.04391999915242195;1.0294359922409058;1.0699399709701538;0.0302559994161129;0.8676639795303345;1.221951961517334;9.034375190734863;33.25;-2.3450000286102295
2359;0.0;0.0;0.0;-0.01659199967980385;0.871567964553833;1.246351957321167;0.0;0.0;0.0
2361;0.0;0.0;0.0;-0.03611199930310249;0.8637599945068359;1.2863680124282837;0.0;0.0;0.0
2363;0.0;0.0;0.0;-0.0634399950504303;0.8832799792289734;1.30295991897583;0.0;0.0;0.0
2365;-0.1424959897994995;1.0011320114135742;1.1345999240875244;-0.07124799489974976;0.8754720091819763;1.30295991897583;13.024374961853027;38.71000289916992;7.664999961853027
2368;0.0;0.0;0.0;-0.06734399497509003;0.8793759942054749;1.3107680082321167;0.0;0.0;0.0
2370;0.0;0.0;0.0;-0.08686399459838867;0.8403359651565552;1.3517600297927856;0.0;0.0;0.0
2372;0.0;0.0;0.0;-0.09857599437236786;0.8247199654579163;1.3761600255966187;0.0;0.0;0.0
2374;-0.2054480016231537;0.9781959652900696;1.2175599336624146;-0.11028799414634705;0.8208159804344177;1.3888479471206665;17.504375457763672;33.18000030517578;17.325000762939453
2376;0.0;0.0;0.0;-0.13761599361896515;0.8325279951095581;1.3761600255966187;0.0;0.0;0.0
2378;0.0;0.0;0.0;-0.13761599361896515;0.8012959957122803;1.3839679956436157;0.0;0.0;0.0
2380;0.0;0.0;0.0;-0.18348799645900726;0.7583519816398621;1.4249600172042847;0.0;0.0;0.0
2382;-0.27083998918533325;0.9235399961471558;1.274899959564209;-0.2147199958562851;0.7349280118942261;1.4288640022277832;17.434375762939453;28.630001068115234;24.325000762939453
2385;0.0;0.0;0.0;-0.230335995554924;0.7622559666633606;1.441551923751831;0.0;0.0;0.0
2387;0.0;0.0;0.0;-0.23814399540424347;0.750544011592865;1.465951919555664;0.0;0.0;0.0
2389;0.0;0.0;0.0;-0.27718400955200195;0.7700639963150024;1.4854719638824463;0.0;0.0;0.0
2391;-0.38308000564575195;0.8771799802780151;1.3366320133209229;-0.32793599367141724;0.7778719663619995;1.4864479303359985;12.464374542236328;30.100000381469727;26.635000228881836
2393;0.0;0.0;0.0;-0.35526400804519653;0.7710399627685547;1.5157279968261719;0.0;0.0;0.0
2395;0.0;0.0;0.0;-0.34355199337005615;0.7788479924201965;1.4952319860458374;0.0;0.0;0.0
2397;0.0;0.0;0.0;-0.3669759929180145;0.7788479924201965;1.499135971069336;0.0;0.0;0.0
2399;-0.4677479863166809;0.9062159657478333;1.3676199913024902;-0.3396480083465576;0.7671359777450562;1.4864479303359985;4.974374771118164;26.18000030517578;27.614999771118164
2402;0.0;0.0;0.0;-0.3201279938220978;0.7398079633712769;1.4864479303359985;0.0;0.0;0.0
2404;0.0;0.0;0.0;-0.30060797929763794;0.7632319927215576;1.5196319818496704;0.0;0.0;0.0
2406;0.0;0.0;0.0;-0.2810879945755005;0.7241919636726379;1.4952319860458374;0.0;0.0;0.0
2408;-0.4352959990501404;0.8762039542198181;1.355907917022705;-0.29280000925064087;0.7319999933242798;1.490351915359497;0.7743750214576721;9.869999885559082;33.564998626708984
2410;0.0;0.0;0.0;-0.29280000925064087;0.6880800127983093;1.465951919555664;0.0;0.0;0.0
2412;0.0;0.0;0.0;-0.32793599367141724;0.6451359987258911;1.458143949508667;0.0;0.0;0.0
2414;0.0;0.0;0.0;-0.31622397899627686;0.6373279690742493;1.4532639980316162;0.0;0.0;0.0
2416;-0.43432000279426575;0.7947080135345459;1.325652003288269;-0.3123199939727783;0.5943840146064758;1.4327679872512817;-3.705625057220459;-0.3500000238418579;39.935001373291016
2419;0.0;0.0;0.0;-0.30060797929763794;0.5787680149078369;1.4083679914474487;0.0;0.0;0.0
2421;0.0;0.0;0.0;-0.30451199412345886;0.5475360155105591;1.392751932144165;0.0;0.0;0.0
2423;0.0;0.0;0.0;-0.284991979598999;0.5436319708824158;1.3839679956436157;0.0;0.0;0.0
