Timestamp(ms);LG-Accel x(g);LG-Accel y(g);LG-Accel z(g);HG-Accel x(g);HG-Accel y(g);HG-Accel z(g);Gyro x(dps);Gyro y(dps);Gyro z(dps)
85;0.0;0.0;0.0;0.1698240041732788;-2.518079996109009;0.8764479756355286;0.0;0.0;0.0
87;0.0;0.0;0.0;0.22448000311851501;-2.518079996109009;0.8159359693527222;0.0;0.0;0.0
89;0.0;0.0;0.0;0.2908479869365692;-2.5219838619232178;0.7632319927215576;0.0;0.0;0.0
91;0.0;0.0;0.0;0.2908479869365692;-2.5063679218292236;0.7222399711608887;0.0;0.0;0.0
93;0.0;0.0;0.0;0.33769598603248596;-2.4751360416412354;0.6783199906349182;0.0;0.0;0.0
95;0.0;0.0;0.0;0.3640480041503906;-2.4575679302215576;0.6187840104103088;0.0;0.0;0.0
97;0.0;0.0;0.0;0.3640480041503906;-2.4263360500335693;0.5982879996299744;0.0;0.0;0.0
100;0.0;0.0;0.0;0.4108960032463074;-2.406816005706787;0.5416799783706665;0.0;0.0;0.0
102;0.2601040005683899;-2.280911922454834;0.4618919789791107;0.4138239920139313;-2.3287360668182373;0.5045920014381409;0.0;0.0;0.0
104;0.0;0.0;0.0;0.42163199186325073;-2.2662720680236816;0.47628799080848694;0.0;0.0;0.0
106;0.0;0.0;0.0;0.4567679762840271;-2.21942400932312;0.45188799500465393;0.0;0.0;0.0
108;0.0;0.0;0.0;0.46457600593566895;-2.1452479362487793;0.4079679846763611;0.0;0.0;0.0
110;0.32427600026130676;-2.0720479488372803;0.321835994720459;0.460671991109848;-2.0554559230804443;0.3835679888725281;0.0;0.0;0.0
112;0.0;0.0;0.0;0.48799997568130493;-1.9890879392623901;0.3396480083465576;0.0;0.0;0.0
114;0.0;0.0;0.0;0.5231360197067261;-1.8680639266967773;0.3357439935207367;0.0;0.0;0.0
117;0.0;0.0;0.0;0.5387519598007202;-1.7392319440841675;0.3513599932193756;0.0;0.0;0.0
119;0.39771997928619385;-1.7214199304580688;0.23179998993873596;0.5504639744758606;-1.5869759321212769;0.3474559783935547;0.0;0.0;0.0
121;0.0;0.0;0.0;0.5738880038261414;-1.497183918952942;0.3474559783935547;0.0;0.0;0.0
123;0.0;0.0;0.0;0.5582720041275024;-1.3800640106201172;0.3718560039997101;0.0;0.0;0.0
125;0.0;0.0;0.0;0.5543680191040039;-1.278559923171997;0.3474559783935547;0.0;0.0;0.0
127;0.43846797943115234;-1.2614799737930298;0.24619600176811218;0.5543680191040039;-1.2278079986572266;0.37966400384902954;0.0;0.0;0.0
129;0.0;0.0;0.0;0.5231360197067261;-1.1302080154418945;0.4030880033969879;0.0;0.0;0.0
131;0.0;0.0;0.0;0.5075199604034424;-1.0169919729232788;0.4274879992008209;0.0;0.0;0.0
134;0.0;0.0;0.0;0.48019200563430786;-0.962336003780365;0.4274879992008209;0.0;0.0;0.0
136;0.3962559998035431;-0.8974319696426392;0.29816800355911255;0.4684799909591675;-0.8374080061912537;0.4967840015888214;0.0;0.0;0.0
138;0.0;0.0;0.0;0.4411519765853882;-0.7710399627685547;0.537775993347168;0.0;0.0;0.0
140;0.0;0.0;0.0;0.40991997718811035;-0.6734399795532227;0.6100000143051147;0.0;0.0;0.0
142;0.0;0.0;0.0;0.32891198992729187;-0.5914559960365295;0.6958879828453064;0.0;0.0;0.0
144;0.26620399951934814;-0.5436319708824158;0.4970279932022095;0.28596800565719604;-0.5055679678916931;0.7768959999084473;47.01374816894531;132.12936401367188;-74.73812866210938
146;0.0;0.0;0.0;0.2000799924135208;-0.45871999859809875;0.8344799876213074;0.0;0.0;0.0
149;0.0;0.0;0.0;0.15323199331760406;-0.3845439851284027;0.9525759816169739;0.0;0.0;0.0
151;0.0;0.0;0.0;0.09857599437236786;-0.32598400115966797;1.0247999429702759;0.0;0.0;0.0
153;0.027327999472618103;-0.2579079866409302;0.8054440021514893;0.013663999736309052;-0.28303998708724976;1.1058080196380615;51.283748626708984;166.98936462402344;-68.43812561035156
155;0.0;0.0;0.0;-0.044895999133586884;-0.22838398814201355;1.2200000286102295;0.0;0.0;0.0
157;0.0;0.0;0.0;-0.10345599800348282;-0.2088640034198761;1.3088159561157227;0.0;0.0;0.0
159;0.0;0.0;0.0;-0.17665599286556244;-0.11907199770212173;1.4064159393310547;0.0;0.0;0.0
161;-0.22618798911571503;-0.042211998254060745;1.1738840341567993;-0.26254400610923767;-0.09564799815416336;1.4708319902420044;49.32374954223633;183.9293670654297;-62.698123931884766
164;0.0;0.0;0.0;-0.3211039900779724;-0.044895999133586884;1.5977119207382202;0.0;0.0;0.0
165;0.0;0.0;0.0;-0.4138239920139313;-0.02147199958562851;1.6709120273590088;0.0;0.0;0.0
168;0.0;0.0;0.0;-0.47628799080848694;0.0019519999623298645;1.7714399099349976;0.0;0.0;0.0
170;-0.5245999693870544;0.11126399785280228;1.5293920040130615;-0.5387519598007202;0.013663999736309052;1.8290239572525024;39.803749084472656;178.32937622070312;-59.68812561035156
172;0.0;0.0;0.0;-0.5660799741744995;0.0878399983048439;1.9461439847946167;0.0;0.0;0.0
174;0.0;0.0;0.0;-0.5807200074195862;0.1542080044746399;2.015439987182617;0.0;0.0;0.0
176;0.0;0.0;0.0;-0.6236639618873596;0.15030398964881897;2.0310559272766113;0.0;0.0;0.0
178;-0.7254120111465454;0.2537599802017212;1.8421999216079712;-0.6861279606819153;0.16591998934745789;2.0632638931274414;22.653749465942383;145.70936584472656;-60.59812545776367
181;0.0;0.0;0.0;-0.6783199906349182;0.1542080044746399;2.0954718589782715;0.0;0.0;0.0
183;0.0;0.0;0.0;-0.748591959476471;0.13859200477600098;2.1032800674438477;0.0;0.0;0.0
185;0.0;0.0;0.0;-0.7759199738502502;0.1542080044746399;2.1149919033050537;0.0;0.0;0.0
187;-0.851315975189209;0.27620798349380493;1.9441919326782227;-0.7212640047073364;0.11126399785280228;2.0661919116973877;0.4637500047683716;89.9893798828125;-63.67812728881836
189;0.0;0.0;0.0;-0.7642079591751099;0.15811198949813843;2.0954718589782715;0.0;0.0;0.0
191;0.0;0.0;0.0;-0.6783199906349182;0.09955199807882309;2.0339839458465576;0.0;0.0;0.0
193;0.0;0.0;0.0;-0.6978399753570557;0.13468798995018005;2.0144639015197754;0.0;0.0;0.0
195;-0.8298439979553223;0.2659600079059601;1.9088119268417358;-0.6509919762611389;0.1268799901008606;1.9900639057159424;-17.876249313354492;28.03937530517578;-69.5581283569336
198;0.0;0.0;0.0;-0.6002399921417236;0.15811198949813843;1.954927921295166;0.0;0.0;0.0
200;0.0;0.0;0.0;-0.5387519598007202;0.12297599762678146;1.8485440015792847;0.0;0.0;0.0
202;0.0;0.0;0.0;-0.5426560044288635;0.1815359890460968;1.8485440015792847;0.0;0.0;0.0
204;-0.6912519931793213;0.2776719927787781;1.7411839962005615;-0.46457600593566895;0.13859200477600098;1.7070239782333374;-31.456249237060547;-30.830625534057617;-74.94812774658203
206;0.0;0.0;0.0;-0.460671991109848;0.17372798919677734;1.6992160081863403;0.0;0.0;0.0
208;0.0;0.0;0.0;-0.38259199261665344;0.11126399785280228;1.6016160249710083;0.0;0.0;0.0
210;0.0;0.0;0.0;-0.32891198992729187;0.16201600432395935;1.5245119333267212;0.0;0.0;0.0
212;-0.49312397837638855;0.27840399742126465;1.4593639373779297;-0.21959999203681946;0.16591998934745789;1.4308159351348877;-38.66625213623047;-80.390625;-76.69812774658203
215;0.0;0.0;0.0;-0.18836799263954163;0.22448000311851501;1.3410239219665527;0.0;0.0;0.0
217;0.0;0.0;0.0;-0.16884799301624298;0.16201600432395935;1.2121919393539429;0.0;0.0;0.0
219;0.0;0.0;0.0;-0.10735999792814255;0.21276798844337463;1.1790080070495605;0.0;0.0;0.0
221;-0.2757200002670288;0.33476799726486206;1.1216679811477661;-0.05270399898290634;0.2205759882926941;1.1106879711151123;-41.32625198364258;-108.32062530517578;-74.94812774658203
223;0.0;0.0;0.0;-0.0331839993596077;0.18934398889541626;1.0287039279937744;0.0;0.0;0.0
225;0.0;0.0;0.0;0.07612799853086472;0.19324800372123718;0.9564799666404724;0.0;0.0;0.0
227;0.0;0.0;0.0;0.13761599361896515;0.1815359890460968;0.8793759942054749;0.0;0.0;0.0
229;-0.0634399950504303;0.32964399456977844;0.8347240090370178;0.18055999279022217;0.21276798844337463;0.8305760025978088;-38.316253662109375;-113.29061889648438;-71.16812896728516
231;0.0;0.0;0.0;0.19227199256420135;0.20495998859405518;0.757375955581665;0.0;0.0;0.0
234;0.0;0.0;0.0;0.24302399158477783;0.20105600357055664;0.6880800127983093;0.0;0.0;0.0
236;0.0;0.0;0.0;0.3093920052051544;0.19324800372123718;0.676367998123169;0.0;0.0;0.0
238;0.1407880038022995;0.33476799726486206;0.583404004573822;0.3601439893245697;0.19324800372123718;0.6197599768638611;-27.81624984741211;-97.75062561035156;-62.06812286376953
240;0.0;0.0;0.0;0.4060159921646118;0.19715198874473572;0.5660799741744995;0.0;0.0;0.0
242;0.0;0.0;0.0;0.387472003698349;0.2205759882926941;0.5543680191040039;0.0;0.0;0.0
244;0.0;0.0;0.0;0.37966400384902954;0.29475200176239014;0.5709599852561951;0.0;0.0;0.0
246;0.2803559899330139;0.3723439872264862;0.44993600249290466;0.4265120029449463;0.3416000008583069;0.5543680191040039;-9.056249618530273;-62.260623931884766;-54.0881233215332
249;0.0;0.0;0.0;0.4138239920139313;0.4274879992008209;0.5426560044288635;0.0;0.0;0.0
251;0.0;0.0;0.0;0.42553597688674927;0.4782399833202362;0.5582720041275024;0.0;0.0;0.0
253;0.0;0.0;0.0;0.4684799909591675;0.521183967590332;0.5670560002326965;0.0;0.0;0.0
255;0.321835994720459;0.6014599800109863;0.4387120008468628;0.44896000623703003;0.5602239966392517;0.5748639702796936;12.50374984741211;-14.870624542236328;-50.798126220703125
257;0.0;0.0;0.0;0.4333440065383911;0.5953599810600281;0.5914559960365295;0.0;0.0;0.0
259;0.0;0.0;0.0;0.40699198842048645;0.6734399795532227;0.6148799657821655;0.0;0.0;0.0
261;0.0;0.0;0.0;0.3718560039997101;0.685151994228363;0.6685599684715271;0.0;0.0;0.0
263;0.2727919816970825;0.7937319874763489;0.5138639807701111;0.26254400610923767;0.7866559624671936;0.7456640005111694;32.31374740600586;43.01937484741211;-40.788124084472656
266;0.0;0.0;0.0;0.27425599098205566;0.8139839768409729;0.7651839852333069;0.0;0.0;0.0
268;0.0;0.0;0.0;0.18055999279022217;0.9115839600563049;0.8383839726448059;0.0;0.0;0.0
270;0.0;0.0;0.0;0.12590399384498596;0.9389119744300842;0.8910880088806152;0.0;0.0;0.0
272;0.04562800005078316;1.0355359315872192;0.7102839946746826;0.0019519999623298645;1.0716480016708374;0.9886879920959473;52.26374816894531;99.71937561035156;-27.068124771118164
274;0.0;0.0;0.0;-0.04879999905824661;1.1067839860916138;1.0208959579467773;0.0;0.0;0.0
276;0.0;0.0;0.0;-0.11907199770212173;1.1614400148391724;1.0775039196014404;0.0;0.0;0.0
278;0.0;0.0;0.0;-0.18836799263954163;1.2551360130310059;1.1672959327697754;0.0;0.0;0.0
280;-0.2408279925584793;1.303447961807251;0.9596520066261292;-0.26254400610923767;1.2200000286102295;1.1956000328063965;69.41374969482422;128.69937133789062;-10.828125
283;0.0;0.0;0.0;-0.2937760055065155;1.3371199369430542;1.3049119710922241;0.0;0.0;0.0
285;0.0;0.0;0.0;-0.3396480083465576;1.4269119501113892;1.3937280178070068;0.0;0.0;0.0
287;0.0;0.0;0.0;-0.39820799231529236;1.4932799339294434;1.4464319944381714;0.0;0.0;0.0
289;-0.47433599829673767;1.543787956237793;1.2431799173355103;-0.4997119903564453;1.5362240076065063;1.5118240118026733;80.47374725341797;134.71937561035156;8.77187442779541
291;0.0;0.0;0.0;-0.5504639744758606;1.5674560070037842;1.564527988433838;0.0;0.0;0.0
293;0.0;0.0;0.0;-0.611952006816864;1.5674560070037842;1.6055200099945068;0.0;0.0;0.0
295;0.0;0.0;0.0;-0.6548959612846375;1.645535945892334;1.6953120231628418;0.0;0.0;0.0
297;-0.7305359840393066;1.7216639518737793;1.4849839210510254;-0.6900320053100586;1.6728639602661133;1.7724159955978394;82.43374633789062;118.26937866210938;28.931875228881836
300;0.0;0.0;0.0;-0.725167989730835;1.7119039297103882;1.8114559650421143;0.0;0.0;0.0
302;0.0;0.0;0.0;-0.7915359735488892;1.7197120189666748;1.8768479824066162;0.0;0.0;0.0
304;0.0;0.0;0.0;-0.7915359735488892;1.7470399141311646;1.9295519590377808;0.0;0.0;0.0
306;-0.8932839632034302;1.855131983757019;1.7101960182189941;-0.8452159762382507;1.7821760177612305;1.9295519590377808;71.23374938964844;75.91938018798828;47.83187484741211
308;0.0;0.0;0.0;-0.8305760025978088;1.7782719135284424;1.9207680225372314;0.0;0.0;0.0
310;0.0;0.0;0.0;-0.8149600028991699;1.7782719135284424;1.92467200756073;0.0;0.0;0.0
312;0.0;0.0;0.0;-0.7915359735488892;1.793887972831726;1.9695680141448975;0.0;0.0;0.0
314;-0.9452559947967529;1.8995399475097656;1.7831519842147827;-0.7603039741516113;1.7509440183639526;1.9129599332809448;42.9537467956543;18.589374542236328;60.43187713623047
317;0.0;0.0;0.0;-0.7407839894294739;1.7587519884109497;1.8612319231033325;0.0;0.0;0.0
319;0.0;0.0;0.0;-0.6548959612846375;1.7392319440841675;1.816335916519165;0.0;0.0;0.0
321;0.0;0.0;0.0;-0.6627039909362793;1.6767679452896118;1.7519199848175049;0.0;0.0;0.0
323;-0.8210600018501282;1.8470799922943115;1.6743279695510864;-0.6431840062141418;1.6182079315185547;1.7031199932098389;2.7037501335144043;-33.6306266784668;69.74187469482422
325;0.0;0.0;0.0;-0.5856000185012817;1.5713599920272827;1.6338239908218384;0.0;0.0;0.0
327;0.0;0.0;0.0;-0.5885279774665833;1.5049920082092285;1.5167039632797241;0.0;0.0;0.0
329;0.0;0.0;0.0;-0.5504639744758606;1.4308159351348877;1.4386240243911743;0.0;0.0;0.0
331;-0.6885679960250854;1.6218680143356323;1.3961679935455322;-0.4684799909591675;1.3449280261993408;1.3576159477233887;-37.33625030517578;-66.7406234741211;77.51187133789062
334;0.0;0.0;0.0;-0.4060159921646118;1.270751953125;1.28929603099823;0.0;0.0;0.0
336;0.0;0.0;0.0;-0.39820799231529236;1.2043839693069458;1.207311987876892;0.0;0.0;0.0
338;0.0;0.0;0.0;-0.3093920052051544;1.0989760160446167;1.150704026222229;0.0;0.0;0.0
340;-0.4962959885597229;1.3258960247039795;1.1011719703674316;-0.28596800565719604;1.044319987297058;1.1389919519424438;-64.35625457763672;-81.1606216430664;86.68186950683594
342;0.0;0.0;0.0;-0.2391199916601181;0.9584319591522217;1.0775039196014404;0.0;0.0;0.0
344;0.0;0.0;0.0;-0.21959999203681946;0.8256959915161133;1.0452959537506104;0.0;0.0;0.0
346;0.0;0.0;0.0;-0.19227199256420135;0.7515199780464172;0.9886879920959473;0.0;0.0;0.0
348;-0.34306398034095764;0.9803919792175293;0.9018239974975586;-0.18055999279022217;0.6461119651794434;0.9076799750328064;-79.61624908447266;-77.59062194824219;94.87187194824219
351;0.0;0.0;0.0;-0.16103999316692352;0.5524159669876099;0.8666880130767822;0.0;0.0;0.0
353;0.0;0.0;0.0;-0.1571359932422638;0.4274879992008209;0.8217920064926147;0.0;0.0;0.0
355;0.0;0.0;0.0;-0.09564799815416336;0.3455039858818054;0.7895839810371399;0.0;0.0;0.0
357;-0.24595199525356293;0.5668119788169861;0.7032079696655273;-0.037087999284267426;0.22838398814201355;0.7446879744529724;-82.48625183105469;-67.93061828613281;103.90187072753906
359;0.0;0.0;0.0;-0.0019519999623298645;0.16201600432395935;0.7612800002098083;0.0;0.0;0.0
361;0.0;0.0;0.0;0.0019519999623298645;0.05660799890756607;0.7124800086021423;0.0;0.0;0.0
363;0.0;0.0;0.0;0.013663999736309052;-0.0019519999623298645;0.7163839936256409;0.0;0.0;0.0
365;-0.1290760040283203;0.20374000072479248;0.6041439771652222;-0.029279999434947968;-0.0878399983048439;0.708575963973999;-70.51625061035156;-49.66062545776367;111.25186920166016
368;0.0;0.0;0.0;-0.0029279999434947968;-0.1424959897994995;0.725167989730835;0.0;0.0;0.0
370;0.0;0.0;0.0;0.01659199967980385;-0.22448000311851501;0.700767993927002;0.0;0.0;0.0
372;0.0;0.0;0.0;-0.02635199949145317;-0.24009600281715393;0.757375955581665;0.0;0.0;0.0
374;-0.12224400043487549;-0.07783599942922592;0.6034119725227356;-0.02635199949145317;-0.2908479869365692;0.7534719705581665;-48.32625198364258;-24.46062469482422;118.60187530517578
376;0.0;0.0;0.0;-0.03806399926543236;-0.3533119857311249;0.8100799918174744;0.0;0.0;0.0
378;0.0;0.0;0.0;-0.0849120020866394;-0.36111998558044434;0.8588799834251404;0.0;0.0;0.0
380;0.0;0.0;0.0;-0.09662400186061859;-0.4001599848270416;0.8588799834251404;0.0;0.0;0.0
382;-0.18544000387191772;-0.25229600071907043;0.7073559761047363;-0.09662400186061859;-0.4470079839229584;0.8910880088806152;-24.176250457763672;-6.890625;125.0418701171875
385;0.0;0.0;0.0;-0.09955199807882309;-0.5094720125198364;0.9037759900093079;0.0;0.0;0.0
387;0.0;0.0;0.0;-0.13078400492668152;-0.513375997543335;0.9320799708366394;0.0;0.0;0.0
389;0.0;0.0;0.0;-0.11907199770212173;-0.5836479663848877;0.9476959705352783;0.0;0.0;0.0
391;-0.24253599345684052;-0.3928399980068207;0.8051999807357788;-0.13078400492668152;-0.610975980758667;0.9808799624443054;-5.066249847412109;-6.540625095367432;130.15187072753906
393;0.0;0.0;0.0;-0.15323199331760406;-0.6383039951324463;0.9925919771194458;0.0;0.0;0.0
395;0.0;0.0;0.0;-0.15323199331760406;-0.708575963973999;0.9564799666404724;0.0;0.0;0.0
397;0.0;0.0;0.0;-0.16201600432395935;-0.7671359777450562;0.9603840112686157;0.0;0.0;0.0
399;-0.2705959975719452;-0.5533919930458069;0.8339920043945312;-0.13078400492668152;-0.7710399627685547;0.9564799666404724;8.373749732971191;-16.620624542236328;131.06187438964844
402;0.0;0.0;0.0;-0.10345599800348282;-0.8100799918174744;0.9193919897079468;0.0;0.0;0.0
404;0.0;0.0;0.0;-0.10735999792814255;-0.8569279909133911;0.9281759858131409;0.0;0.0;0.0
406;0.0;0.0;0.0;-0.04879999905824661;-0.8335039615631104;0.9437919855117798;0.0;0.0;0.0
408;-0.21203599870204926;-0.7054039835929871;0.7998319864273071;-0.02147199958562851;-0.8686400055885315;0.9154880046844482;18.453750610351562;-28.94062614440918;126.7918701171875
410;0.0;0.0;0.0;0.0019519999623298645;-0.8647359609603882;0.9037759900093079;0.0;0.0;0.0
412;0.0;0.0;0.0;0.0019519999623298645;-0.8452159762382507;0.8988959789276123;0.0;0.0;0.0
414;0.0;0.0;0.0;0.040991999208927155;-0.8608319759368896;0.9076799750328064;0.0;0.0;0.0
416;-0.10955599695444107;-0.7356599569320679;0.7746999859809875;0.029279999434947968;-0.8686400055885315;0.9154880046844482;24.05375099182129;-32.30062484741211;120.7718734741211
419;0.0;0.0;0.0;0.08003199845552444;-0.8686400055885315;0.9515999555587769;0.0;0.0;0.0
421;0.0;0.0;0.0;0.07222399860620499;-0.8920639753341675;0.9681919813156128;0.0;0.0;0.0
423;0.0;0.0;0.0;0.06441599875688553;-0.9350079894065857;0.9681919813156128;0.0;0.0;0.0
425;-0.062219999730587006;-0.7671359777450562;0.8303319811820984;0.0331839993596077;-0.9662399888038635;1.0003999471664429;19.293750762939453;-20.890625;115.171875
427;0.0;0.0;0.0;0.029279999434947968;-0.9974719882011414;1.0374879837036133;0.0;0.0;0.0
429;0.0;0.0;0.0;0.0058559998869895935;-1.036512017250061;1.0696959495544434;0.0;0.0;0.0
431;0.0;0.0;0.0;-0.013663999736309052;-1.0638400316238403;1.0940959453582764;0.0;0.0;0.0
433;-0.11834000051021576;-0.9045079946517944;0.941107988357544;-0.037087999284267426;-1.122399926185608;1.1546080112457275;3.8237500190734863;3.539374828338623;105.09187316894531
436;0.0;0.0;0.0;-0.0878399983048439;-1.1419199705123901;1.199504017829895;0.0;0.0;0.0
438;0.0;0.0;0.0;-0.08393599838018417;-1.1887680292129517;1.2522079944610596;0.0;0.0;0.0
440;0.0;0.0;0.0;-0.11907199770212173;-1.2473279237747192;1.2278079986572266;0.0;0.0;0.0
442;-0.22326000034809113;-1.065303921699524;1.0921440124511719;-0.1844639927148819;-1.3058879375457764;1.2766079902648926;-18.436250686645508;20.89937400817871;90.0418701171875
444;0.0;0.0;0.0;-0.16494399309158325;-1.411296010017395;1.297104001045227;0.0;0.0;0.0
446;0.0;0.0;0.0;-0.1844639927148819;-1.4230079650878906;1.3742079734802246;0.0;0.0;0.0
448;0.0;0.0;0.0;-0.16103999316692352;-1.45033597946167;1.3420000076293945;0.0;0.0;0.0
450;-0.30329200625419617;-1.288807988166809;1.1843760013580322;-0.2000799924135208;-1.5362240076065063;1.3166239261627197;-39.6462516784668;12.149375915527344;73.171875
453;0.0;0.0;0.0;-0.19227199256420135;-1.5869759321212769;1.3010079860687256;0.0;0.0;0.0
455;0.0;0.0;0.0;-0.19227199256420135;-1.6494399309158325;1.2522079944610596;0.0;0.0;0.0
457;0.0;0.0;0.0;-0.1571359932422638;-1.6845759153366089;1.223904013633728;0.0;0.0;0.0
459;-0.30060797929763794;-1.4888880252838135;1.12801194190979;-0.11126399785280228;-1.696287989616394;1.199504017829895;-54.34625244140625;-16.830625534057617;55.60187530517578
461;0.0;0.0;0.0;-0.08003199845552444;-1.7314239740371704;1.182911992073059;0.0;0.0;0.0
463;0.0;0.0;0.0;-0.040991999208927155;-1.7470399141311646;1.1428959369659424;0.0;0.0;0.0
465;0.0;0.0;0.0;-0.0331839993596077;-1.7665599584579468;1.1302080154418945;0.0;0.0;0.0
467;-0.1751919984817505;-1.60698401927948;1.0230920314788818;0.0058559998869895935;-1.793887972831726;1.0657919645309448;-59.386253356933594;-41.82062530517578;38.52187728881836
470;0.0;0.0;0.0;-0.0019519999623298645;-1.8134080171585083;1.0579839944839478;0.0;0.0;0.0
472;0.0;0.0;0.0;0.029279999434947968;-1.8797760009765625;0.9964959621429443;0.0;0.0;0.0
474;0.0;0.0;0.0;0.02537599951028824;-1.9071040153503418;0.9681919813156128;0.0;0.0;0.0
476;-0.08930400013923645;-1.7387440204620361;0.8847439885139465;0.06831999868154526;-1.9656639099121094;0.9193919897079468;-61.696250915527344;-52.390625;22.49187660217285
478;0.0;0.0;0.0;0.0878399983048439;-2.016416072845459;0.9154880046844482;0.0;0.0;0.0
480;0.0;0.0;0.0;0.12199999392032623;-2.028127908706665;0.9027999639511108;0.0;0.0;0.0
482;0.0;0.0;0.0;0.1180959939956665;-2.106207847595215;0.8549759984016418;0.0;0.0;0.0
484;-0.0024399999529123306;-1.9078359603881836;0.7612800002098083;0.14932799339294434;-2.110111951828003;0.8344799876213074;-60.92625045776367;-54.84062576293945;5.481874942779541
487;0.0;0.0;0.0;0.21569599211215973;-2.1491520404815674;0.8061760067939758;0.0;0.0;0.0
489;0.0;0.0;0.0;0.22740799188613892;-2.1413440704345703;0.7456640005111694;0.0;0.0;0.0
491;0.0;0.0;0.0;0.24302399158477783;-2.1803839206695557;0.757375955581665;0.0;0.0;0.0
493;0.08173999935388565;-2.0098278522491455;0.6463559865951538;0.23131199181079865;-2.1764800548553467;0.6968640089035034;-57.1462516784668;-47.700626373291016;-14.958125114440918
495;0.0;0.0;0.0;0.25863999128341675;-2.129631996154785;0.6724640130996704;0.0;0.0;0.0
497;0.0;0.0;0.0;0.29767999053001404;-2.129631996154785;0.6675840020179749;0.0;0.0;0.0
499;0.0;0.0;0.0;0.2937760055065155;-2.0788800716400146;0.610975980758667;0.0;0.0;0.0
501;0.16201600432395935;-1.9700559377670288;0.5231360197067261;0.3328160047531128;-2.043743848800659;0.5992639660835266;-45.876251220703125;-39.58062744140625;-35.048126220703125
504;0.0;0.0;0.0;0.32891198992729187;-1.9968959093093872;0.563152015209198;0.0;0.0;0.0
506;0.0;0.0;0.0;0.3172000050544739;-2.0007998943328857;0.5582720041275024;0.0;0.0;0.0
508;0.0;0.0;0.0;0.3601439893245697;-1.9266239404678345;0.5182560086250305;0.0;0.0;0.0
510;0.23472799360752106;-1.8336600065231323;0.41113999485969543;0.387472003698349;-1.8953919410705566;0.47336000204086304;-27.956249237060547;-32.6506233215332;-50.65812301635742
512;0.0;0.0;0.0;0.3718560039997101;-1.832927942276001;0.4655520021915436;0.0;0.0;0.0
514;0.0;0.0;0.0;0.4138239920139313;-1.7704639434814453;0.4694559872150421;0.0;0.0;0.0
516;0.0;0.0;0.0;0.41870400309562683;-1.7079999446868896;0.46164798736572266;0.0;0.0;0.0
518;0.2786479890346527;-1.6367520093917847;0.3535560071468353;0.4138239920139313;-1.6611520051956177;0.47336000204086304;-8.916250228881836;-16.830625534057617;-62.55812454223633
521;0.0;0.0;0.0;0.42455998063087463;-1.5752639770507812;0.48604798316955566;0.0;0.0;0.0
523;0.0;0.0;0.0;0.4138239920139313;-1.5245119333267212;0.48507198691368103;0.0;0.0;0.0
525;0.0;0.0;0.0;0.42846399545669556;-1.4073920249938965;0.48604798316955566;0.0;0.0;0.0
527;0.3147599995136261;-1.3685959577560425;0.3623400032520294;0.42455998063087463;-1.3449280261993408;0.5299679636955261;7.043750286102295;12.639375686645508;-73.19812774658203
529;0.0;0.0;0.0;0.38649600744247437;-1.2668479681015015;0.5387519598007202;0.0;0.0;0.0
531;0.0;0.0;0.0;0.37088000774383545;-1.173151969909668;0.5787680149078369;0.0;0.0;0.0
533;0.0;0.0;0.0;0.30451199412345886;-1.1302080154418945;0.6070719957351685;0.0;0.0;0.0
536;0.22716400027275085;-1.0477359294891357;0.4667719900608063;0.2576639950275421;-1.0208959579467773;0.6724640130996704;18.103750228881836;53.51937484741211;-81.03813171386719
538;0.0;0.0;0.0;0.2117919921875;-0.9545279741287231;0.6968640089035034;0.0;0.0;0.0
540;0.0;0.0;0.0;0.18836799263954163;-0.8569279909133911;0.7778719663619995;0.0;0.0;0.0
542;0.0;0.0;0.0;0.16494399309158325;-0.8022719621658325;0.8266719579696655;0.0;0.0;0.0
544;0.07075999677181244;-0.738099992275238;0.6431840062141418;0.13761599361896515;-0.7202879786491394;0.8705919981002808;25.033750534057617;87.81938171386719;-84.88813018798828
546;0.0;0.0;0.0;0.0878399983048439;-0.6929599642753601;0.9281759858131409;0.0;0.0;0.0
548;0.0;0.0;0.0;0.0331839993596077;-0.5953599810600281;0.9847840070724487;0.0;0.0;0.0
550;0.0;0.0;0.0;-0.02537599951028824;-0.5563200116157532;1.0452959537506104;0.0;0.0;0.0
553;-0.0924759954214096;-0.48214399814605713;0.852292001247406;-0.07222399860620499;-0.48604798316955566;1.097999930381775;28.603750228881836;105.17938232421875;-85.44812774658203
555;0.0;0.0;0.0;-0.10345599800348282;-0.4626239836215973;1.1058080196380615;0.0;0.0;0.0
557;0.0;0.0;0.0;-0.16494399309158325;-0.4001599848270416;1.2034080028533936;0.0;0.0;0.0
559;0.0;0.0;0.0;-0.15030398964881897;-0.3416000008583069;1.2160959243774414;0.0;0.0;0.0
561;-0.24351198971271515;-0.25449198484420776;1.0584720373153687;-0.1727519929409027;-0.2869440019130707;1.272704005241394;27.483749389648438;107.76937866210938;-85.86812591552734
563;0.0;0.0;0.0;-0.2235039919614792;-0.2205759882926941;1.3176000118255615;0.0;0.0;0.0
565;0.0;0.0;0.0;-0.2508319914340973;-0.1815359890460968;1.3742079734802246;0.0;0.0;0.0
567;0.0;0.0;0.0;-0.2937760055065155;-0.12297599762678146;1.4220319986343384;0.0;0.0;0.0
570;-0.37795600295066833;-0.04758000001311302;1.2373239994049072;-0.3211039900779724;-0.09564799815416336;1.4425280094146729;22.583749771118164;103.70938110351562;-86.3581314086914
572;0.0;0.0;0.0;-0.35526400804519653;-0.037087999284267426;1.5040159225463867;0.0;0.0;0.0
574;0.0;0.0;0.0;-0.3903999924659729;-0.0058559998869895935;1.5157279968261719;0.0;0.0;0.0
576;0.0;0.0;0.0;-0.4333440065383911;0.07222399860620499;1.5772159099578857;0.0;0.0;0.0
578;-0.5121560096740723;0.14518000185489655;1.3949480056762695;-0.4567679762840271;0.115167997777462;1.6172319650650024;15.163749694824219;92.36937713623047;-86.21813201904297
580;0.0;0.0;0.0;-0.43724799156188965;0.11126399785280228;1.6055200099945068;0.0;0.0;0.0
582;0.0;0.0;0.0;-0.4567679762840271;0.19715198874473572;1.6504160165786743;0.0;0.0;0.0
584;0.0;0.0;0.0;-0.44896000623703003;0.18544000387191772;1.6426079273223877;0.0;0.0;0.0
587;-0.5719360113143921;0.30060797929763794;1.5001119375228882;-0.4684799909591675;0.2518079876899719;1.6709120273590088;6.693749904632568;68.21937561035156;-82.92813110351562
589;0.0;0.0;0.0;-0.46164798736572266;0.24009600281715393;1.6904319524765015;0.0;0.0;0.0
591;0.0;0.0;0.0;-0.4655520021915436;0.2518079876899719;1.686527967453003;0.0;0.0;0.0
593;0.0;0.0;0.0;-0.48897600173950195;0.29475200176239014;1.6992160081863403;0.0;0.0;0.0
595;-0.594871997833252;0.4055279791355133;1.5572079420089722;-0.4811680018901825;0.3181760013103485;1.7314239740371704;-0.4462500214576721;38.399375915527344;-77.6081314086914
597;0.0;0.0;0.0;-0.5084959864616394;0.31036800146102905;1.6904319524765015;0.0;0.0;0.0
599;0.0;0.0;0.0;-0.4928799867630005;0.36111998558044434;1.7314239740371704;0.0;0.0;0.0
601;0.0;0.0;0.0;-0.47336000204086304;0.32207998633384705;1.6748160123825073;0.0;0.0;0.0
604;-0.6224439740180969;0.4555479884147644;1.5623319149017334;-0.5045920014381409;0.3455039858818054;1.718735933303833;-7.446249961853027;9.349374771118164;-72.078125
606;0.0;0.0;0.0;-0.4840959906578064;0.36111998558044434;1.6543200016021729;0.0;0.0;0.0
608;0.0;0.0;0.0;-0.48019200563430786;0.31036800146102905;1.6299200057983398;0.0;0.0;0.0
610;0.0;0.0;0.0;-0.45286399126052856;0.34940800070762634;1.6709120273590088;0.0;0.0;0.0
612;-0.5980439782142639;0.4684799909591675;1.5184119939804077;-0.4021120071411133;0.36111998558044434;1.637727975845337;-13.81624984741211;-18.720624923706055;-67.66812896728516
614;0.0;0.0;0.0;-0.38649600744247437;0.38844799995422363;1.6094239950180054;0.0;0.0;0.0
616;0.0;0.0;0.0;-0.39820799231529236;0.36502400040626526;1.5489119291305542;0.0;0.0;0.0
618;0.0;0.0;0.0;-0.4021120071411133;0.38844799995422363;1.4835200309753418;0.0;0.0;0.0
621;-0.5067880153656006;0.5121560096740723;1.4064159393310547;-0.3474559783935547;0.3806400001049042;1.4425280094146729;-18.646249771118164;-45.8806266784668;-62.8381233215332
623;0.0;0.0;0.0;-0.3211039900779724;0.3689279854297638;1.3742079734802246;0.0;0.0;0.0
625;0.0;0.0;0.0;-0.2508319914340973;0.3728320002555847;1.3576159477233887;0.0;0.0;0.0
627;0.0;0.0;0.0;-0.20398399233818054;0.3416000008583069;1.297104001045227;0.0;0.0;0.0
629;-0.37917599081993103;0.4984920024871826;1.221463918685913;-0.1844639927148819;0.3845439851284027;1.2932000160217285;-16.896249771118164;-72.34062194824219;-55.34812545776367
631;0.0;0.0;0.0;-0.13468798995018005;0.31036800146102905;1.199504017829895;0.0;0.0;0.0
633;0.0;0.0;0.0;-0.12297599762678146;0.34940800070762634;1.175104022026062;0.0;0.0;0.0
635;0.0;0.0;0.0;-0.06441599875688553;0.29475200176239014;1.126304030418396;0.0;0.0;0.0
638;-0.23692399263381958;0.4560360014438629;1.0445640087127686;-0.05270399898290634;0.3025600016117096;1.0940959453582764;-15.706250190734863;-86.97061920166016;-46.73812484741211
640;0.0;0.0;0.0;-0.013663999736309052;0.2908479869365692;1.0618879795074463;0.0;0.0;0.0
642;0.0;0.0;0.0;0.02537599951028824;0.2791360020637512;1.0169919729232788;0.0;0.0;0.0
644;0.0;0.0;0.0;0.07222399860620499;0.24399998784065247;0.9847840070724487;0.0;0.0;0.0
646;-0.08759599924087524;0.3974759876728058;0.8947479724884033;0.10247999429702759;0.21667200326919556;0.9437919855117798;-16.33625030517578;-86.97061920166016;-41.41812515258789
648;0.0;0.0;0.0;0.11419199407100677;0.18934398889541626;0.9281759858131409;0.0;0.0;0.0
650;0.0;0.0;0.0;0.1727519929409027;0.19715198874473572;0.8988959789276123;0.0;0.0;0.0
652;0.0;0.0;0.0;0.1844639927148819;0.1698240041732788;0.8949919939041138;0.0;0.0;0.0
655;0.03001200035214424;0.3172000050544739;0.7944639921188354;0.20788799226284027;0.16201600432395935;0.8910880088806152;-18.366249084472656;-67.58061981201172;-40.71812438964844
657;0.0;0.0;0.0;0.1844639927148819;0.18544000387191772;0.8949919939041138;0.0;0.0;0.0
659;0.0;0.0;0.0;0.19227199256420135;0.18544000387191772;0.8549759984016418;0.0;0.0;0.0
661;0.0;0.0;0.0;0.16884799301624298;0.20105600357055664;0.8705919981002808;0.0;0.0;0.0
663;0.06709999591112137;0.32037198543548584;0.7605479955673218;0.1727519929409027;0.22448000311851501;0.8832799792289734;-18.646249771118164;-38.110626220703125;-41.48812484741211
665;0.0;0.0;0.0;0.18836799263954163;0.24009600281715393;0.8793759942054749;0.0;0.0;0.0
667;0.0;0.0;0.0;0.16884799301624298;0.2205759882926941;0.8793759942054749;0.0;0.0;0.0
670;0.0;0.0;0.0;0.13761599361896515;0.22448000311851501;0.9037759900093079;0.0;0.0;0.0
672;0.0424560010433197;0.35819199681282043;0.7637199759483337;0.15323199331760406;0.22448000311851501;0.9076799750328064;-14.0962495803833;-16.410625457763672;-37.288124084472656
674;0.0;0.0;0.0;0.12590399384498596;0.2088640034198761;0.9076799750328064;0.0;0.0;0.0
676;0.0;0.0;0.0;0.1727519929409027;0.18544000387191772;0.9115839600563049;0.0;0.0;0.0
678;0.0;0.0;0.0;0.12199999392032623;0.16201600432395935;0.9437919855117798;0.0;0.0;0.0
680;0.021715998649597168;0.32720398902893066;0.7929999828338623;0.12590399384498596;0.18934398889541626;0.9437919855117798;-4.926249980926514;-7.800624847412109;-28.11812400817871
682;0.0;0.0;0.0;0.1454239934682846;0.14640000462532043;0.9759999513626099;0.0;0.0;0.0
684;0.0;0.0;0.0;0.12590399384498596;0.15030398964881897;0.9886879920959473;0.0;0.0;0.0
686;0.0;0.0;0.0;0.07612799853086472;0.115167997777462;0.9964959621429443;0.0;0.0;0.0
689;-0.007807999849319458;0.2659600079059601;0.8437519669532776;0.08003199845552444;0.09564799815416336;1.0091840028762817;4.453750133514404;-1.3606250286102295;-20.48812484741211
691;0.0;0.0;0.0;0.06441599875688553;0.13859200477600098;1.0335839986801147;0.0;0.0;0.0
693;0.0;0.0;0.0;0.0331839993596077;0.06831999868154526;1.0169919729232788;0.0;0.0;0.0
695;0.0;0.0;0.0;0.0605119988322258;0.09174399822950363;1.0413919687271118;0.0;0.0;0.0
697;-0.0651479959487915;0.22496800124645233;0.8993839621543884;0.044895999133586884;0.06441599875688553;1.0618879795074463;10.4037504196167;3.2593750953674316;-15.868124961853027
699;0.0;0.0;0.0;0.044895999133586884;0.07222399860620499;1.073599934577942;0.0;0.0;0.0
701;0.0;0.0;0.0;0.02537599951028824;0.07612799853086472;1.0579839944839478;0.0;0.0;0.0
703;0.0;0.0;0.0;0.013663999736309052;0.05660799890756607;1.0452959537506104;0.0;0.0;0.0
706;-0.08417999744415283;0.1954440027475357;0.9235399961471558;0.05660799890756607;0.04879999905824661;1.0452959537506104;14.18375015258789;2.979375123977661;-12.788125038146973
708;0.0;0.0;0.0;0.0634399950504303;0.040991999208927155;1.0531039237976074;0.0;0.0;0.0
710;0.0;0.0;0.0;0.08295999467372894;0.037087999284267426;1.0618879795074463;0.0;0.0;0.0
712;0.0;0.0;0.0;0.10150399804115295;0.07612799853086472;1.0531039237976074;0.0;0.0;0.0
714;-0.0453839972615242;0.1815359890460968;0.9247599840164185;0.10638399422168732;0.040991999208927155;1.0570080280303955;18.66374969482422;-1.1506249904632568;-9.91812515258789
716;0.0;0.0;0.0;0.08979199826717377;0.09174399822950363;1.0657919645309448;0.0;0.0;0.0
718;0.0;0.0;0.0;0.09857599437236786;0.11126399785280228;1.0208959579467773;0.0;0.0;0.0
721;0.0;0.0;0.0;0.10638399422168732;0.09955199807882309;1.0618879795074463;0.0;0.0;0.0
723;-0.01195599976927042;0.22374799847602844;0.9176839590072632;0.13663999736309052;0.12297599762678146;1.0413919687271118;22.513750076293945;-3.6006250381469727;-5.648125171661377
725;0.0;0.0;0.0;0.10638399422168732;0.13859200477600098;1.0618879795074463;0.0;0.0;0.0
727;0.0;0.0;0.0;0.15323199331760406;0.13468798995018005;1.0491999387741089;0.0;0.0;0.0
729;0.0;0.0;0.0;0.14151999354362488;0.15030398964881897;1.0452959537506104;0.0;0.0;0.0
731;0.010247999802231789;0.27498799562454224;0.9247599840164185;0.1298079937696457;0.1424959897994995;1.073599934577942;23.073749542236328;-1.2206249237060547;-1.1681249141693115
733;0.0;0.0;0.0;0.13371199369430542;0.13859200477600098;1.0775039196014404;0.0;0.0;0.0
735;0.0;0.0;0.0;0.11419199407100677;0.1542080044746399;1.0657919645309448;0.0;0.0;0.0
737;0.0;0.0;0.0;0.12590399384498596;0.15030398964881897;1.0901919603347778;0.0;0.0;0.0
740;0.007563999854028225;0.2967039942741394;0.9533079862594604;0.09857599437236786;0.15811198949813843;1.097999930381775;19.083749771118164;6.969375133514404;1.981874942779541
742;0.0;0.0;0.0;0.13663999736309052;0.18934398889541626;1.1350879669189453;0.0;0.0;0.0
744;0.0;0.0;0.0;0.0634399950504303;0.18934398889541626;1.158511996269226;0.0;0.0;0.0
746;0.0;0.0;0.0;0.10150399804115295;0.21276798844337463;1.1712000370025635;0.0;0.0;0.0
748;-0.020495999604463577;0.32256799936294556;1.0172359943389893;0.0936959981918335;0.2205759882926941;1.1956000328063965;11.523750305175781;14.389375686645508;2.681874990463257
750;0.0;0.0;0.0;0.07124799489974976;0.2479040026664734;1.207311987876892;0.0;0.0;0.0
752;0.0;0.0;0.0;0.024399999529123306;0.24399998784065247;1.231711983680725;0.0;0.0;0.0
755;0.0;0.0;0.0;0.04391999915242195;0.236191987991333;1.2278079986572266;0.0;0.0;0.0
757;-0.07881199568510056;0.3735640048980713;1.085312008857727;0.0009759999811649323;0.26742398738861084;1.248304009437561;0.5337499976158142;18.939374923706055;1.981874942779541
759;0.0;0.0;0.0;-0.013663999736309052;0.28303998708724976;1.2688000202178955;0.0;0.0;0.0
761;0.0;0.0;0.0;-0.0019519999623298645;0.29475200176239014;1.2688000202178955;0.0;0.0;0.0
763;0.0;0.0;0.0;0.0058559998869895935;0.2869440019130707;1.2688000202178955;0.0;0.0;0.0
765;-0.12614800035953522;0.42041200399398804;1.1255719661712646;-0.029279999434947968;0.3142719864845276;1.2883199453353882;-10.106249809265137;18.379375457763672;2.611875057220459
767;0.0;0.0;0.0;-0.0058559998869895935;0.3181760013103485;1.2600159645080566;0.0;0.0;0.0
769;0.0;0.0;0.0;-0.037087999284267426;0.3025600016117096;1.2522079944610596;0.0;0.0;0.0
772;0.0;0.0;0.0;-0.013663999736309052;0.3142719864845276;1.2766079902648926;0.0;0.0;0.0
774;-0.14395999908447266;0.43895599246025085;1.1394799947738647;-0.0331839993596077;0.3337920010089874;1.272704005241394;-16.756250381469727;15.01937484741211;5.131875038146973
776;0.0;0.0;0.0;-0.0605119988322258;0.3337920010089874;1.2600159645080566;0.0;0.0;0.0
778;0.0;0.0;0.0;-0.02537599951028824;0.3416000008583069;1.2766079902648926;0.0;0.0;0.0
780;0.0;0.0;0.0;-0.05660799890756607;0.36111998558044434;1.2688000202178955;0.0;0.0;0.0
782;-0.16079600155353546;0.4706760048866272;1.1365519762039185;-0.0331839993596077;0.3455039858818054;1.272704005241394;-18.15625;9.559375762939453;9.541874885559082
784;0.0;0.0;0.0;-0.02147199958562851;0.38844799995422363;1.2688000202178955;0.0;0.0;0.0
786;0.0;0.0;0.0;-0.02537599951028824;0.37673598527908325;1.231711983680725;0.0;0.0;0.0
789;0.0;0.0;0.0;-0.0331839993596077;0.3962559998035431;1.2404959201812744;0.0;0.0;0.0
791;-0.15079200267791748;0.5163040161132812;1.1104439496994019;-0.029279999434947968;0.4391999840736389;1.2404959201812744;-14.376250267028809;6.059375286102295;16.611875534057617
793;0.0;0.0;0.0;-0.02635199949145317;0.48604798316955566;1.2404959201812744;0.0;0.0;0.0
795;0.0;0.0;0.0;-0.03415999934077263;0.44310399889945984;1.2522079944610596;0.0;0.0;0.0
797;0.0;0.0;0.0;-0.045871999114751816;0.48604798316955566;1.272704005241394;0.0;0.0;0.0
799;-0.16494399309158325;0.594871997833252;1.1267919540405273;-0.06148799881339073;0.5016639828681946;1.272704005241394;-5.276249885559082;5.149374961853027;27.181875228881836
801;0.0;0.0;0.0;-0.07710400223731995;0.47433599829673767;1.2688000202178955;0.0;0.0;0.0
803;0.0;0.0;0.0;-0.11614400148391724;0.4352959990501404;1.2932000160217285;0.0;0.0;0.0
806;0.0;0.0;0.0;-0.15030398964881897;0.4391999840736389;1.2688000202178955;0.0;0.0;0.0
808;-0.2349720001220703;0.5760840177536011;1.140944004058838;-0.13176000118255615;0.3806400001049042;1.256111979484558;1.0237499475479126;-0.9406249523162842;38.381874084472656
810;0.0;0.0;0.0;-0.13859200477600098;0.411871999502182;1.2688000202178955;0.0;0.0;0.0
812;0.0;0.0;0.0;-0.13859200477600098;0.3689279854297638;1.2932000160217285;0.0;0.0;0.0
814;0.0;0.0;0.0;-0.115167997777462;0.3416000008583069;1.231711983680725;0.0;0.0;0.0
816;-0.23985199630260468;0.4962959885597229;1.1236200332641602;-0.09955199807882309;0.3455039858818054;1.2278079986572266;4.173749923706055;-10.460624694824219;44.75187683105469
818;0.0;0.0;0.0;-0.0878399983048439;0.3181760013103485;1.199504017829895;0.0;0.0;0.0
820;0.0;0.0;0.0;-0.08003199845552444;0.3298879861831665;1.2112159729003906;0.0;0.0;0.0
823;0.0;0.0;0.0;-0.06831999868154526;0.36111998558044434;1.1916959285736084;0.0;0.0;0.0
825;-0.19519999623298645;0.47384798526763916;1.0684759616851807;-0.07612799853086472;0.3806400001049042;1.158511996269226;5.853750228881836;-16.830625534057617;47.131874084472656
827;0.0;0.0;0.0;-0.04879999905824661;0.3962559998035431;1.150704026222229;0.0;0.0;0.0
829;0.0;0.0;0.0;-0.04879999905824661;0.43139198422431946;1.158511996269226;0.0;0.0;0.0
831;0.0;0.0;0.0;-0.044895999133586884;0.4391999840736389;1.1428959369659424;0.0;0.0;0.0
833;-0.16884799301624298;0.5480239987373352;1.0174800157546997;-0.029279999434947968;0.4352959990501404;1.1145919561386108;7.533750057220459;-19.490625381469727;50.35187530517578
835;0.0;0.0;0.0;-0.02537599951028824;0.45481598377227783;1.0940959453582764;0.0;0.0;0.0
837;0.0;0.0;0.0;-0.040991999208927155;0.41967999935150146;1.0618879795074463;0.0;0.0;0.0
840;0.0;0.0;0.0;-0.013663999736309052;0.3806400001049042;1.0657919645309448;0.0;0.0;0.0
842;-0.13005200028419495;0.5536360144615173;0.9450119733810425;0.02537599951028824;0.4079679846763611;1.0491999387741089;8.09375;-20.400625228881836;56.72187423706055
844;0.0;0.0;0.0;0.05270399898290634;0.4079679846763611;1.0326080322265625;0.0;0.0;0.0
846;0.0;0.0;0.0;0.04879999905824661;0.36502400040626526;0.9964959621429443;0.0;0.0;0.0
848;0.0;0.0;0.0;0.0605119988322258;0.3962559998035431;1.0208959579467773;0.0;0.0;0.0
850;-0.0697840005159378;0.5153279900550842;0.8945040106773376;0.05660799890756607;0.3806400001049042;0.9964959621429443;9.00374984741211;-14.310625076293945;63.65187454223633
852;0.0;0.0;0.0;0.009759999811649323;0.3806400001049042;1.0003999471664429;0.0;0.0;0.0
854;0.0;0.0;0.0;-0.0058559998869895935;0.3142719864845276;0.9964959621429443;0.0;0.0;0.0
857;0.0;0.0;0.0;0.029279999434947968;0.31036800146102905;0.9925919771194458;0.0;0.0;0.0
859;-0.10247999429702759;0.45993998646736145;0.8600999712944031;0.0058559998869895935;0.2596159875392914;0.9964959621429443;9.773750305175781;-5.210625171661377;71.70187377929688
861;0.0;0.0;0.0;-0.006831999868154526;0.2479040026664734;0.9886879920959473;0.0;0.0;0.0
863;0.0;0.0;0.0;0.00878399983048439;0.17763200402259827;1.0130879878997803;0.0;0.0;0.0
865;0.0;0.0;0.0;-0.03806399926543236;0.1424959897994995;1.0091840028762817;0.0;0.0;0.0
867;-0.12785600125789642;0.3147599995136261;0.8727880120277405;-0.022447999566793442;0.06441599875688553;1.0130879878997803;9.283750534057617;4.729374885559082;79.1918716430664
869;0.0;0.0;0.0;-0.03806399926543236;0.04879999905824661;1.0452959537506104;0.0;0.0;0.0
871;0.0;0.0;0.0;-0.09272000193595886;0.05270399898290634;1.0579839944839478;0.0;0.0;0.0
874;0.0;0.0;0.0;-0.09662400186061859;0.02147199958562851;1.0531039237976074;0.0;0.0;0.0
876;-0.1920280009508133;0.1849519908428192;0.9206119775772095;-0.10052800178527832;0.0019519999623298645;1.0814080238342285;7.183750152587891;17.119375228881836;82.41187286376953
878;0.0;0.0;0.0;-0.10735999792814255;-0.0019519999623298645;1.1058080196380615;0.0;0.0;0.0
880;0.0;0.0;0.0;-0.12297599762678146;-0.04879999905824661;1.097999930381775;0.0;0.0;0.0
882;0.0;0.0;0.0;-0.14640000462532043;-0.11907199770212173;1.1184959411621094;0.0;0.0;0.0
884;-0.25351598858833313;0.08247199654579163;0.9796599745750427;-0.16201600432395935;-0.12297599762678146;1.1145919561386108;5.993750095367432;18.729373931884766;84.30187225341797
886;0.0;0.0;0.0;-0.19617599248886108;-0.20495998859405518;1.101904034614563;0.0;0.0;0.0
888;0.0;0.0;0.0;-0.1844639927148819;-0.15811198949813843;1.1106879711151123;0.0;0.0;0.0
891;0.0;0.0;0.0;-0.16494399309158325;-0.28303998708724976;1.097999930381775;0.0;0.0;0.0
893;-0.28718799352645874;-0.08930400013923645;0.9796599745750427;-0.16494399309158325;-0.3455039858818054;1.1184959411621094;6.903749942779541;10.889375686645508;88.43186950683594
895;0.0;0.0;0.0;-0.14640000462532043;-0.3416000008583069;1.150704026222229;0.0;0.0;0.0
897;0.0;0.0;0.0;-0.1424959897994995;-0.4470079839229584;1.126304030418396;0.0;0.0;0.0
899;0.0;0.0;0.0;-0.17665599286556244;-0.5094720125198364;1.126304030418396;0.0;0.0;0.0
901;-0.28377199172973633;-0.3130519986152649;1.0067440271377563;-0.16494399309158325;-0.6070719957351685;1.126304030418396;8.09375;7.529374599456787;91.0218734741211
903;0.0;0.0;0.0;-0.18055999279022217;-0.610975980758667;1.1633919477462769;0.0;0.0;0.0
905;0.0;0.0;0.0;-0.19227199256420135;-0.6422079801559448;1.1877919435501099;0.0;0.0;0.0
908;0.0;0.0;0.0;-0.22740799188613892;-0.6617279648780823;1.1790080070495605;0.0;0.0;0.0
910;-0.3333039879798889;-0.5055679678916931;1.0391960144042969;-0.2508319914340973;-0.6968640089035034;1.207311987876892;8.163749694824219;9.069375991821289;90.74187469482422
912;0.0;0.0;0.0;-0.24399998784065247;-0.7241919636726379;1.231711983680725;0.0;0.0;0.0
914;0.0;0.0;0.0;-0.2635200023651123;-0.7632319927215576;1.1956000328063965;0.0;0.0;0.0
916;0.0;0.0;0.0;-0.25571200251579285;-0.7515199780464172;1.231711983680725;0.0;0.0;0.0
918;-0.3882039785385132;-0.6148799657821655;1.0845799446105957;-0.2869440019130707;-0.7866559624671936;1.223904013633728;4.803750038146973;7.039374828338623;86.33187103271484
921;0.0;0.0;0.0;-0.28303998708724976;-0.8217920064926147;1.256111979484558;0.0;0.0;0.0
922;0.0;0.0;0.0;-0.2752319872379303;-0.8452159762382507;1.2356159687042236;0.0;0.0;0.0
925;0.0;0.0;0.0;-0.236191987991333;-0.8530240058898926;1.2404959201812744;0.0;0.0;0.0
927;-0.37893199920654297;-0.7051599621772766;1.1075159311294556;-0.24399998784065247;-0.8491199612617493;1.2639199495315552;0.8837500214576721;-5.070624828338623;79.26187133789062
929;0.0;0.0;0.0;-0.2391199916601181;-0.8920639753341675;1.1956000328063965;0.0;0.0;0.0
931;0.0;0.0;0.0;-0.20398399233818054;-0.9154880046844482;1.2034080028533936;0.0;0.0;0.0
933;0.0;0.0;0.0;-0.2508319914340973;-0.9311040043830872;1.1546080112457275;0.0;0.0;0.0
935;-0.3408679962158203;-0.7610359787940979;1.062619924545288;-0.18836799263954163;-0.9154880046844482;1.150704026222229;-3.666249990463257;-23.060625076293945;72.26187133789062
938;0.0;0.0;0.0;-0.1727519929409027;-0.9428159594535828;1.122399926185608;0.0;0.0;0.0
940;0.0;0.0;0.0;-0.18055999279022217;-0.9350079894065857;1.1145919561386108;0.0;0.0;0.0
942;0.0;0.0;0.0;-0.16884799301624298;-0.9506239891052246;1.0775039196014404;0.0;0.0;0.0
944;-0.28840798139572144;-0.8112999796867371;0.9718520045280457;-0.13859200477600098;-1.0052800178527832;1.0491999387741089;-8.986249923706055;-37.200626373291016;64.56187438964844
946;0.0;0.0;0.0;-0.0849120020866394;-1.044319987297058;1.0287039279937744;0.0;0.0;0.0
948;0.0;0.0;0.0;-0.049775999039411545;-1.0872639417648315;0.9925919771194458;0.0;0.0;0.0
950;0.0;0.0;0.0;-0.0302559994161129;-1.1497279405593872;0.9681919813156128;0.0;0.0;0.0
952;-0.17933999001979828;-0.9589200019836426;0.8735199570655823;-0.02635199949145317;-1.1965759992599487;0.9720959663391113;-15.636249542236328;-39.44062423706055;56.51187515258789
955;0.0;0.0;0.0;0.00878399983048439;-1.2395199537277222;0.9564799666404724;0.0;0.0;0.0
957;0.0;0.0;0.0;0.00878399983048439;-1.2902719974517822;0.9476959705352783;0.0;0.0;0.0
959;0.0;0.0;0.0;-0.006831999868154526;-1.32150399684906;0.9642879962921143;0.0;0.0;0.0
961;-0.12321999669075012;-1.1514359712600708;0.8286240100860596;0.01268799975514412;-1.3800640106201172;0.9603840112686157;-20.81624984741211;-25.23062515258789;46.22187423706055
963;0.0;0.0;0.0;-0.010735999792814255;-1.3917759656906128;0.9681919813156128;0.0;0.0;0.0
965;0.0;0.0;0.0;-0.03415999934077263;-1.4151999950408936;0.9515999555587769;0.0;0.0;0.0
967;0.0;0.0;0.0;-0.07320000231266022;-1.4308159351348877;0.9847840070724487;0.0;0.0;0.0
969;-0.15615999698638916;-1.2751439809799194;0.843019962310791;-0.006831999868154526;-1.3956799507141113;1.0130879878997803;-24.876249313354492;-11.930625915527344;34.18187713623047
972;0.0;0.0;0.0;-0.08881600201129913;-1.50108802318573;0.9603840112686157;0.0;0.0;0.0
974;0.0;0.0;0.0;-0.11614400148391724;-1.5596479177474976;0.9193919897079468;0.0;0.0;0.0
976;0.0;0.0;0.0;-0.06148799881339073;-1.637727975845337;0.9515999555587769;0.0;0.0;0.0
978;-0.18226799368858337;-1.4159319400787354;0.8281359672546387;0.01268799975514412;-1.6260160207748413;0.9799039959907532;-26.416250228881836;-15.710624694824219;23.40187644958496
980;0.0;0.0;0.0;0.0331839993596077;-1.6728639602661133;0.9603840112686157;0.0;0.0;0.0
982;0.0;0.0;0.0;0.02147199958562851;-1.7040959596633911;0.9681919813156128;0.0;0.0;0.0
984;0.0;0.0;0.0;-0.0019519999623298645;-1.7314239740371704;0.9320799708366394;0.0;0.0;0.0
986;-0.10687199980020523;-1.5611119270324707;0.8264279961585999;-0.013663999736309052;-1.7665599584579468;0.9281759858131409;-26.206249237060547;-25.720624923706055;12.971875190734863
989;0.0;0.0;0.0;0.040991999208927155;-1.8016959428787231;0.9037759900093079;0.0;0.0;0.0
991;0.0;0.0;0.0;0.009759999811649323;-1.793887972831726;0.9076799750328064;0.0;0.0;0.0
993;0.0;0.0;0.0;0.06831999868154526;-1.8055999279022217;0.8871839642524719;0.0;0.0;0.0
995;-0.09564799815416336;-1.6518800258636475;0.7693319916725159;0.08003199845552444;-1.832927942276001;0.8754720091819763;-27.956249237060547;-33.350624084472656;-1.0981249809265137
997;0.0;0.0;0.0;0.08295999467372894;-1.7977919578552246;0.8500959873199463;0.0;0.0;0.0
999;0.0;0.0;0.0;0.07124799489974976;-1.7977919578552246;0.8139839768409729;0.0;0.0;0.0
1001;0.0;0.0;0.0;0.12492799758911133;-1.8368319272994995;0.822767972946167;0.0;0.0;0.0
1003;-0.01756799966096878;-1.67603600025177;0.6995480060577393;0.12883199751377106;-1.8134080171585083;0.7934879660606384;-31.5262508392334;-34.75062561035156;-16.638124465942383
1006;0.0;0.0;0.0;0.1600639969110489;-1.8016959428787231;0.757375955581665;0.0;0.0;0.0
1008;0.0;0.0;0.0;0.17958399653434753;-1.8095039129257202;0.7368800044059753;0.0;0.0;0.0
1010;0.0;0.0;0.0;0.1756799966096878;-1.7665599584579468;0.7124800086021423;0.0;0.0;0.0
1012;0.05075199902057648;-1.6545640230178833;0.6261039972305298;0.19129599630832672;-1.7782719135284424;0.725167989730835;-32.43625259399414;-28.170625686645508;-33.99812316894531
1014;0.0;0.0;0.0;0.2030079960823059;-1.743135929107666;0.6880800127983093;0.0;0.0;0.0
1016;0.0;0.0;0.0;0.20691199600696564;-1.7236160039901733;0.659775972366333;0.0;0.0;0.0
1018;0.0;0.0;0.0;0.23423999547958374;-1.6923840045928955;0.6519680023193359;0.0;0.0;0.0
1020;0.09223199635744095;-1.5838040113449097;0.5382639765739441;0.2654719948768616;-1.6845759153366089;0.6275680065155029;-28.236249923706055;-19.910625457763672;-48.768123626708984
1023;0.0;0.0;0.0;0.2537599802017212;-1.6572480201721191;0.6197599768638611;0.0;0.0;0.0
1025;0.0;0.0;0.0;0.23814399540424347;-1.6221119165420532;0.5787680149078369;0.0;0.0;0.0
1027;0.0;0.0;0.0;0.2810879945755005;-1.5791679620742798;0.5709599852561951;0.0;0.0;0.0
1029;0.14005599915981293;-1.476688027381897;0.468968003988266;0.2810879945755005;-1.555743932723999;0.5670560002326965;-17.596250534057617;-11.930625915527344;-59.40812301635742
1031;0.0;0.0;0.0;0.28596800565719604;-1.4815679788589478;0.5670560002326965;0.0;0.0;0.0
1033;0.0;0.0;0.0;0.2937760055065155;-1.4932799339294434;0.5504639744758606;0.0;0.0;0.0
1035;0.0;0.0;0.0;0.2781600058078766;-1.3995839357376099;0.5787680149078369;0.0;0.0;0.0
1037;0.17323999106884003;-1.3249199390411377;0.4370039999485016;0.2781600058078766;-1.3800640106201172;0.5670560002326965;-5.486249923706055;-0.5206249952316284;-68.08812713623047
1040;0.0;0.0;0.0;0.33671998977661133;-1.3371199369430542;0.5582720041275024;0.0;0.0;0.0
1042;0.0;0.0;0.0;0.3093920052051544;-1.3019839525222778;0.586575984954834;0.0;0.0;0.0
1044;0.0;0.0;0.0;0.3093920052051544;-1.2434239387512207;0.5992639660835266;0.0;0.0;0.0
1046;0.19983600080013275;-1.1702239513397217;0.45457199215888977;0.3172000050544739;-1.2278079986572266;0.5992639660835266;4.313750267028809;20.689374923706055;-76.48812866210938
1048;0.0;0.0;0.0;0.2820639908313751;-1.180959939956665;0.6353759765625;0.0;0.0;0.0
1050;0.0;0.0;0.0;0.27035200595855713;-1.1458239555358887;0.6802719831466675;0.0;0.0;0.0
1052;0.0;0.0;0.0;0.24692799150943756;-1.083359956741333;0.684175968170166;0.0;0.0;0.0
1054;0.14786399900913239;-0.9994239807128906;0.5372880101203918;0.2117919921875;-1.0247999429702759;0.749567985534668;11.873749732971191;49.109375;-83.76812744140625
1057;0.0;0.0;0.0;0.18836799263954163;-0.985759973526001;0.7612800002098083;0.0;0.0;0.0
1059;0.0;0.0;0.0;0.16103999316692352;-0.9115839600563049;0.822767972946167;0.0;0.0;0.0
1061;0.0;0.0;0.0;0.1454239934682846;-0.9037759900093079;0.8588799834251404;0.0;0.0;0.0
1063;0.04123599827289581;-0.7861679792404175;0.6827119588851929;0.09857599437236786;-0.7866559624671936;0.9076799750328064;18.313749313354492;73.95938110351562;-89.36812591552734
1065;0.0;0.0;0.0;0.06831999868154526;-0.7554239630699158;0.9232959747314453;0.0;0.0;0.0
1067;0.0;0.0;0.0;0.02147199958562851;-0.6617279648780823;1.0052800178527832;0.0;0.0;0.0
1069;0.0;0.0;0.0;-0.0331839993596077;-0.6187840104103088;1.0531039237976074;0.0;0.0;0.0
1071;-0.10247999429702759;-0.5521720051765442;0.8581479787826538;-0.044895999133586884;-0.5680319666862488;1.0618879795074463;23.703750610351562;88.02938079833984;-93.00812530517578
1074;0.0;0.0;0.0;-0.08003199845552444;-0.5172799825668335;1.1106879711151123;0.0;0.0;0.0
1076;0.0;0.0;0.0;-0.09564799815416336;-0.45871999859809875;1.1712000370025635;0.0;0.0;0.0
1078;0.0;0.0;0.0;-0.16103999316692352;-0.3806400001049042;1.2034080028533936;0.0;0.0;0.0
1080;-0.2222839891910553;-0.3169559836387634;1.0335839986801147;-0.12297599762678146;-0.32207998633384705;1.2404959201812744;26.64375114440918;86.97937774658203;-94.12812805175781
1082;0.0;0.0;0.0;-0.1698240041732788;-0.30646398663520813;1.2648959159851074;0.0;0.0;0.0
1084;0.0;0.0;0.0;-0.1698240041732788;-0.20105600357055664;1.2932000160217285;0.0;0.0;0.0
1086;0.0;0.0;0.0;-0.20495998859405518;-0.1698240041732788;1.3332159519195557;0.0;0.0;0.0
1088;-0.29353198409080505;-0.08515600115060806;1.162660002708435;-0.19715198874473572;-0.0878399983048439;1.3410239219665527;26.153749465942383;77.03937530517578;-94.12812805175781
1091;0.0;0.0;0.0;-0.20495998859405518;-0.02147199958562851;1.3937280178070068;0.0;0.0;0.0
1093;0.0;0.0;0.0;-0.20495998859405518;0.02537599951028824;1.4025119543075562;0.0;0.0;0.0
1095;0.0;0.0;0.0;-0.26742398738861084;0.1268799901008606;1.4347199201583862;0.0;0.0;0.0
1097;-0.34062400460243225;0.17348399758338928;1.2678239345550537;-0.2088640034198761;0.11907199770212173;1.4142240285873413;23.073749542236328;63.319374084472656;-93.3581314086914
1099;0.0;0.0;0.0;-0.2596159875392914;0.25571200251579285;1.4786399602890015;0.0;0.0;0.0
1101;0.0;0.0;0.0;-0.2752319872379303;0.28303998708724976;1.458143949508667;0.0;0.0;0.0
1103;0.0;0.0;0.0;-0.2791360020637512;0.3181760013103485;1.4786399602890015;0.0;0.0;0.0
1105;-0.3803959786891937;0.4240719974040985;1.3351680040359497;-0.2752319872379303;0.41577598452568054;1.4952319860458374;16.91374969482422;48.19937515258789;-91.18812561035156
1108;0.0;0.0;0.0;-0.23228800296783447;0.4626239836215973;1.4796159267425537;0.0;0.0;0.0
1110;0.0;0.0;0.0;-0.2518079876899719;0.4938559830188751;1.499135971069336;0.0;0.0;0.0
1112;0.0;0.0;0.0;-0.20495998859405518;0.5719360113143921;1.4913280010223389;0.0;0.0;0.0
1114;-0.3584359884262085;0.6344000101089478;1.3544440269470215;-0.21276798844337463;0.5797439813613892;1.4913280010223389;9.773750305175781;32.02937316894531;-85.51812744140625
1116;0.0;0.0;0.0;-0.20105600357055664;0.6031680107116699;1.4874240159988403;0.0;0.0;0.0
1118;0.0;0.0;0.0;-0.16201600432395935;0.6344000101089478;1.4708319902420044;0.0;0.0;0.0
1120;0.0;0.0;0.0;-0.18934398889541626;0.700767993927002;1.4913280010223389;0.0;0.0;0.0
1122;-0.3108559846878052;0.7725039720535278;1.3512719869613647;-0.1815359890460968;0.685151994228363;1.4708319902420044;5.223750114440918;19.639373779296875;-76.83812713623047
1125;0.0;0.0;0.0;-0.2088640034198761;0.6578239798545837;1.4552159309387207;0.0;0.0;0.0
1127;0.0;0.0;0.0;-0.1698240041732788;0.7124800086021423;1.4874240159988403;0.0;0.0;0.0
1129;0.0;0.0;0.0;-0.14347200095653534;0.7515199780464172;1.474735975265503;0.0;0.0;0.0
1131;-0.2949959933757782;0.8459479808807373;1.3454159498214722;-0.15030398964881897;0.774944007396698;1.4835200309753418;2.84375;10.609375;-67.8081283569336
1133;0.0;0.0;0.0;-0.1698240041732788;0.7827519774436951;1.4464319944381714;0.0;0.0;0.0
1135;0.0;0.0;0.0;-0.2088640034198761;0.8491199612617493;1.4542399644851685;0.0;0.0;0.0
1137;0.0;0.0;0.0;-0.22838398814201355;0.8256959915161133;1.4542399644851685;0.0;0.0;0.0
1139;-0.3164680004119873;0.9430599808692932;1.3300440311431885;-0.2088640034198761;0.8217920064926147;1.4669280052185059;1.653749942779541;2.8393750190734863;-60.59812545776367
1142;0.0;0.0;0.0;-0.17080000042915344;0.8374080061912537;1.4630240201950073;0.0;0.0;0.0
1144;0.0;0.0;0.0;-0.14737600088119507;0.8998720049858093;1.4708319902420044;0.0;0.0;0.0
1146;0.0;0.0;0.0;-0.17372798919677734;0.8608319759368896;1.4142240285873413;0.0;0.0;0.0
1148;-0.2879199981689453;0.9874680042266846;1.311255931854248;-0.18934398889541626;0.895967960357666;1.3859199285507202;0.9537500739097595;-6.820624828338623;-52.89812469482422
1150;0.0;0.0;0.0;-0.18544000387191772;0.888159990310669;1.4308159351348877;0.0;0.0;0.0
1152;0.0;0.0;0.0;-0.12785600125789642;0.8491199612617493;1.3693280220031738;0.0;0.0;0.0
1154;0.0;0.0;0.0;-0.10833600163459778;0.9193919897079468;1.3898239135742188;0.0;0.0;0.0
1156;-0.2500999867916107;1.0116239786148071;1.2573319673538208;-0.11224000155925751;0.9350079894065857;1.3937280178070068;2.773750066757202;-13.470624923706055;-45.89812469482422
1159;0.0;0.0;0.0;-0.1239520013332367;0.9545279741287231;1.3615199327468872;0.0;0.0;0.0
1161;0.0;0.0;0.0;-0.13176000118255615;0.9974719882011414;1.3576159477233887;0.0;0.0;0.0
1163;0.0;0.0;0.0;-0.11224000155925751;0.985759973526001;1.3498079776763916;0.0;0.0;0.0
1165;-0.2408279925584793;1.1089799404144287;1.219756007194519;-0.10052800178527832;1.0130879878997803;1.3254079818725586;3.473750114440918;-18.020626068115234;-39.31812286376953
1167;0.0;0.0;0.0;-0.040991999208927155;1.0794559717178345;1.3293119668960571;0.0;0.0;0.0
1169;0.0;0.0;0.0;-0.040991999208927155;1.0677440166473389;1.3127199411392212;0.0;0.0;0.0
1171;0.0;0.0;0.0;-0.04879999905824661;1.0989760160446167;1.297104001045227;0.0;0.0;0.0
1173;-0.17763200402259827;1.2097519636154175;1.182911992073059;-0.02537599951028824;1.134112000465393;1.2688000202178955;3.0537500381469727;-21.450626373291016;-30.91812515258789
1176;0.0;0.0;0.0;-0.044895999133586884;1.1536319255828857;1.2600159645080566;0.0;0.0;0.0
1178;0.0;0.0;0.0;-0.040991999208927155;1.1848639249801636;1.248304009437561;0.0;0.0;0.0
1180;0.0;0.0;0.0;-0.02147199958562851;1.2356159687042236;1.223904013633728;0.0;0.0;0.0
1182;-0.14298400282859802;1.3051559925079346;1.1165440082550049;0.009759999811649323;1.2278079986572266;1.2600159645080566;2.983750104904175;-17.670625686645508;-16.568124771118164
1184;0.0;0.0;0.0;0.02147199958562851;1.1887680292129517;1.2522079944610596;0.0;0.0;0.0
1186;0.0;0.0;0.0;-0.0058559998869895935;1.180959939956665;1.2639199495315552;0.0;0.0;0.0
1188;0.0;0.0;0.0;-0.0058559998869895935;1.1692479848861694;1.223904013633728;0.0;0.0;0.0
1190;-0.13078400492668152;1.3193079233169556;1.1165440082550049;-0.05660799890756607;1.165343999862671;1.2278079986572266;3.963749885559082;-8.150625228881836;-0.46812504529953003
1193;0.0;0.0;0.0;-0.05660799890756607;1.1614400148391724;1.2160959243774414;0.0;0.0;0.0
1195;0.0;0.0;0.0;-0.040991999208927155;1.1692479848861694;1.256111979484558;0.0;0.0;0.0
1197;0.0;0.0;0.0;-0.044895999133586884;1.1458239555358887;1.248304009437561;0.0;0.0;0.0
1199;-0.16250400245189667;1.283195972442627;1.1099560260772705;-0.06831999868154526;1.126304030418396;1.2805119752883911;5.013750076293945;-0.24062496423721313;15.981874465942383
1201;0.0;0.0;0.0;-0.08100800216197968;1.122399926185608;1.297104001045227;0.0;0.0;0.0
1203;0.0;0.0;0.0;-0.09272000193595886;1.122399926185608;1.2844159603118896;0.0;0.0;0.0
1205;0.0;0.0;0.0;-0.12004800140857697;1.083359956741333;1.297104001045227;0.0;0.0;0.0
1207;-0.21691599488258362;1.2365919351577759;1.1677839756011963;-0.12785600125789642;1.0638400316238403;1.3049119710922241;4.103750228881836;5.919374942779541;30.191875457763672
1210;0.0;0.0;0.0;-0.15030398964881897;1.0599359273910522;1.345903992652893;0.0;0.0;0.0
1212;0.0;0.0;0.0;-0.14737600088119507;1.0247999429702759;1.3693280220031738;0.0;0.0;0.0
1214;0.0;0.0;0.0;-0.1698240041732788;0.9935680031776428;1.3654239177703857;0.0;0.0;0.0
1216;-0.27962398529052734;1.1614400148391724;1.2212200164794922;-0.1815359890460968;0.985759973526001;1.3820159435272217;0.39375001192092896;4.309374809265137;42.86187744140625
1218;0.0;0.0;0.0;-0.20398399233818054;0.9701439738273621;1.4142240285873413;0.0;0.0;0.0
1220;0.0;0.0;0.0;-0.2235039919614792;0.9662399888038635;1.4347199201583862;0.0;0.0;0.0
1222;0.0;0.0;0.0;-0.2547360062599182;0.9154880046844482;1.3986079692840576;0.0;0.0;0.0
1224;-0.32720398902893066;1.0831159353256226;1.2807559967041016;-0.24302399158477783;0.9076799750328064;1.4708319902420044;-5.766250133514404;0.5993750095367432;53.29187774658203
1227;0.0;0.0;0.0;-0.2664479911327362;0.8686400055885315;1.4220319986343384;0.0;0.0;0.0
1229;0.0;0.0;0.0;-0.2820639908313751;0.8842560052871704;1.4708319902420044;0.0;0.0;0.0
1231;0.0;0.0;0.0;-0.27425599098205566;0.8178879618644714;1.4220319986343384;0.0;0.0;0.0
1233;-0.3852759897708893;0.9972279667854309;1.3036919832229614;-0.28596800565719604;0.8256959915161133;1.4552159309387207;-12.486249923706055;-10.040624618530273;62.81187438964844
1235;0.0;0.0;0.0;-0.28303998708724976;0.7554239630699158;1.4142240285873413;0.0;0.0;0.0
1237;0.0;0.0;0.0;-0.2752319872379303;0.7124800086021423;1.4064159393310547;0.0;0.0;0.0
1239;0.0;0.0;0.0;-0.2518079876899719;0.6929599642753601;1.3820159435272217;0.0;0.0;0.0
1241;-0.38332399725914;0.8498519659042358;1.2648959159851074;-0.27132800221443176;0.5992639660835266;1.3498079776763916;-18.646249771118164;-27.2606258392334;71.70187377929688
1244;0.0;0.0;0.0;-0.2205759882926941;0.5719360113143921;1.3254079818725586;0.0;0.0;0.0
1246;0.0;0.0;0.0;-0.19715198874473572;0.521183967590332;1.3010079860687256;0.0;0.0;0.0
1248;0.0;0.0;0.0;-0.18544000387191772;0.48604798316955566;1.272704005241394;0.0;0.0;0.0
1250;-0.3306199908256531;0.6412320137023926;1.1633919477462769;-0.16591998934745789;0.4352959990501404;1.2404959201812744;-21.236249923706055;-43.78062438964844;78.49187469482422
1252;0.0;0.0;0.0;-0.15518400073051453;0.3962559998035431;1.2112159729003906;0.0;0.0;0.0
1254;0.0;0.0;0.0;-0.17763200402259827;0.3533119857311249;1.199504017829895;0.0;0.0;0.0
1256;0.0;0.0;0.0;-0.1542080044746399;0.32207998633384705;1.1868159770965576;0.0;0.0;0.0
1258;-0.2740119993686676;0.49531999230384827;1.0757960081100464;-0.1395680010318756;0.3142719864845276;1.1712000370025635;-20.5362491607666;-49.66062545776367;83.53187561035156
1261;0.0;0.0;0.0;-0.14737600088119507;0.2479040026664734;1.1389919519424438;0.0;0.0;0.0
1263;0.0;0.0;0.0;-0.13566400110721588;0.24009600281715393;1.146799921989441;0.0;0.0;0.0
1265;0.0;0.0;0.0;-0.10052800178527832;0.1815359890460968;1.0814080238342285;0.0;0.0;0.0
1267;-0.24814799427986145;0.35062798857688904;0.9996680021286011;-0.10052800178527832;0.13468798995018005;1.073599934577942;-18.99625015258789;-52.74062728881836;88.36186981201172
1269;0.0;0.0;0.0;-0.09662400186061859;0.11126399785280228;1.0618879795074463;0.0;0.0;0.0
1271;0.0;0.0;0.0;-0.057583998888731;0.02537599951028824;1.0091840028762817;0.0;0.0;0.0
1273;0.0;0.0;0.0;-0.07710400223731995;0.0058559998869895935;1.0247999429702759;0.0;0.0;0.0
1275;-0.18665999174118042;0.17665599286556244;0.9037759900093079;-0.02635199949145317;-0.07222399860620499;1.0130879878997803;-15.916250228881836;-55.05062484741211;93.47187042236328
1278;0.0;0.0;0.0;0.024399999529123306;-0.10345599800348282;0.9808799624443054;0.0;0.0;0.0
1280;0.0;0.0;0.0;-0.006831999868154526;-0.1542080044746399;0.9642879962921143;0.0;0.0;0.0
1282;0.0;0.0;0.0;0.0009759999811649323;-0.1815359890460968;0.9564799666404724;0.0;0.0;0.0
1284;-0.11663199961185455;-0.014639999717473984;0.8337479829788208;-0.010735999792814255;-0.22448000311851501;0.9281759858131409;-10.106249809265137;-52.040626525878906;97.0418701171875
1286;0.0;0.0;0.0;0.009759999811649323;-0.29865598678588867;0.9115839600563049;0.0;0.0;0.0
1288;0.0;0.0;0.0;0.0019519999623298645;-0.32207998633384705;0.9154880046844482;0.0;0.0;0.0
1290;0.0;0.0;0.0;0.02147199958562851;-0.41967999935150146;0.8949919939041138;0.0;0.0;0.0
1292;-0.11272799968719482;-0.20203199982643127;0.7798239588737488;-0.0058559998869895935;-0.411871999502182;0.8910880088806152;-4.296249866485596;-46.44062423706055;99.91187286376953
1295;0.0;0.0;0.0;-0.0019519999623298645;-0.4899519979953766;0.8627839684486389;0.0;0.0;0.0
1297;0.0;0.0;0.0;0.009759999811649323;-0.5641279816627502;0.8510719537734985;0.0;0.0;0.0
1299;0.0;0.0;0.0;0.0019519999623298645;-0.6031680107116699;0.8666880130767822;0.0;0.0;0.0
1301;-0.11419199407100677;-0.4218759834766388;0.7361479997634888;0.044895999133586884;-0.700767993927002;0.8549759984016418;0.04375000298023224;-39.790626525878906;102.15187072753906
1303;0.0;0.0;0.0;0.01659199967980385;-0.6929599642753601;0.8744959831237793;0.0;0.0;0.0
1305;0.0;0.0;0.0;0.01268799975514412;-0.7202879786491394;0.8588799834251404;0.0;0.0;0.0
1307;0.0;0.0;0.0;0.07905599474906921;-0.9037759900093079;0.8022719621658325;0.0;0.0;0.0
1310;-0.0924759954214096;-0.6487959623336792;0.721019983291626;-0.010735999792814255;-0.9311040043830872;0.8344799876213074;2.6337502002716064;-32.020626068115234;100.96187591552734
1312;0.0;0.0;0.0;0.04391999915242195;-0.9935680031776428;0.8461920022964478;0.0;0.0;0.0
1314;0.0;0.0;0.0;0.0634399950504303;-1.0287039279937744;0.8461920022964478;0.0;0.0;0.0
1316;0.0;0.0;0.0;0.07905599474906921;-1.1497279405593872;0.8461920022964478;0.0;0.0;0.0
1318;-0.058803997933864594;-0.9174399971961975;0.7246800065040588;0.05953599885106087;-1.1575360298156738;0.8627839684486389;2.5637500286102295;-24.810625076293945;95.01187133789062
1320;0.0;0.0;0.0;0.07515199482440948;-1.2356159687042236;0.8832799792289734;0.0;0.0;0.0
1322;0.0;0.0;0.0;0.032207999378442764;-1.2902719974517822;0.8832799792289734;0.0;0.0;0.0
1324;0.0;0.0;0.0;0.01268799975514412;-1.3332159519195557;0.8910880088806152;0.0;0.0;0.0
1327;-0.06831999868154526;-1.1480200290679932;0.757375955581665;0.07124799489974976;-1.4151999950408936;0.8871839642524719;-1.2162500619888306;-13.470624923706055;85.91187286376953
1329;0.0;0.0;0.0;0.032207999378442764;-1.458143949508667;0.9232959747314453;0.0;0.0;0.0
1331;0.0;0.0;0.0;0.0936959981918335;-1.5206079483032227;0.9154880046844482;0.0;0.0;0.0
1333;0.0;0.0;0.0;0.07515199482440948;-1.5791679620742798;0.9281759858131409;0.0;0.0;0.0
1335;-0.04806799814105034;-1.387139916419983;0.795195996761322;0.1210239976644516;-1.6806719303131104;0.9359839558601379;-9.056249618530273;-6.470624923706055;73.5218734741211
1337;0.0;0.0;0.0;0.11028799414634705;-1.7236160039901733;0.9398880004882812;0.0;0.0;0.0
1339;0.0;0.0;0.0;0.10247999429702759;-1.8134080171585083;0.9398880004882812;0.0;0.0;0.0
1341;0.0;0.0;0.0;0.1298079937696457;-1.8641599416732788;0.9681919813156128;0.0;0.0;0.0
1344;-0.009271999821066856;-1.6696919202804565;0.8193519711494446;0.0878399983048439;-1.9461439847946167;0.9515999555587769;-18.08625030517578;-0.3806249797344208;58.19187545776367
1346;0.0;0.0;0.0;0.10247999429702759;-2.03983998298645;0.9808799624443054;0.0;0.0;0.0
1348;0.0;0.0;0.0;0.11028799414634705;-2.0905919075012207;0.9476959705352783;0.0;0.0;0.0
1350;0.0;0.0;0.0;0.11028799414634705;-2.133535861968994;0.9681919813156128;0.0;0.0;0.0
1352;-0.01781199872493744;-1.9498039484024048;0.8415560126304626;0.1298079937696457;-2.1686718463897705;0.9642879962921143;-26.416250228881836;5.219375133514404;39.571876525878906
1354;0.0;0.0;0.0;0.10638399422168732;-2.2662720680236816;0.9681919813156128;0.0;0.0;0.0
1356;0.0;0.0;0.0;0.06831999868154526;-2.3716800212860107;0.9476959705352783;0.0;0.0;0.0
1358;0.0;0.0;0.0;0.0878399983048439;-2.4380478858947754;0.9359839558601379;0.0;0.0;0.0
1361;-0.033427998423576355;-2.2138118743896484;0.8171559572219849;0.1298079937696457;-2.4575679302215576;0.9398880004882812;-30.33625030517578;8.929374694824219;18.571876525878906
1363;0.0;0.0;0.0;0.13761599361896515;-2.4692800045013428;0.9720959663391113;0.0;0.0;0.0
1365;0.0;0.0;0.0;0.11028799414634705;-2.504415988922119;0.9603840112686157;0.0;0.0;0.0
1367;0.0;0.0;0.0;0.09564799815416336;-2.508319854736328;0.9681919813156128;0.0;0.0;0.0
1369;-0.006831999868154526;-2.3531360626220703;0.8261839747428894;0.08003199845552444;-2.508319854736328;0.9564799666404724;-27.606250762939453;11.029375076293945;-2.148124933242798
1371;0.0;0.0;0.0;0.05172799900174141;-2.512223958969116;0.9681919813156128;0.0;0.0;0.0
1373;0.0;0.0;0.0;0.04391999915242195;-2.496608018875122;0.9154880046844482;0.0;0.0;0.0
1375;0.0;0.0;0.0;0.05953599885106087;-2.488800048828125;0.9193919897079468;0.0;0.0;0.0
1378;-0.07759200036525726;-2.3685078620910645;0.8093479871749878;0.028303999453783035;-2.488800048828125;0.8949919939041138;-24.876249313354492;2.489375114440918;-25.52812385559082
1380;0.0;0.0;0.0;0.024399999529123306;-2.4341440200805664;0.8793759942054749;0.0;0.0;0.0
1382;0.0;0.0;0.0;0.020495999604463577;-2.39900803565979;0.8588799834251404;0.0;0.0;0.0
1384;0.0;0.0;0.0;0.05172799900174141;-2.3560638427734375;0.8139839768409729;0.0;0.0;0.0
1386;-0.07027199864387512;-2.2504119873046875;0.7317559719085693;0.07905599474906921;-2.281888008117676;0.7973920106887817;-23.196250915527344;-6.260624885559082;-51.84812545776367
1388;0.0;0.0;0.0;0.07515199482440948;-2.2506558895111084;0.7534719705581665;0.0;0.0;0.0
1390;0.0;0.0;0.0;0.10150399804115295;-2.1764800548553467;0.6929599642753601;0.0;0.0;0.0
1392;0.0;0.0;0.0;0.1210239976644516;-2.102303981781006;0.6519680023193359;0.0;0.0;0.0
1395;-0.016103999689221382;-2.037155866622925;0.5724239945411682;0.1483519971370697;-2.03983998298645;0.5953599810600281;-18.366249084472656;-12.98062515258789;-76.76812744140625
1397;0.0;0.0;0.0;0.15225599706172943;-1.9539519548416138;0.5143519639968872;0.0;0.0;0.0
1399;0.0;0.0;0.0;0.21862399578094482;-1.8797760009765625;0.4772639870643616;0.0;0.0;0.0
1401;0.0;0.0;0.0;0.2654719948768616;-1.793887972831726;0.4411519765853882;0.0;0.0;0.0
1403;0.08564399927854538;-1.7316679954528809;0.3769800066947937;0.2576639950275421;-1.7119039297103882;0.44896000623703003;-5.136250019073486;-18.160625457763672;-92.65812683105469
1405;0.0;0.0;0.0;0.2654719948768616;-1.6103999614715576;0.43724799156188965;0.0;0.0;0.0
1407;0.0;0.0;0.0;0.2967039942741394;-1.5440319776535034;0.40406399965286255;0.0;0.0;0.0
1409;0.0;0.0;0.0;0.31622397899627686;-1.4542399644851685;0.36795198917388916;0.0;0.0;0.0
1412;0.17836399376392365;-1.3937280178070068;0.27327999472618103;0.3357439935207367;-1.3800640106201172;0.3474559783935547;10.053750038146973;-5.560625076293945;-101.54812622070312
1414;0.0;0.0;0.0;0.3240320086479187;-1.313696026802063;0.30743998289108276;0.0;0.0;0.0
1416;0.0;0.0;0.0;0.30451199412345886;-1.2043839693069458;0.30743998289108276;0.0;0.0;0.0
1418;0.0;0.0;0.0;0.32793599367141724;-1.075551986694336;0.35526400804519653;0.0;0.0;0.0
1420;0.2130119949579239;-1.065303921699524;0.20349599421024323;0.35526400804519653;-1.0052800178527832;0.3357439935207367;23.84375;26.359375;-104.69812774658203
1422;0.0;0.0;0.0;0.3084160089492798;-0.9545279741287231;0.39235198497772217;0.0;0.0;0.0
1424;0.0;0.0;0.0;0.3084160089492798;-0.8217920064926147;0.4411519765853882;0.0;0.0;0.0
1426;0.0;0.0;0.0;0.24985599517822266;-0.7593280076980591;0.48507198691368103;0.0;0.0;0.0
1429;0.16445599496364594;-0.6983279585838318;0.32085999846458435;0.1756799966096878;-0.6734399795532227;0.5670560002326965;35.6037483215332;77.03937530517578;-105.04812622070312
1431;0.0;0.0;0.0;0.1327359974384308;-0.6383039951324463;0.5914559960365295;0.0;0.0;0.0
1433;0.0;0.0;0.0;0.03611199930310249;-0.5446079969406128;0.700767993927002;0.0;0.0;0.0
1435;0.0;0.0;0.0;0.020495999604463577;-0.5328959822654724;0.7612800002098083;0.0;0.0;0.0
1437;-0.06026799976825714;-0.44261598587036133;0.5499759912490845;-0.06148799881339073;-0.47043198347091675;0.8217920064926147;39.873748779296875;120.01937866210938;-103.08812713623047
1439;0.0;0.0;0.0;-0.10833600163459778;-0.43139198422431946;0.8988959789276123;0.0;0.0;0.0
1441;0.0;0.0;0.0;-0.17372798919677734;-0.36502400040626526;0.9847840070724487;0.0;0.0;0.0
1443;0.0;0.0;0.0;-0.2088640034198761;-0.32598400115966797;1.0287039279937744;0.0;0.0;0.0
1446;-0.29353198409080505;-0.22887200117111206;0.8361879587173462;-0.2791360020637512;-0.27132800221443176;1.122399926185608;37.56374740600586;140.03936767578125;-101.26812744140625
1448;0.0;0.0;0.0;-0.3445279896259308;-0.2205759882926941;1.1712000370025635;0.0;0.0;0.0
1450;0.0;0.0;0.0;-0.4147999882698059;-0.15811198949813843;1.2522079944610596;0.0;0.0;0.0
1452;0.0;0.0;0.0;-0.43432000279426575;-0.10735999792814255;1.3088159561157227;0.0;0.0;0.0
1454;-0.5204519629478455;-0.04513999819755554;1.105563998222351;-0.48897600173950195;-0.11907199770212173;1.3654239177703857;29.93375015258789;138.63937377929688;-100.56813049316406
1456;0.0;0.0;0.0;-0.5192319750785828;-0.07612799853086472;1.4220319986343384;0.0;0.0;0.0
1458;0.0;0.0;0.0;-0.5738880038261414;-0.0331839993596077;1.4708319902420044;0.0;0.0;0.0
1460;0.0;0.0;0.0;-0.6080479621887207;-0.009759999811649323;1.5040159225463867;0.0;0.0;0.0
1463;-0.6983279585838318;0.07490799576044083;1.3227239847183228;-0.6588000059127808;-0.009759999811649323;1.5401279926300049;18.80375099182129;118.19937896728516;-100.28813171386719
1465;0.0;0.0;0.0;-0.6705119609832764;0.037087999284267426;1.588927984237671;0.0;0.0;0.0
1467;0.0;0.0;0.0;-0.6861279606819153;0.06831999868154526;1.6299200057983398;0.0;0.0;0.0
1469;0.0;0.0;0.0;-0.7017439603805542;0.12297599762678146;1.6182079315185547;0.0;0.0;0.0
1471;-0.8071519732475281;0.19739599525928497;1.4510679244995117;-0.6978399753570557;0.09564799815416336;1.613327980041504;7.323750019073486;80.39937591552734;-99.02812957763672
1473;0.0;0.0;0.0;-0.6939359903335571;0.08003199845552444;1.5733119249343872;0.0;0.0;0.0
1475;0.0;0.0;0.0;-0.6666079759597778;0.16591998934745789;1.6094239950180054;0.0;0.0;0.0
1477;0.0;0.0;0.0;-0.6470879912376404;0.16201600432395935;1.6426079273223877;0.0;0.0;0.0
1480;-0.794219970703125;0.268887996673584;1.4718079566955566;-0.6080479621887207;0.19715198874473572;1.6055200099945068;-2.5462498664855957;34.26937484741211;-96.78813171386719
1482;0.0;0.0;0.0;-0.6353759765625;0.20105600357055664;1.5362240076065063;0.0;0.0;0.0
1484;0.0;0.0;0.0;-0.6353759765625;0.21276798844337463;1.5196319818496704;0.0;0.0;0.0
1486;0.0;0.0;0.0;-0.6041439771652222;0.21667200326919556;1.4786399602890015;0.0;0.0;0.0
1488;-0.7446879744529724;0.33891600370407104;1.3793319463729858;-0.5582720041275024;0.2205759882926941;1.4386240243911743;-11.576250076293945;-3.250624895095825;-97.48812866210938
1490;0.0;0.0;0.0;-0.48897600173950195;0.2635200023651123;1.3976320028305054;0.0;0.0;0.0
1492;0.0;0.0;0.0;-0.4577440023422241;0.28303998708724976;1.32150399684906;0.0;0.0;0.0
1494;0.0;0.0;0.0;-0.3835679888725281;0.2791360020637512;1.2766079902648926;0.0;0.0;0.0
1497;-0.5572959780693054;0.40357598662376404;1.207311987876892;-0.36795198917388916;0.3337920010089874;1.2444000244140625;-14.866250038146973;-34.47062683105469;-97.9781265258789
1499;0.0;0.0;0.0;-0.2791360020637512;0.32598400115966797;1.1916959285736084;0.0;0.0;0.0
1501;0.0;0.0;0.0;-0.2205759882926941;0.41967999935150146;1.126304030418396;0.0;0.0;0.0
1503;0.0;0.0;0.0;-0.19324800372123718;0.4665279984474182;1.097999930381775;0.0;0.0;0.0
1505;-0.35575199127197266;0.5387519598007202;1.012355923652649;-0.16201600432395935;0.5016639828681946;1.0413919687271118;-13.74625015258789;-49.94062423706055;-95.59812927246094
1507;0.0;0.0;0.0;-0.12004800140857697;0.5602239966392517;1.0374879837036133;0.0;0.0;0.0
1509;0.0;0.0;0.0;-0.0302559994161129;0.5641279816627502;0.9642879962921143;0.0;0.0;0.0
1512;0.0;0.0;0.0;-0.018543999642133713;0.6422079801559448;0.9359839558601379;0.0;0.0;0.0
1514;-0.16543199121952057;0.717848002910614;0.8457039594650269;0.024399999529123306;0.6617279648780823;0.8988959789276123;-10.24625015258789;-48.40062713623047;-88.73812866210938
1516;0.0;0.0;0.0;0.11321599781513214;0.6929599642753601;0.8422879576683044;0.0;0.0;0.0
1518;0.0;0.0;0.0;0.1327359974384308;0.7359039783477783;0.8139839768409729;0.0;0.0;0.0
1520;0.0;0.0;0.0;0.2030079960823059;0.7202879786491394;0.7612800002098083;0.0;0.0;0.0
1522;0.01781199872493744;0.8549759984016418;0.6939359903335571;0.20691199600696564;0.8178879618644714;0.7778719663619995;-1.9162501096725464;-26.490625381469727;-76.83812713623047
1525;0.0;0.0;0.0;0.24595199525356293;0.8256959915161133;0.749567985534668;0.0;0.0;0.0
1526;0.0;0.0;0.0;0.2654719948768616;0.8803519606590271;0.7934879660606384;0.0;0.0;0.0
1529;0.0;0.0;0.0;0.22643199563026428;0.9428159594535828;0.7934879660606384;0.0;0.0;0.0
1531;0.12590399384498596;1.0125999450683594;0.6558719873428345;0.20691199600696564;0.9662399888038635;0.8139839768409729;16.283750534057617;15.71937370300293;-61.298126220703125
1533;0.0;0.0;0.0;0.16396799683570862;1.0287039279937744;0.8383839726448059;0.0;0.0;0.0
1535;0.0;0.0;0.0;0.12883199751377106;1.0716480016708374;0.8949919939041138;0.0;0.0;0.0
1537;0.0;0.0;0.0;0.10540799796581268;1.1692479848861694;0.9525759816169739;0.0;0.0;0.0
1539;0.024643998593091965;1.2292720079421997;0.7651839852333069;0.10540799796581268;1.2278079986572266;0.9964959621429443;37.00374984741211;55.33937454223633;-41.8381233215332
1541;0.0;0.0;0.0;0.032207999378442764;1.2863680124282837;1.0814080238342285;0.0;0.0;0.0
1543;0.0;0.0;0.0;-0.03415999934077263;1.3293119668960571;1.146799921989441;0.0;0.0;0.0
1546;0.0;0.0;0.0;-0.0849120020866394;1.3956799507141113;1.1790080070495605;0.0;0.0;0.0
1548;-0.14786399900913239;1.461803913116455;0.9962520003318787;-0.15518400073051453;1.4386240243911743;1.231711983680725;52.54374694824219;87.32937622070312;-20.558124542236328
1550;0.0;0.0;0.0;-0.20495998859405518;1.4776639938354492;1.3332159519195557;0.0;0.0;0.0
1552;0.0;0.0;0.0;-0.24399998784065247;1.5167039632797241;1.3781119585037231;0.0;0.0;0.0
1554;0.0;0.0;0.0;-0.2791360020637512;1.5440319776535034;1.4464319944381714;0.0;0.0;0.0
1556;-0.36209598183631897;1.6469999551773071;1.23854398727417;-0.35624000430107117;1.5791679620742798;1.4835200309753418;62.76374816894531;103.91938018798828;3.5918750762939453
1558;0.0;0.0;0.0;-0.399183988571167;1.5908799171447754;1.5440319776535034;0.0;0.0;0.0
1560;0.0;0.0;0.0;-0.43432000279426575;1.6143039464950562;1.588927984237671;0.0;0.0;0.0
1563;0.0;0.0;0.0;-0.4655520021915436;1.6025919914245605;1.6660319566726685;0.0;0.0;0.0
1565;-0.549731969833374;1.7223960161209106;1.470587968826294;-0.5397279858589172;1.606495976448059;1.7236160039901733;69.06375122070312;101.32937622070312;27.951875686645508
1567;0.0;0.0;0.0;-0.5816959738731384;1.606495976448059;1.7714399099349976;0.0;0.0;0.0
1569;0.0;0.0;0.0;-0.6441599726676941;1.606495976448059;1.8446400165557861;0.0;0.0;0.0
1571;0.0;0.0;0.0;-0.7027199864387512;1.6103999614715576;1.889535903930664;0.0;0.0;0.0
1573;-0.7683559656143188;1.7275199890136719;1.6828680038452148;-0.7183359861373901;1.5830719470977783;1.930527925491333;69.76374816894531;76.05937957763672;49.231876373291016
1575;0.0;0.0;0.0;-0.7368800044059753;1.5791679620742798;1.9500479698181152;0.0;0.0;0.0
1577;0.0;0.0;0.0;-0.7603039741516113;1.5908799171447754;1.9783519506454468;0.0;0.0;0.0
1580;0.0;0.0;0.0;-0.7915359735488892;1.5713599920272827;1.9461439847946167;0.0;0.0;0.0
1582;-0.8942599892616272;1.7155640125274658;1.8077960014343262;-0.7954399585723877;1.5752639770507812;1.9783519506454468;58.07374954223633;28.389373779296875;65.40187072753906
1584;0.0;0.0;0.0;-0.7837280035018921;1.5908799171447754;1.9461439847946167;0.0;0.0;0.0
1586;0.0;0.0;0.0;-0.7407839894294739;1.5635520219802856;1.930527925491333;0.0;0.0;0.0
1588;0.0;0.0;0.0;-0.7173599600791931;1.5362240076065063;1.9178400039672852;0.0;0.0;0.0
1590;-0.87254399061203;1.6816480159759521;1.7814439535140991;-0.6939359903335571;1.5049920082092285;1.865135908126831;35.113746643066406;-23.410625457763672;76.3918685913086
1592;0.0;0.0;0.0;-0.6939359903335571;1.4854719638824463;1.8046239614486694;0.0;0.0;0.0
1594;0.0;0.0;0.0;-0.6627039909362793;1.4151999950408936;1.7480159997940063;0.0;0.0;0.0
1597;0.0;0.0;0.0;-0.5963360071182251;1.3722559213638306;1.66212797164917;0.0;0.0;0.0
1599;-0.7678679823875427;1.5425679683685303;1.6094239950180054;-0.5768159627914429;1.2980799674987793;1.6055200099945068;6.483750343322754;-66.46062469482422;83.74187469482422
1601;0.0;0.0;0.0;-0.5426560044288635;1.2356159687042236;1.5489119291305542;0.0;0.0;0.0
1603;0.0;0.0;0.0;-0.45286399126052856;1.1770559549331665;1.4708319902420044;0.0;0.0;0.0
1605;0.0;0.0;0.0;-0.4021120071411133;1.134112000465393;1.4308159351348877;0.0;0.0;0.0
1607;-0.5809639692306519;1.3232120275497437;1.355907917022705;-0.38649600744247437;1.09116792678833;1.3898239135742188;-17.31624984741211;-94.18061828613281;90.671875
1609;0.0;0.0;0.0;-0.35624000430107117;1.036512017250061;1.3410239219665527;0.0;0.0;0.0
1611;0.0;0.0;0.0;-0.387472003698349;1.0013760328292847;1.2688000202178955;0.0;0.0;0.0
1614;0.0;0.0;0.0;-0.32207998633384705;0.9896639585494995;1.223904013633728;0.0;0.0;0.0
1616;-0.4631119966506958;1.1292319297790527;1.1314280033111572;-0.32598400115966797;0.9232959747314453;1.1389919519424438;-37.68625259399414;-107.7606201171875;97.74187469482422
1618;0.0;0.0;0.0;-0.28303998708724976;0.8413119912147522;1.0775039196014404;0.0;0.0;0.0
1620;0.0;0.0;0.0;-0.24009600281715393;0.8295999765396118;1.0413919687271118;0.0;0.0;0.0
1622;0.0;0.0;0.0;-0.23228800296783447;0.7319999933242798;0.9759999513626099;0.0;0.0;0.0
1624;-0.38429999351501465;0.9364719986915588;0.9142679572105408;-0.1698240041732788;0.6890559792518616;0.9359839558601379;-56.09625244140625;-115.7406234741211;106.98187255859375
1626;0.0;0.0;0.0;-0.18934398889541626;0.6148799657821655;0.8871839642524719;0.0;0.0;0.0
1628;0.0;0.0;0.0;-0.12785600125789642;0.49775999784469604;0.8139839768409729;0.0;0.0;0.0
1631;0.0;0.0;0.0;-0.1395680010318756;0.4274879992008209;0.7612800002098083;0.0;0.0;0.0
1633;-0.26278799772262573;0.6324479579925537;0.7041839957237244;-0.10443200170993805;0.2908479869365692;0.7212640047073364;-69.95625305175781;-112.59062194824219;116.921875
1635;0.0;0.0;0.0;-0.08100800216197968;0.19324800372123718;0.6636799573898315;0.0;0.0;0.0
1637;0.0;0.0;0.0;-0.057583998888731;0.09564799815416336;0.6519680023193359;0.0;0.0;0.0
1639;0.0;0.0;0.0;-0.053679998964071274;0.0019519999623298645;0.6236639618873596;0.0;0.0;0.0
1641;-0.1756799966096878;0.2269199937582016;0.52947998046875;-0.049775999039411545;-0.06831999868154526;0.6197599768638611;-71.70625305175781;-94.7406234741211;124.76187133789062
1643;0.0;0.0;0.0;-0.01756799966096878;-0.18934398889541626;0.587552011013031;0.0;0.0;0.0
1645;0.0;0.0;0.0;-0.029279999434947968;-0.29475200176239014;0.5914559960365295;0.0;0.0;0.0
1648;0.0;0.0;0.0;-0.040991999208927155;-0.3845439851284027;0.586575984954834;0.0;0.0;0.0
1650;-0.15518400073051453;-0.15518400073051453;0.4577440023422241;-0.06441599875688553;-0.4352959990501404;0.5670560002326965;-62.0462532043457;-72.48062133789062;131.06187438964844
1652;0.0;0.0;0.0;-0.05270399898290634;-0.5641279816627502;0.5670560002326965;0.0;0.0;0.0
1654;0.0;0.0;0.0;-0.0605119988322258;-0.6461119651794434;0.5787680149078369;0.0;0.0;0.0
1656;0.0;0.0;0.0;-0.05660799890756607;-0.7241919636726379;0.5787680149078369;0.0;0.0;0.0
1658;-0.15835599601268768;-0.5099599957466125;0.45359599590301514;-0.0058559998869895935;-0.8100799918174744;0.6070719957351685;-46.226253509521484;-57.010623931884766;136.52186584472656
1660;0.0;0.0;0.0;-0.04196799919009209;-0.9154880046844482;0.6148799657821655;0.0;0.0;0.0
1662;0.0;0.0;0.0;-0.04196799919009209;-0.9974719882011414;0.6158559918403625;0.0;0.0;0.0
1665;0.0;0.0;0.0;-0.03415999934077263;-1.1302080154418945;0.6480640172958374;0.0;0.0;0.0
1667;-0.14859600365161896;-0.8786439895629883;0.49897998571395874;-0.022447999566793442;-1.2121919393539429;0.6480640172958374;-31.0362491607666;-50.08062744140625;139.2518768310547
1669;0.0;0.0;0.0;-0.04196799919009209;-1.3488320112228394;0.684175968170166;0.0;0.0;0.0
1671;0.0;0.0;0.0;-0.006831999868154526;-1.458143949508667;0.6919839978218079;0.0;0.0;0.0
1673;0.0;0.0;0.0;-0.014639999717473984;-1.547935962677002;0.7212640047073364;0.0;0.0;0.0
1675;-0.13419999182224274;-1.3190640211105347;0.5777919888496399;0.020495999604463577;-1.6689599752426147;0.7534719705581665;-23.826250076293945;-43.920623779296875;134.28187561035156
1677;0.0;0.0;0.0;0.01268799975514412;-1.7392319440841675;0.7778719663619995;0.0;0.0;0.0
1679;0.0;0.0;0.0;0.0634399950504303;-1.7665599584579468;0.8061760067939758;0.0;0.0;0.0
1682;0.0;0.0;0.0;0.09857599437236786;-1.9149119853973389;0.8217920064926147;0.0;0.0;0.0
1684;-0.052947998046875;-1.6731079816818237;0.6675840020179749;0.11321599781513214;-1.9929919242858887;0.7895839810371399;-27.5362491607666;-32.510623931884766;118.671875
1686;0.0;0.0;0.0;0.1483519971370697;-2.106207847595215;0.8344799876213074;0.0;0.0;0.0
1688;0.0;0.0;0.0;0.19129599630832672;-2.1803839206695557;0.8549759984016418;0.0;0.0;0.0
1690;0.0;0.0;0.0;0.16787199676036835;-2.2740800380706787;0.8832799792289734;0.0;0.0;0.0
1692;0.05172799900174141;-2.0352039337158203;0.7244359850883484;0.21081599593162537;-2.3287360668182373;0.9271999597549438;-35.306251525878906;-17.110626220703125;97.3918685913086
1695;0.0;0.0;0.0;0.230335995554924;-2.410719871520996;0.9359839558601379;0.0;0.0;0.0
1697;0.0;0.0;0.0;0.15615999698638916;-2.496608018875122;0.9642879962921143;0.0;0.0;0.0
1699;0.0;0.0;0.0;0.1327359974384308;-2.5434558391571045;1.0091840028762817;0.0;0.0;0.0
1701;0.04806799814105034;-2.3314199447631836;0.8583920001983643;0.10247999429702759;-2.586400032043457;1.0696959495544434;-44.5462532043457;8.229375839233398;74.78187561035156
1703;0.0;0.0;0.0;0.07905599474906921;-2.6176319122314453;1.126304030418396;0.0;0.0;0.0
1705;0.0;0.0;0.0;0.04001599922776222;-2.6371519565582275;1.1672959327697754;0.0;0.0;0.0
1707;0.0;0.0;0.0;0.01268799975514412;-2.664479970932007;1.2200000286102295;0.0;0.0;0.0
1709;-0.08637599647045135;-2.5114920139312744;1.028216004371643;-0.02635199949145317;-2.691807985305786;1.231711983680725;-55.18625259399414;27.05937385559082;44.821876525878906
1712;0.0;0.0;0.0;-0.04196799919009209;-2.7074239253997803;1.248304009437561;0.0;0.0;0.0
1713;0.0;0.0;0.0;-0.06539200246334076;-2.7035200595855713;1.2356159687042236;0.0;0.0;0.0
1716;0.0;0.0;0.0;-0.10833600163459778;-2.684000015258789;1.231711983680725;0.0;0.0;0.0
1718;-0.19910399615764618;-2.5588278770446777;1.1109319925308228;-0.1395680010318756;-2.691807985305786;1.2522079944610596;-61.906253814697266;25.659374237060547;12.411874771118164
1720;0.0;0.0;0.0;-0.16201600432395935;-2.6488640308380127;1.248304009437561;0.0;0.0;0.0
1722;0.0;0.0;0.0;-0.15030398964881897;-2.6215360164642334;1.2160959243774414;0.0;0.0;0.0
1724;0.0;0.0;0.0;-0.12004800140857697;-2.602015972137451;1.1790080070495605;0.0;0.0;0.0
1726;-0.26449599862098694;-2.4834320545196533;1.0633519887924194;-0.1239520013332367;-2.5629758834838867;1.101904034614563;-54.976253509521484;-9.340625762939453;-16.358123779296875
1729;0.0;0.0;0.0;-0.022447999566793442;-2.5200319290161133;1.0287039279937744;0.0;0.0;0.0
1731;0.0;0.0;0.0;-0.018543999642133713;-2.500511884689331;0.9564799666404724;0.0;0.0;0.0
1733;0.0;0.0;0.0;0.01268799975514412;-2.379487991333008;0.9037759900093079;0.0;0.0;0.0
1735;-0.14103199541568756;-2.309216022491455;0.832040011882782;0.06734399497509003;-2.2857918739318848;0.8383839726448059;-38.24625015258789;-62.19062423706055;-38.268123626708984
1737;0.0;0.0;0.0;0.08295999467372894;-2.215519905090332;0.773967981338501;0.0;0.0;0.0
1739;0.0;0.0;0.0;0.13663999736309052;-2.114016056060791;0.6968640089035034;0.0;0.0;0.0
1741;0.0;0.0;0.0;0.19910399615764618;-2.0671679973602295;0.6070719957351685;0.0;0.0;0.0
1743;0.02122800052165985;-1.9920159578323364;0.5653479695320129;0.21862399578094482;-1.973471999168396;0.5182560086250305;-23.126249313354492;-90.40061950683594;-59.75812530517578
1745;0.0;0.0;0.0;0.284991979598999;-1.883679986000061;0.4655520021915436;0.0;0.0;0.0
1748;0.0;0.0;0.0;0.33183997869491577;-1.8290239572525024;0.3640480041503906;0.0;0.0;0.0
1750;0.0;0.0;0.0;0.37088000774383545;-1.7509440183639526;0.30743998289108276;0.0;0.0;0.0
1752;0.21545200049877167;-1.6706680059432983;0.25400400161743164;0.4323679804801941;-1.6494399309158325;0.2791360020637512;-11.506250381469727;-94.46062469482422;-75.15812683105469
1754;0.0;0.0;0.0;0.5065439939498901;-1.5362240076065063;0.21374399960041046;0.0;0.0;0.0
1756;0.0;0.0;0.0;0.5690079927444458;-1.4815679788589478;0.17763200402259827;0.0;0.0;0.0
1758;0.0;0.0;0.0;0.5572959780693054;-1.3800640106201172;0.14444799721240997;0.0;0.0;0.0
1760;0.4177280068397522;-1.3327280282974243;0.05660799890756607;0.5924319624900818;-1.3332159519195557;0.12492799758911133;0.5337499976158142;-70.94062042236328;-84.18812561035156
1763;0.0;0.0;0.0;0.6246399879455566;-1.2668479681015015;0.07612799853086472;0.0;0.0;0.0
1765;0.0;0.0;0.0;0.6246399879455566;-1.180959939956665;0.10443200170993805;0.0;0.0;0.0
1767;0.0;0.0;0.0;0.6392799615859985;-1.1028800010681152;0.10443200170993805;0.0;0.0;0.0
1769;0.5070319771766663;-1.0389519929885864;-0.018543999642133713;0.6207360029220581;-1.044319987297058;0.11614400148391724;10.68375015258789;-15.570625305175781;-89.71813201904297
1771;0.0;0.0;0.0;0.6324479579925537;-0.9779520034790039;0.15323199331760406;0.0;0.0;0.0
1773;0.0;0.0;0.0;0.5816959738731384;-0.9193919897079468;0.21374399960041046;0.0;0.0;0.0
1775;0.0;0.0;0.0;0.5504639744758606;-0.8764479756355286;0.2420479953289032;0.0;0.0;0.0
1777;0.4614039957523346;-0.7783600091934204;0.07710400223731995;0.47628799080848694;-0.7905600070953369;0.33183997869491577;20.833749771118164;58.489376068115234;-91.88813018798828
1780;0.0;0.0;0.0;0.41284799575805664;-0.7437120079994202;0.3640480041503906;0.0;0.0;0.0
1782;0.0;0.0;0.0;0.33183997869491577;-0.6890559792518616;0.460671991109848;0.0;0.0;0.0
1784;0.0;0.0;0.0;0.3084160089492798;-0.6461119651794434;0.5582720041275024;0.0;0.0;0.0
1786;0.2210640013217926;-0.5453400015830994;0.35282400250434875;0.16396799683570862;-0.5758399963378906;0.6353759765625;29.02375030517578;125.3393783569336;-92.02812957763672
1788;0.0;0.0;0.0;0.13663999736309052;-0.5289919972419739;0.7212640047073364;0.0;0.0;0.0
1790;0.0;0.0;0.0;0.04391999915242195;-0.45481598377227783;0.8178879618644714;0.0;0.0;0.0
1792;0.0;0.0;0.0;-0.03415999934077263;-0.3845439851284027;0.9037759900093079;0.0;0.0;0.0
1794;-0.07441999763250351;-0.32500800490379333;0.6902759671211243;-0.07710400223731995;-0.3533119857311249;1.0169919729232788;34.48374938964844;161.66937255859375;-90.76812744140625
1796;0.0;0.0;0.0;-0.1542080044746399;-0.29475200176239014;1.0657919645309448;0.0;0.0;0.0
1799;0.0;0.0;0.0;-0.22448000311851501;-0.2479040026664734;1.150704026222229;0.0;0.0;0.0
1801;0.0;0.0;0.0;-0.22838398814201355;-0.18544000387191772;1.2444000244140625;0.0;0.0;0.0
1803;-0.3108559846878052;-0.10955599695444107;1.0182119607925415;-0.3025600016117096;-0.15811198949813843;1.2932000160217285;36.863746643066406;165.58937072753906;-89.2281265258789
1805;0.0;0.0;0.0;-0.3640480041503906;-0.07222399860620499;1.370303988456726;0.0;0.0;0.0
1807;0.0;0.0;0.0;-0.37966400384902954;-0.044895999133586884;1.4220319986343384;0.0;0.0;0.0
1809;0.0;0.0;0.0;-0.43432000279426575;0.02537599951028824;1.4874240159988403;0.0;0.0;0.0
1811;-0.5070319771766663;0.09613599628210068;1.281000018119812;-0.47336000204086304;0.08003199845552444;1.5440319776535034;34.693748474121094;148.859375;-88.59812927246094
1814;0.0;0.0;0.0;-0.5045920014381409;0.12297599762678146;1.6055200099945068;0.0;0.0;0.0
1816;0.0;0.0;0.0;-0.5045920014381409;0.15811198949813843;1.6338239908218384;0.0;0.0;0.0
1818;0.0;0.0;0.0;-0.5709599852561951;0.22838398814201355;1.686527967453003;0.0;0.0;0.0
1820;-0.6402559876441956;0.31036800146102905;1.4808359146118164;-0.5748639702796936;0.2479040026664734;1.6748160123825073;27.903749465942383;117.35938262939453;-87.54812622070312
1822;0.0;0.0;0.0;-0.5475360155105591;0.3337920010089874;1.718735933303833;0.0;0.0;0.0
1824;0.0;0.0;0.0;-0.5475360155105591;0.36502400040626526;1.7236160039901733;0.0;0.0;0.0
1826;0.0;0.0;0.0;-0.5319200158119202;0.38844799995422363;1.710927963256836;0.0;0.0;0.0
1828;-0.6544079780578613;0.4794600009918213;1.564527988433838;-0.5163040161132812;0.4001599848270416;1.686527967453003;18.243749618530273;79.20938110351562;-86.28813171386719
1830;0.0;0.0;0.0;-0.4811680018901825;0.43139198422431946;1.6338239908218384;0.0;0.0;0.0
1833;0.0;0.0;0.0;-0.44603198766708374;0.5016639828681946;1.7148319482803345;0.0;0.0;0.0
1835;0.0;0.0;0.0;-0.39528000354766846;0.5328959822654724;1.6787199974060059;0.0;0.0;0.0
1837;-0.5604680180549622;0.6248840093612671;1.539639949798584;-0.3835679888725281;0.610975980758667;1.669935941696167;14.18375015258789;45.819374084472656;-82.8581314086914
1839;0.0;0.0;0.0;-0.41870400309562683;0.6656320095062256;1.6465119123458862;0.0;0.0;0.0
1841;0.0;0.0;0.0;-0.4382239878177643;0.7046719789505005;1.6016160249710083;0.0;0.0;0.0
1843;0.0;0.0;0.0;-0.4304159879684448;0.7280960083007812;1.596735954284668;0.0;0.0;0.0
1845;-0.5260639786720276;0.8266719579696655;1.4774199724197388;-0.3757599890232086;0.7710399627685547;1.5567200183868408;14.463749885559082;20.619375228881836;-75.8581314086914
1848;0.0;0.0;0.0;-0.34062400460243225;0.8188639879226685;1.5518399477005005;0.0;0.0;0.0
1850;0.0;0.0;0.0;-0.29475200176239014;0.7954399585723877;1.5118240118026733;0.0;0.0;0.0
1852;0.0;0.0;0.0;-0.25571200251579285;0.9398880004882812;1.5157279968261719;0.0;0.0;0.0
1854;-0.41919198632240295;0.9769759774208069;1.3861639499664307;-0.2205759882926941;0.912559986114502;1.4464319944381714;17.823749542236328;-1.080625057220459;-65.14812469482422
1856;0.0;0.0;0.0;-0.22448000311851501;0.9476959705352783;1.4220319986343384;0.0;0.0;0.0
1858;0.0;0.0;0.0;-0.20495998859405518;0.9398880004882812;1.3976320028305054;0.0;0.0;0.0
1860;0.0;0.0;0.0;-0.20105600357055664;0.986735999584198;1.3742079734802246;0.0;0.0;0.0
1862;-0.32793599367141724;1.0867760181427002;1.2761199474334717;-0.17372798919677734;0.9789279699325562;1.3742079734802246;22.233749389648438;-8.500625610351562;-52.198123931884766
1865;0.0;0.0;0.0;-0.16201600432395935;1.002351999282837;1.3410239219665527;0.0;0.0;0.0
1867;0.0;0.0;0.0;-0.1424959897994995;1.0374879837036133;1.3293119668960571;0.0;0.0;0.0
1869;0.0;0.0;0.0;-0.13176000118255615;1.0765279531478882;1.3576159477233887;0.0;0.0;0.0
1871;-0.2618120014667511;1.1860840320587158;1.2209759950637817;-0.1542080044746399;1.189743995666504;1.3410239219665527;26.64375114440918;-5.210625171661377;-39.87812423706055
1873;0.0;0.0;0.0;-0.13859200477600098;1.146799921989441;1.3576159477233887;0.0;0.0;0.0
1875;0.0;0.0;0.0;-0.16201600432395935;1.1780319213867188;1.3576159477233887;0.0;0.0;0.0
1877;0.0;0.0;0.0;-0.14737600088119507;1.205359935760498;1.3537119626998901;0.0;0.0;0.0
1879;-0.2635200023651123;1.3166239261627197;1.2221959829330444;-0.13176000118255615;1.2326879501342773;1.3537119626998901;28.743749618530273;2.2093751430511475;-27.27812385559082
1882;0.0;0.0;0.0;-0.12004800140857697;1.2590399980545044;1.3498079776763916;0.0;0.0;0.0
1884;0.0;0.0;0.0;-0.1395680010318756;1.2902719974517822;1.3498079776763916;0.0;0.0;0.0
1886;0.0;0.0;0.0;-0.11224000155925751;1.352735996246338;1.3693280220031738;0.0;0.0;0.0
1888;-0.24985599517822266;1.4252039194107056;1.2275639772415161;-0.12785600125789642;1.3644479513168335;1.3654239177703857;31.193750381469727;6.689374923706055;-11.3881254196167
1890;0.0;0.0;0.0;-0.1542080044746399;1.3956799507141113;1.3498079776763916;0.0;0.0;0.0
1892;0.0;0.0;0.0;-0.1815359890460968;1.3995839357376099;1.4103199243545532;0.0;0.0;0.0
1894;0.0;0.0;0.0;-0.18544000387191772;1.4151999950408936;1.4103199243545532;0.0;0.0;0.0
1896;-0.281576007604599;1.5289039611816406;1.2436679601669312;-0.18544000387191772;1.4269119501113892;1.4025119543075562;37.42374801635742;7.879374980926514;10.171875
1899;0.0;0.0;0.0;-0.18544000387191772;1.4151999950408936;1.4103199243545532;0.0;0.0;0.0
1901;0.0;0.0;0.0;-0.24009600281715393;1.3995839357376099;1.4181280136108398;0.0;0.0;0.0
1903;0.0;0.0;0.0;-0.2518079876899719;1.4073920249938965;1.4464319944381714;0.0;0.0;0.0
1905;-0.34404000639915466;1.5362240076065063;1.2775839567184448;-0.2635200023651123;1.3800640106201172;1.4220319986343384;42.04374694824219;1.0893750190734863;34.95187759399414
1907;0.0;0.0;0.0;-0.28303998708724976;1.3839679956436157;1.45033597946167;0.0;0.0;0.0
1909;0.0;0.0;0.0;-0.3025600016117096;1.3566399812698364;1.4708319902420044;0.0;0.0;0.0
1911;0.0;0.0;0.0;-0.26742398738861084;1.3254079818725586;1.4669280052185059;0.0;0.0;0.0
1913;-0.39137598872184753;1.4835200309753418;1.3310199975967407;-0.29475200176239014;1.3176000118255615;1.4874240159988403;37.63374710083008;-6.260624885559082;55.04187774658203
1916;0.0;0.0;0.0;-0.33671998977661133;1.2941759824752808;1.4786399602890015;0.0;0.0;0.0
1918;0.0;0.0;0.0;-0.35233598947525024;1.278559923171997;1.4952319860458374;0.0;0.0;0.0
1920;0.0;0.0;0.0;-0.3298879861831665;1.231711983680725;1.5157279968261719;0.0;0.0;0.0
1922;-0.4450559914112091;1.3856760263442993;1.3590799570083618;-0.3601439893245697;1.2043839693069458;1.5030399560928345;23.283750534057617;-13.120624542236328;67.6418685913086
1924;0.0;0.0;0.0;-0.36795198917388916;1.2004799842834473;1.5118240118026733;0.0;0.0;0.0
1926;0.0;0.0;0.0;-0.35624000430107117;1.1380159854888916;1.4796159267425537;0.0;0.0;0.0
1928;0.0;0.0;0.0;-0.3640480041503906;1.1536319255828857;1.5030399560928345;0.0;0.0;0.0
1930;-0.4804359972476959;1.3024719953536987;1.355907917022705;-0.387472003698349;1.1067839860916138;1.474735975265503;3.963749885559082;-24.53062629699707;75.6918716430664
1933;0.0;0.0;0.0;-0.37966400384902954;1.0843359231948853;1.4103199243545532;0.0;0.0;0.0
1935;0.0;0.0;0.0;-0.33671998977661133;1.0335839986801147;1.3820159435272217;0.0;0.0;0.0
1937;0.0;0.0;0.0;-0.32891198992729187;1.0335839986801147;1.3781119585037231;0.0;0.0;0.0
1939;-0.4706760048866272;1.1802279949188232;1.2646520137786865;-0.32500800490379333;0.9437919855117798;1.3410239219665527;-13.886249542236328;-43.71062469482422;84.86186981201172
1941;0.0;0.0;0.0;-0.32207998633384705;0.9047519564628601;1.2883199453353882;0.0;0.0;0.0
1943;0.0;0.0;0.0;-0.29865598678588867;0.896943986415863;1.2932000160217285;0.0;0.0;0.0
1945;0.0;0.0;0.0;-0.32500800490379333;0.7759199738502502;1.2444000244140625;0.0;0.0;0.0
1947;-0.43773600459098816;0.9838079810142517;1.1514359712600708;-0.32598400115966797;0.7407839894294739;1.231711983680725;-28.0262508392334;-59.46062469482422;94.73187255859375
1950;0.0;0.0;0.0;-0.3181760013103485;0.6617279648780823;1.1956000328063965;0.0;0.0;0.0
1952;0.0;0.0;0.0;-0.3142719864845276;0.6070719957351685;1.1633919477462769;0.0;0.0;0.0
1954;0.0;0.0;0.0;-0.3181760013103485;0.5055679678916931;1.1350879669189453;0.0;0.0;0.0
1956;-0.43895599246025085;0.7337079644203186;1.0274839401245117;-0.32207998633384705;0.4626239836215973;1.1184959411621094;-39.57625198364258;-68.9106216430664;102.6418685913086
1958;0.0;0.0;0.0;-0.31036800146102905;0.41967999935150146;1.073599934577942;0.0;0.0;0.0
1960;0.0;0.0;0.0;-0.30646398663520813;0.3298879861831665;1.0335839986801147;0.0;0.0;0.0
1962;0.0;0.0;0.0;-0.28303998708724976;0.2869440019130707;1.0374879837036133;0.0;0.0;0.0
1964;-0.4228519797325134;0.4572559893131256;0.9088999629020691;-0.30646398663520813;0.14640000462532043;0.9642879962921143;-48.60625076293945;-78.9906234741211;108.87187194824219
1967;0.0;0.0;0.0;-0.2908479869365692;0.044895999133586884;0.9398880004882812;0.0;0.0;0.0
1969;0.0;0.0;0.0;-0.24009600281715393;-0.040991999208927155;0.8627839684486389;0.0;0.0;0.0
1971;0.0;0.0;0.0;-0.24399998784065247;-0.16591998934745789;0.8627839684486389;0.0;0.0;0.0
1973;-0.3857640027999878;0.07905599474906921;0.7551800012588501;-0.22448000311851501;-0.2791360020637512;0.822767972946167;-53.2962532043457;-90.82062530517578;114.61186981201172
1975;0.0;0.0;0.0;-0.20105600357055664;-0.41577598452568054;0.7612800002098083;0.0;0.0;0.0
1977;0.0;0.0;0.0;-0.18934398889541626;-0.521183967590332;0.708575963973999;0.0;0.0;0.0
1979;0.0;0.0;0.0;-0.17763200402259827;-0.6461119651794434;0.7124800086021423;0.0;0.0;0.0
1981;-0.31915199756622314;-0.39698800444602966;0.614147961139679;-0.1512800008058548;-0.7788479924201965;0.6519680023193359;-53.156253814697266;-97.68061828613281;117.2718734741211
1984;0.0;0.0;0.0;-0.10833600163459778;-0.895967960357666;0.6480640172958374;0.0;0.0;0.0
1986;0.0;0.0;0.0;-0.11614400148391724;-1.0052800178527832;0.6402559876441956;0.0;0.0;0.0
1988;0.0;0.0;0.0;-0.08100800216197968;-1.134112000465393;0.610975980758667;0.0;0.0;0.0
1990;-0.22667600214481354;-0.8893799781799316;0.5094720125198364;-0.03806399926543236;-1.2512320280075073;0.6031680107116699;-50.566253662109375;-96.84062194824219;113.91187286376953
1992;0.0;0.0;0.0;0.028303999453783035;-1.368351936340332;0.5787680149078369;0.0;0.0;0.0
1994;0.0;0.0;0.0;0.05172799900174141;-1.4932799339294434;0.5670560002326965;0.0;0.0;0.0
1996;0.0;0.0;0.0;0.10931199789047241;-1.5908799171447754;0.5299679636955261;0.0;0.0;0.0
1998;-0.06734399497509003;-1.33980393409729;0.4457879960536957;0.1298079937696457;-1.7001919746398926;0.5465599894523621;-47.34625244140625;-88.30062103271484;104.74187469482422
2001;0.0;0.0;0.0;0.18348799645900726;-1.7782719135284424;0.5260639786720276;0.0;0.0;0.0
2003;0.0;0.0;0.0;0.19910399615764618;-1.8719679117202759;0.5182560086250305;0.0;0.0;0.0
2005;0.0;0.0;0.0;0.23814399540424347;-1.973471999168396;0.5338720083236694;0.0;0.0;0.0
2007;0.08710800111293793;-1.7265440225601196;0.4189479947090149;0.23814399540424347;-1.9617599248886108;0.5465599894523621;-43.07625198364258;-68.98062133789062;91.16187286376953
2009;0.0;0.0;0.0;0.3474559783935547;-2.1530559062957764;0.5426560044288635;0.0;0.0;0.0
2011;0.0;0.0;0.0;0.230335995554924;-2.1764800548553467;0.5582720041275024;0.0;0.0;0.0
2013;0.0;0.0;0.0;0.38259199261665344;-2.2662720680236816;0.5748639702796936;0.0;0.0;0.0
2015;0.19105198979377747;-2.035935878753662;0.4531079828739166;0.33183997869491577;-2.2740800380706787;0.6236639618873596;-39.36625289916992;-38.390625;73.5218734741211
2018;0.0;0.0;0.0;0.34355199337005615;-2.3443520069122314;0.6275680065155029;0.0;0.0;0.0
2020;0.0;0.0;0.0;0.33183997869491577;-2.4458558559417725;0.6480640172958374;0.0;0.0;0.0
2022;0.0;0.0;0.0;0.3123199939727783;-2.4653759002685547;0.6802719831466675;0.0;0.0;0.0
2024;0.19227199256420135;-2.276520013809204;0.534604012966156;0.2537599802017212;-2.5434558391571045;0.708575963973999;-35.51625061035156;-1.5006250143051147;55.11187744140625
2026;0.0;0.0;0.0;0.2537599802017212;-2.5590720176696777;0.725167989730835;0.0;0.0;0.0
2028;0.0;0.0;0.0;0.21862399578094482;-2.6137280464172363;0.7934879660606384;0.0;0.0;0.0
2030;0.0;0.0;0.0;0.18348799645900726;-2.6137280464172363;0.8510719537734985;0.0;0.0;0.0
2032;0.09857599437236786;-2.456835985183716;0.6605079770088196;0.1327359974384308;-2.695711851119995;0.8588799834251404;-26.136249542236328;27.619375228881836;35.301876068115234
2035;0.0;0.0;0.0;0.11711999773979187;-2.7503678798675537;0.8666880130767822;0.0;0.0;0.0
2037;0.0;0.0;0.0;0.07905599474906921;-2.7503678798675537;0.8988959789276123;0.0;0.0;0.0
2039;0.0;0.0;0.0;0.04782399907708168;-2.769887924194336;0.8949919939041138;0.0;0.0;0.0
2041;-0.03537999838590622;-2.602992057800293;0.7542039752006531;0.032207999378442764;-2.7464640140533447;0.8949919939041138;-12.90625;33.28937530517578;13.041874885559082
2043;0.0;0.0;0.0;-0.0029279999434947968;-2.7386560440063477;0.8949919939041138;0.0;0.0;0.0
2045;0.0;0.0;0.0;0.024399999529123306;-2.6527678966522217;0.9154880046844482;0.0;0.0;0.0
2047;0.0;0.0;0.0;0.03611199930310249;-2.6215360164642334;0.9193919897079468;0.0;0.0;0.0
2049;-0.09272000193595886;-2.517591953277588;0.7722600102424622;0.04391999915242195;-2.504415988922119;0.8949919939041138;6.34375;15.229375839233398;-12.22812557220459
2052;0.0;0.0;0.0;0.0634399950504303;-2.39900803565979;0.8754720091819763;0.0;0.0;0.0
2054;0.0;0.0;0.0;0.05172799900174141;-2.2779839038848877;0.8422879576683044;0.0;0.0;0.0
2056;0.0;0.0;0.0;0.08686399459838867;-2.211616039276123;0.7934879660606384;0.0;0.0;0.0
2058;-0.06417199969291687;-2.166964054107666;0.7000359892845154;0.06734399497509003;-2.117919921875;0.725167989730835;23.353750228881836;-11.020624160766602;-35.678123474121094
2060;0.0;0.0;0.0;0.13663999736309052;-1.9851839542388916;0.676367998123169;0.0;0.0;0.0
2062;0.0;0.0;0.0;0.1600639969110489;-1.9031999111175537;0.6558719873428345;0.0;0.0;0.0
2064;0.0;0.0;0.0;0.21862399578094482;-1.7704639434814453;0.6158559918403625;0.0;0.0;0.0
2066;0.047335997223854065;-1.7589960098266602;0.5204519629478455;0.2420479953289032;-1.696287989616394;0.5670560002326965;35.04374694824219;-28.170625686645508;-52.89812469482422
2069;0.0;0.0;0.0;0.2810879945755005;-1.6025919914245605;0.5299679636955261;0.0;0.0;0.0
2071;0.0;0.0;0.0;0.28889599442481995;-1.4776639938354492;0.4899519979953766;0.0;0.0;0.0
2073;0.0;0.0;0.0;0.3123199939727783;-1.4230079650878906;0.4411519765853882;0.0;0.0;0.0
2075;0.17787599563598633;-1.3727439641952515;0.3638039827346802;0.3357439935207367;-1.3371199369430542;0.46164798736572266;42.463748931884766;-24.040624618530273;-63.538124084472656
2077;0.0;0.0;0.0;0.374783992767334;-1.2395199537277222;0.4206559956073761;0.0;0.0;0.0
2079;0.0;0.0;0.0;0.35526400804519653;-1.1614400148391724;0.4333440065383911;0.0;0.0;0.0
2081;0.0;0.0;0.0;0.35916799306869507;-1.0716480016708374;0.4567679762840271;0.0;0.0;0.0
2084;0.2349720001220703;-1.0265079736709595;0.31573599576950073;0.35916799306869507;-1.0287039279937744;0.44896000623703003;45.963748931884766;1.6493749618530273;-69.27812957763672
2086;0.0;0.0;0.0;0.34355199337005615;-0.9740479588508606;0.4938559830188751;0.0;0.0;0.0
2088;0.0;0.0;0.0;0.3201279938220978;-0.9467200040817261;0.522159993648529;0.0;0.0;0.0
2090;0.0;0.0;0.0;0.27327999472618103;-0.8686400055885315;0.5299679636955261;0.0;0.0;0.0
2092;0.18983200192451477;-0.7944639921188354;0.3940599858760834;0.24985599517822266;-0.8335039615631104;0.5582720041275024;40.57374954223633;41.6193733215332;-75.29812622070312
2094;0.0;0.0;0.0;0.22252799570560455;-0.8178879618644714;0.5992639660835266;0.0;0.0;0.0
2096;0.0;0.0;0.0;0.13663999736309052;-0.7554239630699158;0.6724640130996704;0.0;0.0;0.0
2098;0.0;0.0;0.0;0.1327359974384308;-0.700767993927002;0.7368800044059753;0.0;0.0;0.0
2101;0.05148399993777275;-0.5990200042724609;0.5411919951438904;0.11711999773979187;-0.6539199948310852;0.757375955581665;29.30375099182129;78.43937683105469;-81.4581298828125
2103;0.0;0.0;0.0;0.04391999915242195;-0.5914559960365295;0.8022719621658325;0.0;0.0;0.0
2105;0.0;0.0;0.0;-0.018543999642133713;-0.5524159669876099;0.8705919981002808;0.0;0.0;0.0
2107;0.0;0.0;0.0;-0.06148799881339073;-0.47043198347091675;0.9076799750328064;0.0;0.0;0.0
2109;-0.12004800140857697;-0.4182159900665283;0.7393199801445007;-0.06539200246334076;-0.48214399814605713;0.9681919813156128;16.073749542236328;102.02938079833984;-87.54812622070312
2111;0.0;0.0;0.0;-0.10833600163459778;-0.411871999502182;1.0208959579467773;0.0;0.0;0.0
2113;0.0;0.0;0.0;-0.1395680010318756;-0.39235198497772217;1.0413919687271118;0.0;0.0;0.0
2115;0.0;0.0;0.0;-0.18934398889541626;-0.30646398663520813;1.0862879753112793;0.0;0.0;0.0
2118;-0.2622999846935272;-0.22838398814201355;0.9108519554138184;-0.20105600357055664;-0.2752319872379303;1.1106879711151123;5.503750324249268;110.42938232421875;-92.09812927246094
2120;0.0;0.0;0.0;-0.21667200326919556;-0.20398399233818054;1.1672959327697754;0.0;0.0;0.0
2122;0.0;0.0;0.0;-0.24399998784065247;-0.16494399309158325;1.1956000328063965;0.0;0.0;0.0
2124;0.0;0.0;0.0;-0.2869440019130707;-0.1454239934682846;1.2200000286102295;0.0;0.0;0.0
2126;-0.3596560060977936;-0.052216000854969025;1.051151990890503;-0.2791360020637512;-0.0907679945230484;1.2522079944610596;-0.09624999761581421;105.17938232421875;-92.02812957763672
2128;0.0;0.0;0.0;-0.2869440019130707;-0.08295999467372894;1.2639199495315552;0.0;0.0;0.0
2130;0.0;0.0;0.0;-0.2869440019130707;-0.01268799975514412;1.3176000118255615;0.0;0.0;0.0
2132;0.0;0.0;0.0;-0.32207998633384705;0.010735999792814255;1.345903992652893;0.0;0.0;0.0
2135;-0.41577598452568054;0.09125600010156631;1.1663199663162231;-0.3142719864845276;0.022447999566793442;1.3615199327468872;-0.8662499785423279;94.53937530517578;-88.52812957763672
2137;0.0;0.0;0.0;-0.3142719864845276;0.040991999208927155;1.4025119543075562;0.0;0.0;0.0
2139;0.0;0.0;0.0;-0.3337920010089874;0.1268799901008606;1.4542399644851685;0.0;0.0;0.0
2141;0.0;0.0;0.0;-0.35233598947525024;0.12297599762678146;1.4786399602890015;0.0;0.0;0.0
2143;-0.4596959948539734;0.22618798911571503;1.2980799674987793;-0.37966400384902954;0.1424959897994995;1.4835200309753418;0.39375001192092896;84.109375;-84.53813171386719
2145;0.0;0.0;0.0;-0.42260798811912537;0.2088640034198761;1.5196319818496704;0.0;0.0;0.0
2147;0.0;0.0;0.0;-0.4265120029449463;0.21667200326919556;1.5567200183868408;0.0;0.0;0.0
2149;0.0;0.0;0.0;-0.44993600249290466;0.2518079876899719;1.572335958480835;0.0;0.0;0.0
2152;-0.5399720072746277;0.36282798647880554;1.4098320007324219;-0.4265120029449463;0.29865598678588867;1.6016160249710083;0.2537500262260437;68.07937622070312;-80.75812530517578
2154;0.0;0.0;0.0;-0.43432000279426575;0.29475200176239014;1.5928319692611694;0.0;0.0;0.0
2156;0.0;0.0;0.0;-0.41870400309562683;0.33769598603248596;1.621135950088501;0.0;0.0;0.0
2158;0.0;0.0;0.0;-0.4030880033969879;0.37673598527908325;1.6221119165420532;0.0;0.0;0.0
2160;-0.5426560044288635;0.4828760027885437;1.470099925994873;-0.39528000354766846;0.3962559998035431;1.6221119165420532;-0.9362499713897705;42.389373779296875;-77.11812591552734
2162;0.0;0.0;0.0;-0.387472003698349;0.411871999502182;1.588927984237671;0.0;0.0;0.0
2164;0.0;0.0;0.0;-0.3718560039997101;0.48604798316955566;1.613327980041504;0.0;0.0;0.0
2166;0.0;0.0;0.0;-0.2869440019130707;0.45871999859809875;1.547935962677002;0.0;0.0;0.0
2169;-0.4660399854183197;0.5938959717750549;1.4427720308303833;-0.29865598678588867;0.5289919972419739;1.5323200225830078;-0.3762499988079071;14.529375076293945;-72.84812927246094
2171;0.0;0.0;0.0;-0.2479040026664734;0.5446079969406128;1.4952319860458374;0.0;0.0;0.0
2173;0.0;0.0;0.0;-0.20495998859405518;0.5836479663848877;1.4630240201950073;0.0;0.0;0.0
2175;0.0;0.0;0.0;-0.18934398889541626;0.5836479663848877;1.4269119501113892;0.0;0.0;0.0
2177;-0.33476799726486206;0.7097960114479065;1.3400479555130005;-0.14347200095653534;0.6187840104103088;1.4103199243545532;4.313750267028809;-6.190625190734863;-65.98812866210938
2179;0.0;0.0;0.0;-0.10443200170993805;0.6773439645767212;1.3898239135742188;0.0;0.0;0.0
2181;0.0;0.0;0.0;-0.0849120020866394;0.6968640089035034;1.3293119668960571;0.0;0.0;0.0
2183;0.0;0.0;0.0;-0.06148799881339073;0.7398079633712769;1.3537119626998901;0.0;0.0;0.0
2186;-0.2100839912891388;0.8376519680023193;1.2304919958114624;-0.049775999039411545;0.7866559624671936;1.3371199369430542;12.573750495910645;-12.350624084472656;-56.46812438964844
2188;0.0;0.0;0.0;0.028303999453783035;0.7720159888267517;1.297104001045227;0.0;0.0;0.0
2190;0.0;0.0;0.0;0.032207999378442764;0.8461920022964478;1.3176000118255615;0.0;0.0;0.0
2192;0.0;0.0;0.0;0.04782399907708168;0.8579039573669434;1.3332159519195557;0.0;0.0;0.0
2194;-0.08954799920320511;0.9513559937477112;1.189255952835083;0.03611199930310249;0.8657119870185852;1.2932000160217285;20.903749465942383;-5.280624866485596;-47.22812271118164
2196;0.0;0.0;0.0;0.004879999905824661;0.9359839558601379;1.3654239177703857;0.0;0.0;0.0
2198;0.0;0.0;0.0;0.020495999604463577;0.9320799708366394;1.3498079776763916;0.0;0.0;0.0
2200;0.0;0.0;0.0;0.0009759999811649323;0.9906399846076965;1.3615199327468872;0.0;0.0;0.0
2203;-0.10540799796581268;1.0762839317321777;1.2175599336624146;-0.010735999792814255;1.0062559843063354;1.3615199327468872;27.203750610351562;8.229375839233398;-36.448123931884766
2205;0.0;0.0;0.0;-0.022447999566793442;1.0677440166473389;1.3898239135742188;0.0;0.0;0.0
2207;0.0;0.0;0.0;0.0009759999811649323;1.083359956741333;1.4181280136108398;0.0;0.0;0.0
2209;0.0;0.0;0.0;-0.006831999868154526;1.1067839860916138;1.4308159351348877;0.0;0.0;0.0
2211;-0.13078400492668152;1.2124359607696533;1.2722159624099731;-0.02635199949145317;1.1536319255828857;1.4425280094146729;30.493749618530273;17.749374389648438;-22.658124923706055
2213;0.0;0.0;0.0;-0.06148799881339073;1.1770559549331665;1.474735975265503;0.0;0.0;0.0
2215;0.0;0.0;0.0;-0.10833600163459778;1.1848639249801636;1.4874240159988403;0.0;0.0;0.0
2217;0.0;0.0;0.0;-0.09662400186061859;1.1965759992599487;1.5030399560928345;0.0;0.0;0.0
2220;-0.19349199533462524;1.317355990409851;1.3493199348449707;-0.1239520013332367;1.2200000286102295;1.5274399518966675;32.17374801635742;27.759374618530273;-7.468125343322754
2222;0.0;0.0;0.0;-0.15811198949813843;1.2278079986572266;1.5440319776535034;0.0;0.0;0.0
2224;0.0;0.0;0.0;-0.1698240041732788;1.2668479681015015;1.5772159099578857;0.0;0.0;0.0
2226;0.0;0.0;0.0;-0.22838398814201355;1.2434239387512207;1.6016160249710083;0.0;0.0;0.0
2228;-0.293287992477417;1.3598120212554932;1.4354519844055176;-0.22838398814201355;1.2043839693069458;1.6055200099945068;32.38374710083008;26.009374618530273;9.121874809265137
2230;0.0;0.0;0.0;-0.2518079876899719;1.1965759992599487;1.6338239908218384;0.0;0.0;0.0
2232;0.0;0.0;0.0;-0.2869440019130707;1.1692479848861694;1.6416319608688354;0.0;0.0;0.0
2234;0.0;0.0;0.0;-0.2869440019130707;1.1614400148391724;1.6904319524765015;0.0;0.0;0.0
2237;-0.3899119794368744;1.3093039989471436;1.5125559568405151;-0.3181760013103485;1.1614400148391724;1.6709120273590088;29.30375099182129;12.149375915527344;24.31187629699707
2239;0.0;0.0;0.0;-0.3484320044517517;1.1302080154418945;1.645535945892334;0.0;0.0;0.0
2241;0.0;0.0;0.0;-0.37966400384902954;1.126304030418396;1.6504160165786743;0.0;0.0;0.0
2243;0.0;0.0;0.0;-0.37966400384902954;1.083359956741333;1.6299200057983398;0.0;0.0;0.0
2245;-0.4789719879627228;1.228052020072937;1.5125559568405151;-0.3484320044517517;1.0638400316238403;1.6094239950180054;20.973751068115234;-8.010624885559082;36.00187683105469
2247;0.0;0.0;0.0;-0.3601439893245697;1.0404160022735596;1.6260160207748413;0.0;0.0;0.0
2249;0.0;0.0;0.0;-0.32207998633384705;1.0130879878997803;1.5928319692611694;0.0;0.0;0.0
2251;0.0;0.0;0.0;-0.29865598678588867;0.9935680031776428;1.588927984237671;0.0;0.0;0.0
2254;-0.436271995306015;1.1353319883346558;1.4576560258865356;-0.2752319872379303;0.9701439738273621;1.5323200225830078;10.333749771118164;-32.580623626708984;43.49187469482422
2256;0.0;0.0;0.0;-0.24399998784065247;0.9594079852104187;1.4952319860458374;0.0;0.0;0.0
2258;0.0;0.0;0.0;-0.2635200023651123;0.9437919855117798;1.4308159351348877;0.0;0.0;0.0
2260;0.0;0.0;0.0;-0.24009600281715393;0.9515999555587769;1.4220319986343384;0.0;0.0;0.0
2262;-0.36917200684547424;1.073356032371521;1.3124759197235107;-0.19715198874473572;0.9164639711380005;1.3498079776763916;-0.5862500071525574;-56.520626068115234;51.47187423706055
2264;0.0;0.0;0.0;-0.14737600088119507;0.920367956161499;1.3176000118255615;0.0;0.0;0.0
2266;0.0;0.0;0.0;-0.14347200095653534;0.8344799876213074;1.248304009437561;0.0;0.0;0.0
2269;0.0;0.0;0.0;-0.10443200170993805;0.8110559582710266;1.1790080070495605;0.0;0.0;0.0
2271;-0.24570798873901367;0.9962520003318787;1.1228879690170288;-0.08100800216197968;0.7798239588737488;1.146799921989441;-9.40625;-71.9906234741211;60.50187683105469
2273;0.0;0.0;0.0;-0.03415999934077263;0.7788479924201965;1.1067839860916138;0.0;0.0;0.0
2275;0.0;0.0;0.0;-0.0302559994161129;0.7124800086021423;1.0452959537506104;0.0;0.0;0.0
2277;0.0;0.0;0.0;0.01268799975514412;0.6773439645767212;1.0169919729232788;0.0;0.0;0.0
2279;-0.13517600297927856;0.8498519659042358;0.9311040043830872;0.004879999905824661;0.6344000101089478;0.9681919813156128;-14.726249694824219;-73.81062316894531;69.18186950683594
2281;0.0;0.0;0.0;0.04001599922776222;0.5719360113143921;0.9359839558601379;0.0;0.0;0.0
2283;0.0;0.0;0.0;0.07515199482440948;0.5328959822654724;0.8988959789276123;0.0;0.0;0.0
2285;0.0;0.0;0.0;0.09759999811649323;0.5407040119171143;0.8949919939041138;0.0;0.0;0.0
2288;-0.052216000854969025;0.692471981048584;0.7795799970626831;0.0907679945230484;0.48214399814605713;0.8422879576683044;-17.176250457763672;-67.1606216430664;77.4418716430664
2290;0.0;0.0;0.0;0.10931199789047241;0.47921597957611084;0.8588799834251404;0.0;0.0;0.0
2292;0.0;0.0;0.0;0.11711999773979187;0.42455998063087463;0.7973920106887817;0.0;0.0;0.0
2294;0.0;0.0;0.0;0.11321599781513214;0.3933279812335968;0.8139839768409729;0.0;0.0;0.0
2296;-0.009759999811649323;0.561199963092804;0.7054039835929871;0.07905599474906921;0.3777119815349579;0.8305760025978088;-17.5262508392334;-49.66062545776367;84.30187225341797
2298;0.0;0.0;0.0;0.05172799900174141;0.3152479827404022;0.7856799960136414;0.0;0.0;0.0
2300;0.0;0.0;0.0;0.07905599474906921;0.30353599786758423;0.8100799918174744;0.0;0.0;0.0
2303;0.0;0.0;0.0;0.032207999378442764;0.260591983795166;0.8061760067939758;0.0;0.0;0.0
2305;-0.06441599875688553;0.4374919831752777;0.6824679970741272;0.01659199967980385;0.22155199944972992;0.8100799918174744;-17.5262508392334;-28.94062614440918;89.97187042236328
2307;0.0;0.0;0.0;0.01659199967980385;0.18934398889541626;0.8178879618644714;0.0;0.0;0.0
2309;0.0;0.0;0.0;-0.02635199949145317;0.17372798919677734;0.8217920064926147;0.0;0.0;0.0
2311;0.0;0.0;0.0;-0.0029279999434947968;0.12297599762678146;0.8022719621658325;0.0;0.0;0.0
2313;-0.12712399661540985;0.3037799894809723;0.6832000017166138;-0.022447999566793442;0.11907199770212173;0.8422879576683044;-17.24625015258789;-17.670625686645508;95.36186981201172
2315;0.0;0.0;0.0;-0.018543999642133713;0.09564799815416336;0.8061760067939758;0.0;0.0;0.0
2317;0.0;0.0;0.0;-0.02635199949145317;0.0331839993596077;0.7934879660606384;0.0;0.0;0.0
2320;0.0;0.0;0.0;-0.04196799919009209;0.02537599951028824;0.8139839768409729;0.0;0.0;0.0
2322;-0.15030398964881897;0.17348399758338928;0.6785640120506287;-0.02635199949145317;-0.01756799966096878;0.8061760067939758;-14.516249656677246;-12.630624771118164;100.05187225341797
2324;0.0;0.0;0.0;-0.06148799881339073;-0.05953599885106087;0.798367977142334;0.0;0.0;0.0
2326;0.0;0.0;0.0;-0.053679998964071274;-0.028303999453783035;0.8100799918174744;0.0;0.0;0.0
2328;0.0;0.0;0.0;-0.07320000231266022;-0.09467199444770813;0.8344799876213074;0.0;0.0;0.0
2330;-0.18348799645900726;0.0634399950504303;0.6951559782028198;-0.08100800216197968;-0.14932799339294434;0.8461920022964478;-9.896249771118164;-8.010624885559082;104.81187438964844
2332;0.0;0.0;0.0;-0.1239520013332367;-0.16884799301624298;0.8627839684486389;0.0;0.0;0.0
2334;0.0;0.0;0.0;-0.1698240041732788;-0.21959999203681946;0.8500959873199463;0.0;0.0;0.0
2337;0.0;0.0;0.0;-0.13859200477600098;-0.2898719906806946;0.8705919981002808;0.0;0.0;0.0
2339;-0.26449599862098694;-0.09857599437236786;0.7400519847869873;-0.18544000387191772;-0.35233598947525024;0.9115839600563049;-8.706250190734863;-5.210625171661377;108.73187255859375
2341;0.0;0.0;0.0;-0.1698240041732788;-0.3728320002555847;0.9154880046844482;0.0;0.0;0.0
2343;0.0;0.0;0.0;-0.21276798844337463;-0.3416000008583069;0.9525759816169739;0.0;0.0;0.0
2345;0.0;0.0;0.0;-0.23228800296783447;-0.3962559998035431;0.9681919813156128;0.0;0.0;0.0
2347;-0.32256799936294556;-0.2630319893360138;0.8081279993057251;-0.21276798844337463;-0.5719360113143921;0.9476959705352783;-11.366250038146973;-2.4806251525878906;108.66187286376953
2349;0.0;0.0;0.0;-0.2908479869365692;-0.49775999784469604;1.0003999471664429;0.0;0.0;0.0
2351;0.0;0.0;0.0;-0.2635200023651123;-0.5641279816627502;1.0052800178527832;0.0;0.0;0.0
2354;0.0;0.0;0.0;-0.2596159875392914;-0.6070719957351685;1.0003999471664429;0.0;0.0;0.0
2356;-0.3740519881248474;-0.43675997853279114;0.8627839684486389;-0.21276798844337463;-0.6695359945297241;0.9847840070724487;-17.736249923706055;-5.630624771118164;105.09187316894531
2358;0.0;0.0;0.0;-0.2752319872379303;-0.7124800086021423;0.9886879920959473;0.0;0.0;0.0
2360;0.0;0.0;0.0;-0.27132800221443176;-0.7476159930229187;1.0052800178527832;0.0;0.0;0.0
2362;0.0;0.0;0.0;-0.2869440019130707;-0.7710399627685547;1.0169919729232788;0.0;0.0;0.0
2364;-0.3879599869251251;-0.6126840114593506;0.8705919981002808;-0.24399998784065247;-0.8022719621658325;1.0003999471664429;-24.24625015258789;-12.630624771118164;100.05187225341797
2366;0.0;0.0;0.0;-0.2908479869365692;-0.8413119912147522;0.9886879920959473;0.0;0.0;0.0
2368;0.0;0.0;0.0;-0.22448000311851501;-0.9115839600563049;0.9603840112686157;0.0;0.0;0.0
2371;0.0;0.0;0.0;-0.2518079876899719;-0.9506239891052246;0.9681919813156128;0.0;0.0;0.0
2373;-0.36844000220298767;-0.7646960020065308;0.8483879566192627;-0.236191987991333;-0.9818559885025024;0.9476959705352783;-30.126249313354492;-22.0106258392334;93.68186950683594
2375;0.0;0.0;0.0;-0.18934398889541626;-1.0482239723205566;0.9193919897079468;0.0;0.0;0.0
2377;0.0;0.0;0.0;-0.15811198949813843;-1.126304030418396;0.8988959789276123;0.0;0.0;0.0
2379;0.0;0.0;0.0;-0.1239520013332367;-1.1692479848861694;0.8549759984016418;0.0;0.0;0.0
2381;-0.27718400955200195;-0.9696559906005859;0.7639639973640442;-0.08881600201129913;-1.2043839693069458;0.8217920064926147;-35.16625213623047;-34.680625915527344;87.03187561035156
2383;0.0;0.0;0.0;-0.0849120020866394;-1.270751953125;0.8305760025978088;0.0;0.0;0.0
2385;0.0;0.0;0.0;-0.022447999566793442;-1.309791922569275;0.7856799960136414;0.0;0.0;0.0
2388;0.0;0.0;0.0;-0.022447999566793442;-1.3644479513168335;0.7534719705581665;0.0;0.0;0.0
2390;-0.16274799406528473;-1.1875479221343994;0.6675840020179749;0.0009759999811649323;-1.45033597946167;0.7778719663619995;-35.58625030517578;-34.96062469482422;79.82186889648438
2392;0.0;0.0;0.0;0.020495999604463577;-1.508895993232727;0.7534719705581665;0.0;0.0;0.0
2394;0.0;0.0;0.0;0.01659199967980385;-1.5674560070037842;0.7612800002098083;0.0;0.0;0.0
2396;0.0;0.0;0.0;0.01659199967980385;-1.6143039464950562;0.7651839852333069;0.0;0.0;0.0
2398;-0.10662800073623657;-1.4266679286956787;0.6278119683265686;0.024399999529123306;-1.6923840045928955;0.7651839852333069;-32.43625259399414;-21.80062484741211;71.98187255859375
2400;0.0;0.0;0.0;0.04782399907708168;-1.7470399141311646;0.757375955581665;0.0;0.0;0.0
2402;0.0;0.0;0.0;0.07124799489974976;-1.8016959428787231;0.757375955581665;0.0;0.0;0.0
2405;0.0;0.0;0.0;0.01659199967980385;-1.8563519716262817;0.798367977142334;0.0;0.0;0.0
