Timestamp(ms);LG-Accel x(g);LG-Accel y(g);LG-Accel z(g);HG-Accel x(g);HG-Accel y(g);HG-Accel z(g);Gyro x(dps);Gyro y(dps);Gyro z(dps)
70;0.0;0.0;0.0;0.33769598603248596;-0.12297599762678146;0.9223200082778931;0.0;0.0;0.0
73;0.0;0.0;0.0;0.3484320044517517;-0.11907199770212173;0.9067040085792542;0.0;0.0;0.0
75;0.0;0.0;0.0;0.3025600016117096;-0.14640000462532043;0.9223200082778931;0.0;0.0;0.0
77;0.0;0.0;0.0;0.32207998633384705;-0.15030398964881897;0.9018239974975586;0.0;0.0;0.0
79;0.0;0.0;0.0;0.29475200176239014;-0.12297599762678146;0.9389119744300842;0.0;0.0;0.0
81;0.0;0.0;0.0;0.31329599022865295;-0.15615999698638916;0.9398880004882812;0.0;0.0;0.0
83;0.0;0.0;0.0;0.3093920052051544;-0.14054399728775024;0.9964959621429443;0.0;0.0;0.0
85;0.0;0.0;0.0;0.27425599098205566;-0.15225599706172943;0.9886879920959473;0.0;0.0;0.0
88;0.17787599563598633;0.00317199993878603;0.838871955871582;0.30158400535583496;-0.14444799721240997;0.9925919771194458;0.0;0.0;0.0
90;0.0;0.0;0.0;0.2898719906806946;-0.15615999698638916;0.9886879920959473;0.0;0.0;0.0
92;0.0;0.0;0.0;0.2898719906806946;-0.14444799721240997;0.9642879962921143;0.0;0.0;0.0
94;0.0;0.0;0.0;0.25863999128341675;-0.12492799758911133;0.9642879962921143;0.0;0.0;0.0
96;0.15493999421596527;-0.006587999872863293;0.839847981929779;0.2781600058078766;-0.10931199789047241;0.9476959705352783;0.0;0.0;0.0
98;0.0;0.0;0.0;0.2508319914340973;-0.0663679987192154;0.9525759816169739;0.0;0.0;0.0
100;0.0;0.0;0.0;0.24692799150943756;-0.05075199902057648;0.9154880046844482;0.0;0.0;0.0
102;0.0;0.0;0.0;0.2117919921875;0.007807999849319458;0.9281759858131409;0.0;0.0;0.0
105;0.11492399871349335;0.09442799538373947;0.8000760078430176;0.2117919921875;0.023423999547958374;0.8871839642524719;0.0;0.0;0.0
107;0.0;0.0;0.0;0.18055999279022217;0.0663679987192154;0.8666880130767822;0.0;0.0;0.0
109;0.0;0.0;0.0;0.2117919921875;0.10931199789047241;0.8100799918174744;0.0;0.0;0.0
111;0.0;0.0;0.0;0.2117919921875;0.18348799645900726;0.822767972946167;0.0;0.0;0.0
113;0.07930000126361847;0.2454639971256256;0.7039399743080139;0.20398399233818054;0.16396799683570862;0.757375955581665;0.0;0.0;0.0
115;0.0;0.0;0.0;0.20788799226284027;0.2576639950275421;0.7407839894294739;0.0;0.0;0.0
117;0.0;0.0;0.0;0.24302399158477783;0.3396480083465576;0.708575963973999;0.0;0.0;0.0
119;0.0;0.0;0.0;0.2664479911327362;0.4177280068397522;0.7173599600791931;0.0;0.0;0.0
122;0.13859200477600098;0.46701598167419434;0.603655993938446;0.31329599022865295;0.5153279900550842;0.7046719789505005;0.0;0.0;0.0
124;0.0;0.0;0.0;0.3211039900779724;0.6441599726676941;0.725167989730835;0.0;0.0;0.0
126;0.0;0.0;0.0;0.3601439893245697;0.7768959999084473;0.7417600154876709;0.0;0.0;0.0
128;0.0;0.0;0.0;0.34062400460243225;0.9252479672431946;0.8100799918174744;0.0;0.0;0.0
130;0.22496800124645233;0.9191479682922363;0.647819995880127;0.34062400460243225;1.0501760244369507;0.84716796875;58.7868766784668;56.90562438964844;-56.83562469482422
132;0.0;0.0;0.0;0.2820639908313751;1.1282559633255005;0.8705919981002808;0.0;0.0;0.0
134;0.0;0.0;0.0;0.20398399233818054;1.221951961517334;0.9193919897079468;0.0;0.0;0.0
136;0.0;0.0;0.0;0.14932799339294434;1.2961280345916748;0.9515999555587769;0.0;0.0;0.0
139;0.09052399545907974;1.3581039905548096;0.7876319885253906;0.11028799414634705;1.3820159435272217;0.9886879920959473;81.74687957763672;82.66561889648438;-44.02562713623047
141;0.0;0.0;0.0;0.08003199845552444;1.4327679872512817;1.0579839944839478;0.0;0.0;0.0
143;0.0;0.0;0.0;0.09467199444770813;1.467903971672058;1.122399926185608;0.0;0.0;0.0
145;0.0;0.0;0.0;0.037087999284267426;1.5186560153961182;1.2160959243774414;0.0;0.0;0.0
147;-0.05392399802803993;1.602836012840271;1.0035719871520996;0.029279999434947968;1.588927984237671;1.2932000160217285;98.68688201904297;94.21562194824219;-22.81562614440918
149;0.0;0.0;0.0;0.044895999133586884;1.6240639686584473;1.3664000034332275;0.0;0.0;0.0
151;0.0;0.0;0.0;0.04879999905824661;1.6670079231262207;1.435696005821228;0.0;0.0;0.0
153;0.0;0.0;0.0;-0.040991999208927155;1.7255679368972778;1.5167039632797241;0.0;0.0;0.0
156;-0.10784799605607986;1.7833960056304932;1.2839279174804688;-0.05660799890756607;1.7411839962005615;1.5245119333267212;97.91687774658203;92.74562072753906;1.7543749809265137
158;0.0;0.0;0.0;-0.10345599800348282;1.784127950668335;1.5899039506912231;0.0;0.0;0.0
160;0.0;0.0;0.0;-0.09955199807882309;1.8114559650421143;1.6338239908218384;0.0;0.0;0.0
162;0.0;0.0;0.0;-0.10345599800348282;1.8075519800186157;1.6582239866256714;0.0;0.0;0.0
164;-0.22301599383354187;1.9280879497528076;1.484495997428894;-0.1727519929409027;1.8387839794158936;1.7070239782333374;80.83687591552734;77.55562591552734;20.02437400817871
166;0.0;0.0;0.0;-0.15323199331760406;1.842687964439392;1.6992160081863403;0.0;0.0;0.0
168;0.0;0.0;0.0;-0.1571359932422638;1.8543999195098877;1.7148319482803345;0.0;0.0;0.0
170;0.0;0.0;0.0;-0.19227199256420135;1.834879994392395;1.6992160081863403;0.0;0.0;0.0
173;-0.2915799915790558;1.971519947052002;1.5584279298782349;-0.16494399309158325;1.8114559650421143;1.6709120273590088;53.11687469482422;41.71562576293945;38.64437484741211
175;0.0;0.0;0.0;-0.1268799901008606;1.8114559650421143;1.6582239866256714;0.0;0.0;0.0
177;0.0;0.0;0.0;-0.1454239934682846;1.8036479949951172;1.6094239950180054;0.0;0.0;0.0
179;0.0;0.0;0.0;-0.09955199807882309;1.7880319356918335;1.5655039548873901;0.0;0.0;0.0
181;-0.2454639971256256;1.9090559482574463;1.4666839838027954;-0.05660799890756607;1.7294719219207764;1.4883999824523926;19.72687530517578;1.2556250095367432;61.53437423706055
183;0.0;0.0;0.0;-0.01756799966096878;1.6943359375;1.4474079608917236;0.0;0.0;0.0
185;0.0;0.0;0.0;0.01756799966096878;1.6435840129852295;1.3664000034332275;0.0;0.0;0.0
187;0.0;0.0;0.0;0.01756799966096878;1.6201599836349487;1.32150399684906;0.0;0.0;0.0
190;-0.11394799500703812;1.783639907836914;1.2485480308532715;0.07612799853086472;1.6240639686584473;1.2531839609146118;-12.54312515258789;-22.194374084472656;85.33438110351562
192;0.0;0.0;0.0;0.07905599474906921;1.596735954284668;1.2287839651107788;0.0;0.0;0.0
194;0.0;0.0;0.0;0.13761599361896515;1.5655039548873901;1.1799839735031128;0.0;0.0;0.0
196;0.0;0.0;0.0;0.17665599286556244;1.4952319860458374;1.1184959411621094;0.0;0.0;0.0
198;0.022447999566793442;1.6787199974060059;1.035048007965088;0.19617599248886108;1.4366719722747803;1.0491999387741089;-39.21312713623047;-23.454374313354492;108.15438079833984
200;0.0;0.0;0.0;0.16884799301624298;1.409343957901001;1.0169919729232788;0.0;0.0;0.0
202;0.0;0.0;0.0;0.15323199331760406;1.3351680040359497;0.9525759816169739;0.0;0.0;0.0
204;0.0;0.0;0.0;0.15323199331760406;1.2102400064468384;0.9398880004882812;0.0;0.0;0.0
207;0.03879600018262863;1.4325239658355713;0.8466799855232239;0.13371199369430542;1.132159948348999;0.9115839600563049;-57.763126373291016;-16.034374237060547;130.20437622070312
209;0.0;0.0;0.0;0.08003199845552444;1.0501760244369507;0.8832799792289734;0.0;0.0;0.0
211;0.0;0.0;0.0;0.04879999905824661;0.9135359525680542;0.8666880130767822;0.0;0.0;0.0
213;0.0;0.0;0.0;0.08003199845552444;0.8159359693527222;0.8422879576683044;0.0;0.0;0.0
215;-0.03879600018262863;1.0450519323349;0.7351719737052917;0.07222399860620499;0.6480640172958374;0.8139839768409729;-67.14311981201172;-8.124375343322754;150.3643798828125
217;0.0;0.0;0.0;0.08003199845552444;0.5231360197067261;0.773967981338501;0.0;0.0;0.0
219;0.0;0.0;0.0;0.09955199807882309;0.374783992767334;0.7612800002098083;0.0;0.0;0.0
221;0.0;0.0;0.0;0.10735999792814255;0.2576639950275421;0.7456640005111694;0.0;0.0;0.0
224;-0.031231999397277832;0.5167919993400574;0.6336680054664612;0.10247999429702759;0.10540799796581268;0.7173599600791931;-71.13312530517578;2.445625066757202;162.12437438964844
226;0.0;0.0;0.0;0.10247999429702759;-0.023423999547958374;0.732975959777832;0.0;0.0;0.0
228;0.0;0.0;0.0;0.08393599838018417;-0.14444799721240997;0.7046719789505005;0.0;0.0;0.0
230;0.0;0.0;0.0;0.0878399983048439;-0.2967039942741394;0.708575963973999;0.0;0.0;0.0
232;-0.04001599922776222;-0.008295999839901924;0.5860880017280579;0.06441599875688553;-0.39820799231529236;0.6929599642753601;-66.79312133789062;18.265625;164.4343719482422
234;0.0;0.0;0.0;0.05660799890756607;-0.5309439897537231;0.6968640089035034;0.0;0.0;0.0
236;0.0;0.0;0.0;0.05270399898290634;-0.5738880038261414;0.7612800002098083;0.0;0.0;0.0
238;0.0;0.0;0.0;0.01756799966096878;-0.5543680191040039;0.8344799876213074;0.0;0.0;0.0
241;-0.07685999572277069;-0.43895599246025085;0.6356199979782104;0.05270399898290634;-0.8823039531707764;0.773967981338501;-58.743125915527344;27.08562660217285;160.58438110351562
243;0.0;0.0;0.0;-0.02147199958562851;-0.8588799834251404;0.8949919939041138;0.0;0.0;0.0
245;0.0;0.0;0.0;0.0331839993596077;-0.9799039959907532;0.9037759900093079;0.0;0.0;0.0
247;0.0;0.0;0.0;0.044895999133586884;-1.1165440082550049;0.9476959705352783;0.0;0.0;0.0
249;-0.09662400186061859;-0.8701039552688599;0.7754319906234741;0.01756799966096878;-1.2648959159851074;0.9359839558601379;-56.573123931884766;39.33562469482422;151.83438110351562
251;0.0;0.0;0.0;-0.0019519999623298645;-1.3976320028305054;0.9642879962921143;0.0;0.0;0.0
253;0.0;0.0;0.0;-0.0331839993596077;-1.506943941116333;0.9720959663391113;0.0;0.0;0.0
255;0.0;0.0;0.0;-0.02537599951028824;-1.6396799087524414;0.9769759774208069;0.0;0.0;0.0
258;-0.14420399069786072;-1.3768919706344604;0.8474119901657104;-0.02537599951028824;-1.74508798122406;1.0052800178527832;-56.013126373291016;49.20562744140625;140.77438354492188
260;0.0;0.0;0.0;-0.040991999208927155;-1.8465919494628906;1.0013760328292847;0.0;0.0;0.0
262;0.0;0.0;0.0;-0.013663999736309052;-1.979327917098999;1.0501760244369507;0.0;0.0;0.0
264;0.0;0.0;0.0;-0.013663999736309052;-2.0456960201263428;1.0823839902877808;0.0;0.0;0.0
266;-0.14786399900913239;-1.822924017906189;0.9162200093269348;-0.0058559998869895935;-2.147199869155884;1.0940959453582764;-46.56312561035156;41.575626373291016;125.79438018798828
268;0.0;0.0;0.0;-0.0058559998869895935;-2.264319896697998;1.1350879669189453;0.0;0.0;0.0
270;0.0;0.0;0.0;0.0331839993596077;-2.346303939819336;1.1389919519424438;0.0;0.0;0.0
272;0.0;0.0;0.0;0.009759999811649323;-2.459519863128662;1.146799921989441;0.0;0.0;0.0
275;-0.11370399594306946;-2.2177159786224365;1.0052800178527832;0.02537599951028824;-2.545408010482788;1.1311839818954468;-39.28312683105469;17.985626220703125;106.12438201904297
277;0.0;0.0;0.0;0.05270399898290634;-2.631295919418335;1.1477760076522827;0.0;0.0;0.0
279;0.0;0.0;0.0;0.12199999392032623;-2.6664319038391113;1.1272799968719482;0.0;0.0;0.0
281;0.0;0.0;0.0;0.1571359932422638;-2.744511842727661;1.122399926185608;0.0;0.0;0.0
283;-0.013907999731600285;-2.537843942642212;0.9964959621429443;0.16103999316692352;-2.7523200511932373;1.0862879753112793;-39.073123931884766;-7.634375095367432;78.82437896728516
285;0.0;0.0;0.0;0.2235039919614792;-2.728895902633667;1.0208959579467773;0.0;0.0;0.0
287;0.0;0.0;0.0;0.2898719906806946;-2.6703360080718994;0.9720959663391113;0.0;0.0;0.0
290;0.0;0.0;0.0;0.3172000050544739;-2.615679979324341;0.8949919939041138;0.0;0.0;0.0
292;0.12883199751377106;-2.5349159240722656;0.838871955871582;0.20788799226284027;-2.6586239337921143;0.8510719537734985;-40.12312698364258;-21.704374313354492;45.57437515258789
294;0.0;0.0;0.0;0.15323199331760406;-2.7093758583068848;0.8510719537734985;0.0;0.0;0.0
296;0.0;0.0;0.0;0.09955199807882309;-2.8538239002227783;0.8266719579696655;0.0;0.0;0.0
298;0.0;0.0;0.0;0.14932799339294434;-3.009984016418457;0.7368800044059753;0.0;0.0;0.0
300;0.0331839993596077;-2.733288049697876;0.6624599695205688;0.22740799188613892;-3.205183982849121;0.6441599726676941;-37.603126525878906;-37.2443733215332;16.874374389648438
302;0.0;0.0;0.0;0.3669759929180145;-3.2637438774108887;0.5826719999313354;0.0;0.0;0.0
304;0.0;0.0;0.0;0.4567679762840271;-3.2286078929901123;0.5387519598007202;0.0;0.0;0.0
307;0.0;0.0;0.0;0.5387519598007202;-3.1466238498687744;0.5055679678916931;0.0;0.0;0.0
309;0.31744399666786194;-3.046828031539917;0.4335879981517792;0.6275680065155029;-3.006079912185669;0.4938559830188751;-40.053123474121094;-45.50437545776367;-10.915624618530273
311;0.0;0.0;0.0;0.6197599768638611;-2.8850560188293457;0.47336000204086304;0.0;0.0;0.0
313;0.0;0.0;0.0;0.5816959738731384;-2.7679359912872314;0.4655520021915436;0.0;0.0;0.0
315;0.0;0.0;0.0;0.5309439897537231;-2.635200023651123;0.43724799156188965;0.0;0.0;0.0
317;0.4487159848213196;-2.6261720657348633;0.3369639813899994;0.4450559914112091;-2.5688319206237793;0.3640480041503906;-42.15312576293945;-20.724374771118164;-51.65562438964844
319;0.0;0.0;0.0;0.43432000279426575;-2.5034399032592773;0.28303998708724976;0.0;0.0;0.0
321;0.0;0.0;0.0;0.40699198842048645;-2.4370720386505127;0.20203199982643127;0.0;0.0;0.0
324;0.0;0.0;0.0;0.42260798811912537;-2.374608039855957;0.1327359974384308;0.0;0.0;0.0
326;0.3111000061035156;-2.284083843231201;0.10223599523305893;0.4655520021915436;-2.3082399368286133;0.08393599838018417;-43.06312561035156;-2.3143749237060547;-81.265625
328;0.0;0.0;0.0;0.5319200158119202;-2.191119909286499;0.09272000193595886;0.0;0.0;0.0
330;0.0;0.0;0.0;0.5436319708824158;-2.097424030303955;0.0634399950504303;0.0;0.0;0.0
332;0.0;0.0;0.0;0.5943840146064758;-1.9685919284820557;0.0878399983048439;0.0;0.0;0.0
334;0.427731990814209;-1.9515119791030884;-0.04123599827289581;0.6246399879455566;-1.851472020149231;0.0878399983048439;-27.52312469482422;19.31562614440918;-103.59561920166016
336;0.0;0.0;0.0;0.6392799615859985;-1.7333760261535645;0.09272000193595886;0.0;0.0;0.0
338;0.0;0.0;0.0;0.6012159585952759;-1.6162559986114502;0.12492799758911133;0.0;0.0;0.0
341;0.0;0.0;0.0;0.6158559918403625;-1.51475191116333;0.16884799301624298;0.0;0.0;0.0
343;0.4967840015888214;-1.4822999238967896;0.012931999750435352;0.5846239924430847;-1.3898239135742188;0.16884799301624298;-8.833125114440918;69.3656234741211;-121.16561889648438
345;0.0;0.0;0.0;0.472383975982666;-1.1907199621200562;0.2664479911327362;0.0;0.0;0.0
347;0.0;0.0;0.0;0.42163199186325073;-1.0540800094604492;0.35624000430107117;0.0;0.0;0.0
349;0.0;0.0;0.0;0.39820799231529236;-0.9135359525680542;0.42846399545669556;0.0;0.0;0.0
351;0.31793197989463806;-0.9159759879112244;0.23594799637794495;0.31329599022865295;-0.7456640005111694;0.5426560044288635;7.966875076293945;132.99562072753906;-131.03562927246094
353;0.0;0.0;0.0;0.2820639908313751;-0.6285439729690552;0.6441599726676941;0.0;0.0;0.0
355;0.0;0.0;0.0;0.25863999128341675;-0.5153279900550842;0.725167989730835;0.0;0.0;0.0
358;0.0;0.0;0.0;0.22740799188613892;-0.39820799231529236;0.8100799918174744;0.0;0.0;0.0
360;0.12931999564170837;-0.37722399830818176;0.5904799699783325;0.2117919921875;-0.30060797929763794;0.8793759942054749;17.13687515258789;170.86561584472656;-136.70562744140625
362;0.0;0.0;0.0;0.14151999354362488;-0.19129599630832672;0.9769759774208069;0.0;0.0;0.0
364;0.0;0.0;0.0;0.09174399822950363;-0.09759999811649323;1.0696959495544434;0.0;0.0;0.0
366;0.0;0.0;0.0;0.009759999811649323;-0.07027199864387512;1.1311839818954468;0.0;0.0;0.0
368;-0.040991999208927155;0.03245199844241142;0.9196360111236572;-0.044895999133586884;0.10540799796581268;1.2209759950637817;23.996875762939453;190.3956298828125;-138.45562744140625
370;0.0;0.0;0.0;-0.05270399898290634;0.15225599706172943;1.2648959159851074;0.0;0.0;0.0
372;0.0;0.0;0.0;-0.11907199770212173;0.2810879945755005;1.3546879291534424;0.0;0.0;0.0
375;0.0;0.0;0.0;-0.18055999279022217;0.40991997718811035;1.435696005821228;0.0;0.0;0.0
377;-0.24229200184345245;0.42212000489234924;1.2212200164794922;-0.18836799263954163;0.5192319750785828;1.4923039674758911;33.586875915527344;185.07562255859375;-135.72561645507812
379;0.0;0.0;0.0;-0.21569599211215973;0.6168320178985596;1.5450079441070557;0.0;0.0;0.0
381;0.0;0.0;0.0;-0.19617599248886108;0.7027199864387512;1.6143039464950562;0.0;0.0;0.0
383;0.0;0.0;0.0;-0.21569599211215973;0.7886079549789429;1.6387039422988892;0.0;0.0;0.0
385;-0.3276920020580292;0.8364319801330566;1.4735159873962402;-0.25863999128341675;0.9096319675445557;1.735327959060669;43.736873626708984;158.8956298828125;-127.60562133789062
387;0.0;0.0;0.0;-0.24692799150943756;1.02675199508667;1.7802239656448364;0.0;0.0;0.0
389;0.0;0.0;0.0;-0.2820639908313751;1.0657919645309448;1.8534239530563354;0.0;0.0;0.0
392;0.0;0.0;0.0;-0.2898719906806946;1.1672959327697754;1.8856319189071655;0.0;0.0;0.0
394;-0.4038199782371521;1.2117040157318115;1.6928719282150269;-0.35624000430107117;1.2453759908676147;1.9051519632339478;51.576873779296875;128.9356231689453;-117.59561920166016
396;0.0;0.0;0.0;-0.3601439893245697;1.3156479597091675;1.9256479740142822;0.0;0.0;0.0
398;0.0;0.0;0.0;-0.3757599890232086;1.4210560321807861;1.9383360147476196;0.0;0.0;0.0
400;0.0;0.0;0.0;-0.33671998977661133;1.4952319860458374;1.9627360105514526;0.0;0.0;0.0
402;-0.48385199904441833;1.5386639833450317;1.8116999864578247;-0.33671998977661133;1.596735954284668;1.9871360063552856;51.296875;91.765625;-105.06562042236328
404;0.0;0.0;0.0;-0.33671998977661133;1.6748160123825073;1.9988479614257812;0.0;0.0;0.0
406;0.0;0.0;0.0;-0.2898719906806946;1.7646079063415527;2.011535882949829;0.0;0.0;0.0
409;0.0;0.0;0.0;-0.27425599098205566;1.7958400249481201;2.0066559314727783;0.0;0.0;0.0
411;-0.4043079912662506;1.8724559545516968;1.8529359102249146;-0.20398399233818054;1.8543999195098877;1.9783519506454468;46.676876068115234;53.61562728881836;-88.75562286376953
413;0.0;0.0;0.0;-0.2781600058078766;1.9519999027252197;1.9705439805984497;0.0;0.0;0.0
415;0.0;0.0;0.0;-0.25863999128341675;2.057407855987549;1.9256479740142822;0.0;0.0;0.0
417;0.0;0.0;0.0;-0.26254400610923767;2.143296003341675;1.9012479782104492;0.0;0.0;0.0
419;-0.370635986328125;2.1818480491638184;1.7914479970932007;-0.23521599173545837;2.260416030883789;1.9217439889907837;41.916873931884766;23.72562599182129;-63.06562423706055
422;0.0;0.0;0.0;-0.20398399233818054;2.350208044052124;1.881727933883667;0.0;0.0;0.0
423;0.0;0.0;0.0;-0.17665599286556244;2.451711893081665;1.889535903930664;0.0;0.0;0.0
426;0.0;0.0;0.0;-0.14640000462532043;2.5024640560150146;1.9178400039672852;0.0;0.0;0.0
428;-0.30451199412345886;2.5515079498291016;1.7687559127807617;-0.1542080044746399;2.537600040435791;1.889535903930664;40.37687683105469;5.73562479019165;-35.555625915527344
430;0.0;0.0;0.0;-0.19227199256420135;2.5805439949035645;1.9012479782104492;0.0;0.0;0.0
432;0.0;0.0;0.0;-0.16884799301624298;2.5766398906707764;1.9100319147109985;0.0;0.0;0.0
434;0.0;0.0;0.0;-0.19227199256420135;2.650815963745117;1.9383360147476196;0.0;0.0;0.0
436;-0.3084160089492798;2.7315800189971924;1.7753440141677856;-0.19617599248886108;2.6742398738861084;1.9422399997711182;35.12687683105469;1.395625114440918;-5.105624675750732
438;0.0;0.0;0.0;-0.27035200595855713;2.6898560523986816;1.9334559440612793;0.0;0.0;0.0
440;0.0;0.0;0.0;-0.31329599022865295;2.6898560523986816;1.9500479698181152;0.0;0.0;0.0
443;0.0;0.0;0.0;-0.33671998977661133;2.6898560523986816;1.9744479656219482;0.0;0.0;0.0
445;-0.42041200399398804;2.801363945007324;1.8092600107192993;-0.36795198917388916;2.650815963745117;1.9500479698181152;29.876874923706055;-7.984375;25.41437339782715
447;0.0;0.0;0.0;-0.4333440065383911;2.5961599349975586;1.9383360147476196;0.0;0.0;0.0
449;0.0;0.0;0.0;-0.4138239920139313;2.5922560691833496;1.9178400039672852;0.0;0.0;0.0
451;0.0;0.0;0.0;-0.44896000623703003;2.533695936203003;1.8973439931869507;0.0;0.0;0.0
453;-0.558027982711792;2.7154760360717773;1.7807120084762573;-0.4958080053329468;2.529791831970215;1.8446400165557861;23.36687469482422;-38.64437484741211;58.104373931884766
455;0.0;0.0;0.0;-0.4567679762840271;2.4985599517822266;1.808527946472168;0.0;0.0;0.0
458;0.0;0.0;0.0;-0.42553597688674927;2.447808027267456;1.7724159955978394;0.0;0.0;0.0
460;0.0;0.0;0.0;-0.4177280068397522;2.4868478775024414;1.7031199932098389;0.0;0.0;0.0
462;-0.5643720030784607;2.602504014968872;1.6167439222335815;-0.37966400384902954;2.4126720428466797;1.6426079273223877;18.256874084472656;-80.22438049316406;92.19438171386719
464;0.0;0.0;0.0;-0.31329599022865295;2.365823984146118;1.6182079315185547;0.0;0.0;0.0
466;0.0;0.0;0.0;-0.3054879903793335;2.268224000930786;1.6182079315185547;0.0;0.0;0.0
468;0.0;0.0;0.0;-0.3445279896259308;2.166719913482666;1.5489119291305542;0.0;0.0;0.0
470;-0.4543280005455017;2.3958358764648438;1.4698560237884521;-0.3484320044517517;2.1042559146881104;1.5284159183502197;10.4868745803833;-106.12438201904297;117.81437683105469
472;0.0;0.0;0.0;-0.37966400384902954;1.9754239320755005;1.4796159267425537;0.0;0.0;0.0
474;0.0;0.0;0.0;-0.3835679888725281;1.8661119937896729;1.4151999950408936;0.0;0.0;0.0
477;0.0;0.0;0.0;-0.35233598947525024;1.7607039213180542;1.3585920333862305;0.0;0.0;0.0
479;-0.4816559851169586;1.9968959093093872;1.2880759239196777;-0.3211039900779724;1.6513919830322266;1.297104001045227;-7.993124961853027;-112.49437713623047;142.0343780517578
481;0.0;0.0;0.0;-0.3211039900779724;1.4913280010223389;1.2365919351577759;0.0;0.0;0.0
483;0.0;0.0;0.0;-0.3640480041503906;1.3976320028305054;1.2004799842834473;0.0;0.0;0.0
485;0.0;0.0;0.0;-0.35624000430107117;1.2492799758911133;1.1272799968719482;0.0;0.0;0.0
487;-0.4638440012931824;1.5132880210876465;1.0540800094604492;-0.3757599890232086;1.139967918395996;1.0374879837036133;-23.813125610351562;-113.89437866210938;159.60438537597656
489;0.0;0.0;0.0;-0.387472003698349;0.9916160106658936;0.9847840070724487;0.0;0.0;0.0
492;0.0;0.0;0.0;-0.4060159921646118;0.8588799834251404;0.9154880046844482;0.0;0.0;0.0
494;0.0;0.0;0.0;-0.387472003698349;0.7105280160903931;0.8793759942054749;0.0;0.0;0.0
496;-0.493367999792099;0.9957639575004578;0.8064199686050415;-0.3328160047531128;0.6051200032234192;0.8305760025978088;-31.303125381469727;-124.67437744140625;171.85438537597656
498;0.0;0.0;0.0;-0.3093920052051544;0.48019200563430786;0.8061760067939758;0.0;0.0;0.0
500;0.0;0.0;0.0;-0.24302399158477783;0.3474559783935547;0.7534719705581665;0.0;0.0;0.0
502;0.0;0.0;0.0;-0.23131199181079865;0.19910399615764618;0.7124800086021423;0.0;0.0;0.0
504;-0.38088399171829224;0.46628397703170776;0.6241520047187805;-0.18836799263954163;0.04294399917125702;0.6685599684715271;-36.13312530517578;-130.20437622070312;179.4143829345703
507;0.0;0.0;0.0;-0.2235039919614792;-0.15225599706172943;0.6070719957351685;0.0;0.0;0.0
509;0.0;0.0;0.0;-0.20398399233818054;-0.3123199939727783;0.5426560044288635;0.0;0.0;0.0
511;0.0;0.0;0.0;-0.16103999316692352;-0.4840959906578064;0.49775999784469604;0.0;0.0;0.0
513;-0.3193959891796112;-0.16543199121952057;0.4357839822769165;-0.15323199331760406;-0.6324479579925537;0.4577440023422241;-43.203125;-119.77437591552734;181.9343719482422
515;0.0;0.0;0.0;-0.1844639927148819;-0.8120319843292236;0.43724799156188965;0.0;0.0;0.0
517;0.0;0.0;0.0;-0.1424959897994995;-0.9486719965934753;0.4050399959087372;0.0;0.0;0.0
519;0.0;0.0;0.0;-0.13468798995018005;-1.1009279489517212;0.3806400001049042;0.0;0.0;0.0
521;-0.25400400161743164;-0.8149600028991699;0.28767600655555725;-0.07612799853086472;-1.272704005241394;0.38844799995422363;-46.56312561035156;-100.10437774658203;175.494384765625
524;0.0;0.0;0.0;-0.05563199892640114;-1.4571679830551147;0.35624000430107117;0.0;0.0;0.0
526;0.0;0.0;0.0;-0.020495999604463577;-1.6562719345092773;0.33183997869491577;0.0;0.0;0.0
528;0.0;0.0;0.0;0.04196799919009209;-1.7421599626541138;0.35624000430107117;0.0;0.0;0.0
530;-0.1332239955663681;-1.4625359773635864;0.2437559962272644;0.006831999868154526;-1.8787999153137207;0.3806400001049042;-47.96312713623047;-73.99437713623047;159.744384765625
532;0.0;0.0;0.0;0.09955199807882309;-2.2223520278930664;0.35624000430107117;0.0;0.0;0.0
534;0.0;0.0;0.0;0.09174399822950363;-2.284816026687622;0.4089439809322357;0.0;0.0;0.0
536;0.0;0.0;0.0;0.14640000462532043;-2.5190558433532715;0.4050399959087372;0.0;0.0;0.0
538;-0.006099999882280827;-2.1930718421936035;0.26791200041770935;0.20105600357055664;-2.6166560649871826;0.46164798736572266;-50.413124084472656;-39.484375;134.47438049316406
541;0.0;0.0;0.0;0.21959999203681946;-2.740607976913452;0.5143519639968872;0.0;0.0;0.0
543;0.0;0.0;0.0;0.2664479911327362;-2.8655359745025635;0.5387519598007202;0.0;0.0;0.0
545;0.0;0.0;0.0;0.2781600058078766;-2.990463972091675;0.5465599894523621;0.0;0.0;0.0
547;0.12809999287128448;-2.736215829849243;0.4067479968070984;0.27425599098205566;-3.095871925354004;0.5670560002326965;-55.31312561035156;0.2056249976158142;99.6143798828125
549;0.0;0.0;0.0;0.2547360062599182;-3.1622400283813477;0.5953599810600281;0.0;0.0;0.0
551;0.0;0.0;0.0;0.2898719906806946;-3.20908784866333;0.6158559918403625;0.0;0.0;0.0
553;0.0;0.0;0.0;0.28596800565719604;-3.2286078929901123;0.6402559876441956;0.0;0.0;0.0
555;0.158843994140625;-3.0573198795318604;0.506056010723114;0.30158400535583496;-3.298879861831665;0.6929599642753601;-54.54312515258789;28.555625915527344;65.03437805175781
558;0.0;0.0;0.0;0.2508319914340973;-3.3301119804382324;0.6968640089035034;0.0;0.0;0.0
560;0.0;0.0;0.0;0.20788799226284027;-3.365247964859009;0.7534719705581665;0.0;0.0;0.0
562;0.0;0.0;0.0;0.1727519929409027;-3.4159998893737793;0.7407839894294739;0.0;0.0;0.0
564;0.09491600096225739;-3.2276320457458496;0.5975559949874878;0.1571359932422638;-3.4306399822235107;0.7368800044059753;-43.34312438964844;30.65562629699707;27.584373474121094
566;0.0;0.0;0.0;0.11419199407100677;-3.4228320121765137;0.7368800044059753;0.0;0.0;0.0
568;0.0;0.0;0.0;0.16103999316692352;-3.438447952270508;0.7124800086021423;0.0;0.0;0.0
570;0.0;0.0;0.0;0.20788799226284027;-3.392575979232788;0.6929599642753601;0.0;0.0;0.0
572;0.05563199892640114;-3.274235963821411;0.5814520120620728;0.23521599173545837;-3.3301119804382324;0.6402559876441956;-27.803125381469727;5.805624961853027;-11.195625305175781
574;0.0;0.0;0.0;0.2508319914340973;-3.306687831878662;0.5992639660835266;0.0;0.0;0.0
577;0.0;0.0;0.0;0.2898719906806946;-3.205183982849121;0.5260639786720276;0.0;0.0;0.0
579;0.0;0.0;0.0;0.28596800565719604;-3.1466238498687744;0.4772639870643616;0.0;0.0;0.0
581;0.15786799788475037;-3.058539867401123;0.4152880012989044;0.3601439893245697;-3.017791986465454;0.4167519807815552;-11.983124732971191;-22.964374542236328;-49.69562530517578
583;0.0;0.0;0.0;0.4177280068397522;-2.9670400619506836;0.31915199756622314;0.0;0.0;0.0
585;0.0;0.0;0.0;0.42163199186325073;-2.830399990081787;0.26254400610923767;0.0;0.0;0.0
587;0.0;0.0;0.0;0.45286399126052856;-2.72108793258667;0.19812799990177155;0.0;0.0;0.0
589;0.3003639876842499;-2.688148021697998;0.15689200162887573;0.4840959906578064;-2.5883519649505615;0.14932799339294434;1.1768749952316284;-30.52437400817871;-84.83562469482422
592;0.0;0.0;0.0;0.48799997568130493;-2.518079996109009;0.08393599838018417;0.0;0.0;0.0
594;0.0;0.0;0.0;0.4840959906578064;-2.358016014099121;0.06831999868154526;0.0;0.0;0.0
596;0.0;0.0;0.0;0.5309439897537231;-2.279935836791992;0.027327999472618103;0.0;0.0;0.0
598;0.38942399621009827;-2.2379679679870605;-0.05172799900174141;0.5309439897537231;-2.1120638847351074;0.031231999397277832;16.436874389648438;-10.994375228881836;-112.62562561035156
600;0.0;0.0;0.0;0.5660799741744995;-2.0417919158935547;0.015615999698638916;0.0;0.0;0.0
602;0.0;0.0;0.0;0.5426560044288635;-1.932479977607727;0.019519999623298645;0.0;0.0;0.0
604;0.0;0.0;0.0;0.5660799741744995;-1.8153599500656128;0.05953599885106087;0.0;0.0;0.0
606;0.43017199635505676;-1.796083927154541;-0.08759599924087524;0.5543680191040039;-1.7216639518737793;0.04782399907708168;27.566875457763672;28.205625534057617;-135.23562622070312
609;0.0;0.0;0.0;0.6041439771652222;-1.6435840129852295;0.07612799853086472;0.0;0.0;0.0
611;0.0;0.0;0.0;0.569983959197998;-1.4796159267425537;0.10833600163459778;0.0;0.0;0.0
613;0.0;0.0;0.0;0.5963360071182251;-1.3937280178070068;0.13663999736309052;0.0;0.0;0.0
615;0.45993998646736145;-1.362007975578308;-0.003659999929368496;0.5504639744758606;-1.311743974685669;0.18544000387191772;30.436874389648438;86.30562591552734;-156.3056182861328
617;0.0;0.0;0.0;0.5348479747772217;-1.124351978302002;0.2547360062599182;0.0;0.0;0.0
619;0.0;0.0;0.0;0.47628799080848694;-1.0150399208068848;0.32793599367141724;0.0;0.0;0.0
621;0.0;0.0;0.0;0.42553597688674927;-0.9174399971961975;0.41284799575805664;0.0;0.0;0.0
623;0.3530679941177368;-0.8769359588623047;0.2222839891910553;0.35916799306869507;-0.7534719705581665;0.522159993648529;32.256874084472656;153.15562438964844;-172.8956298828125
626;0.0;0.0;0.0;0.26254400610923767;-0.6832000017166138;0.5348479747772217;0.0;0.0;0.0
628;0.0;0.0;0.0;0.21569599211215973;-0.5465599894523621;0.6646559834480286;0.0;0.0;0.0
630;0.0;0.0;0.0;0.16494399309158325;-0.43724799156188965;0.7534719705581665;0.0;0.0;0.0
632;0.10199199616909027;-0.4096759855747223;0.5358240008354187;0.12590399384498596;-0.3123199939727783;0.8422879576683044;38.766876220703125;202.85562133789062;-181.15562438964844
634;0.0;0.0;0.0;0.037087999284267426;-0.19910399615764618;0.9564799666404724;0.0;0.0;0.0
636;0.0;0.0;0.0;-0.05270399898290634;-0.10931199789047241;1.0491999387741089;0.0;0.0;0.0
638;0.0;0.0;0.0;-0.0878399983048439;-0.003903999924659729;1.1760799884796143;0.0;0.0;0.0
640;-0.1424959897994995;0.04196799919009209;0.9228079915046692;-0.1424959897994995;0.1210239976644516;1.2531839609146118;52.20687484741211;223.6456298828125;-180.3856201171875
643;0.0;0.0;0.0;-0.19227199256420135;0.22252799570560455;1.3790879249572754;0.0;0.0;0.0
645;0.0;0.0;0.0;-0.26254400610923767;0.30060797929763794;1.4639999866485596;0.0;0.0;0.0
647;0.0;0.0;0.0;-0.25863999128341675;0.42163199186325073;1.5567200183868408;0.0;0.0;0.0
649;-0.35941198468208313;0.4396879971027374;1.3232120275497437;-0.31329599022865295;0.4958080053329468;1.6387039422988892;62.426876068115234;214.19561767578125;-175.41561889648438
651;0.0;0.0;0.0;-0.35624000430107117;0.636352002620697;1.7197120189666748;0.0;0.0;0.0
653;0.0;0.0;0.0;-0.39137598872184753;0.7651839852333069;1.7558239698410034;0.0;0.0;0.0
655;0.0;0.0;0.0;-0.4684799909591675;0.8276479840278625;1.808527946472168;0.0;0.0;0.0
657;-0.5270400047302246;0.8844999670982361;1.6260160207748413;-0.5036159753799438;0.9681919813156128;1.8729439973831177;67.04688262939453;181.99562072753906;-167.6456298828125
660;0.0;0.0;0.0;-0.4997119903564453;1.073599934577942;1.9334559440612793;0.0;0.0;0.0
662;0.0;0.0;0.0;-0.5231360197067261;1.2375680208206177;1.9744479656219482;0.0;0.0;0.0
664;0.0;0.0;0.0;-0.5036159753799438;1.3039360046386719;2.0105600357055664;0.0;0.0;0.0
666;-0.6373279690742493;1.3493199348449707;1.81877601146698;-0.4840959906578064;1.4288640022277832;2.0105600357055664;67.18688201904297;133.20562744140625;-154.90562438964844
668;0.0;0.0;0.0;-0.4840959906578064;1.5772159099578857;2.019343852996826;0.0;0.0;0.0
670;0.0;0.0;0.0;-0.46457600593566895;1.604543924331665;2.0271520614624023;0.0;0.0;0.0
672;0.0;0.0;0.0;-0.4684799909591675;1.7567999362945557;2.0554559230804443;0.0;0.0;0.0
674;-0.6002399921417236;1.7811999320983887;1.8958799839019775;-0.44896000623703003;1.8661119937896729;2.0310559272766113;62.356876373291016;85.60562133789062;-138.3156280517578
677;0.0;0.0;0.0;-0.460671991109848;2.0339839458465576;2.0554559230804443;0.0;0.0;0.0
679;0.0;0.0;0.0;-0.47628799080848694;2.178431987762451;2.0515520572662354;0.0;0.0;0.0
681;0.0;0.0;0.0;-0.5036159753799438;2.3775360584259033;2.0310559272766113;0.0;0.0;0.0
683;-0.614147961139679;2.321660041809082;1.899783968925476;-0.5387519598007202;2.5141758918762207;2.0066559314727783;58.086875915527344;45.63562774658203;-117.94562530517578
685;0.0;0.0;0.0;-0.5153279900550842;2.64300799369812;1.9822559356689453;0.0;0.0;0.0
687;0.0;0.0;0.0;-0.48799997568130493;2.736703872680664;1.9744479656219482;0.0;0.0;0.0
689;0.0;0.0;0.0;-0.45286399126052856;2.8499200344085693;1.9500479698181152;0.0;0.0;0.0
691;-0.6170759797096252;2.858459949493408;1.8331719636917114;-0.4450559914112091;2.908479928970337;1.9012479782104492;50.946876525878906;5.73562479019165;-88.40562438964844
694;0.0;0.0;0.0;-0.4177280068397522;2.9787518978118896;1.8856319189071655;0.0;0.0;0.0
696;0.0;0.0;0.0;-0.4411519765853882;3.006079912185669;1.832927942276001;0.0;0.0;0.0
698;0.0;0.0;0.0;-0.39137598872184753;3.00217604637146;1.7880319356918335;0.0;0.0;0.0
700;-0.5328959822654724;3.123443841934204;1.7009239196777344;-0.39137598872184753;3.0607359409332275;1.7441120147705078;42.96687316894531;-22.334373474121094;-52.70562744140625
702;0.0;0.0;0.0;-0.4177280068397522;3.0763518810272217;1.6787199974060059;0.0;0.0;0.0
704;0.0;0.0;0.0;-0.4060159921646118;3.095871925354004;1.6543200016021729;0.0;0.0;0.0
706;0.0;0.0;0.0;-0.3640480041503906;3.123199939727783;1.5977119207382202;0.0;0.0;0.0
708;-0.49897998571395874;3.2312920093536377;1.5167039632797241;-0.32891198992729187;3.1427199840545654;1.5655039548873901;37.576873779296875;-39.13437271118164;-15.885624885559082
711;0.0;0.0;0.0;-0.30158400535583496;3.1622400283813477;1.5323200225830078;0.0;0.0;0.0
713;0.0;0.0;0.0;-0.30158400535583496;3.1583359241485596;1.484495997428894;0.0;0.0;0.0
715;0.0;0.0;0.0;-0.2781600058078766;3.1427199840545654;1.484495997428894;0.0;0.0;0.0
717;-0.42138800024986267;3.2722840309143066;1.3698159456253052;-0.3054879903793335;3.119295835494995;1.460096001625061;33.72687530517578;-46.97437286376953;21.634374618530273
719;0.0;0.0;0.0;-0.28596800565719604;3.1310079097747803;1.443503975868225;0.0;0.0;0.0
721;0.0;0.0;0.0;-0.2898719906806946;3.123199939727783;1.4639999866485596;0.0;0.0;0.0
723;0.0;0.0;0.0;-0.31329599022865295;3.119295835494995;1.435696005821228;0.0;0.0;0.0
725;-0.40943199396133423;3.2471518516540527;1.3119879961013794;-0.30158400535583496;3.099776029586792;1.4474079608917236;26.936874389648438;-44.59437561035156;59.014373779296875
728;0.0;0.0;0.0;-0.28596800565719604;3.0841598510742188;1.4395999908447266;0.0;0.0;0.0
730;0.0;0.0;0.0;-0.29767999053001404;2.990463972091675;1.4474079608917236;0.0;0.0;0.0
732;0.0;0.0;0.0;-0.2781600058078766;2.9475200176239014;1.4639999866485596;0.0;0.0;0.0
734;-0.4108960032463074;3.132472038269043;1.3254079818725586;-0.30158400535583496;2.8889598846435547;1.4718079566955566;10.066874504089355;-34.30437469482422;94.92437744140625
736;0.0;0.0;0.0;-0.35233598947525024;2.7718398571014404;1.5001119375228882;0.0;0.0;0.0
738;0.0;0.0;0.0;-0.4108960032463074;2.748415946960449;1.5450079441070557;0.0;0.0;0.0
740;0.0;0.0;0.0;-0.4958080053329468;2.61958384513855;1.4962079524993896;0.0;0.0;0.0
742;-0.5436319708824158;2.846503973007202;1.3861639499664307;-0.5270400047302246;2.5688319206237793;1.5245119333267212;-14.923125267028809;-21.77437400817871;128.3143768310547
745;0.0;0.0;0.0;-0.5816959738731384;2.451711893081665;1.5284159183502197;0.0;0.0;0.0
747;0.0;0.0;0.0;-0.5856000185012817;2.3111679553985596;1.5245119333267212;0.0;0.0;0.0
749;0.0;0.0;0.0;-0.6285439729690552;2.1862399578094482;1.4923039674758911;0.0;0.0;0.0
751;-0.7363919615745544;2.444148063659668;1.3917759656906128;-0.6705119609832764;2.05350399017334;1.5206079483032227;-38.09312438964844;-24.50437355041504;160.02438354492188
753;0.0;0.0;0.0;-0.6939359903335571;1.87391996383667;1.4835200309753418;0.0;0.0;0.0
755;0.0;0.0;0.0;-0.7368800044059753;1.7411839962005615;1.4317920207977295;0.0;0.0;0.0
757;0.0;0.0;0.0;-0.7876319885253906;1.5655039548873901;1.4073920249938965;0.0;0.0;0.0
759;-0.8669319748878479;1.8482999801635742;1.305400013923645;-0.7876319885253906;1.401535987854004;1.3781119585037231;-50.483123779296875;-47.04437255859375;186.27438354492188
762;0.0;0.0;0.0;-0.7954399585723877;1.2531839609146118;1.3302879333496094;0.0;0.0;0.0
764;0.0;0.0;0.0;-0.8032479882240295;1.1360639333724976;1.3302879333496094;0.0;0.0;0.0
766;0.0;0.0;0.0;-0.7407839894294739;0.9916160106658936;1.2980799674987793;0.0;0.0;0.0
768;-0.8930400013923645;1.254159927368164;1.17876398563385;-0.725167989730835;0.8979200124740601;1.2326879501342773;-53.073123931884766;-82.4643783569336;202.79437255859375
770;0.0;0.0;0.0;-0.7212640047073364;0.7378559708595276;1.1799839735031128;0.0;0.0;0.0
772;0.0;0.0;0.0;-0.6861279606819153;0.6129279732704163;1.0823839902877808;0.0;0.0;0.0
774;0.0;0.0;0.0;-0.6978399753570557;0.4997119903564453;1.0374879837036133;0.0;0.0;0.0
776;-0.8044679760932922;0.7451759576797485;0.9669719934463501;-0.6246399879455566;0.3669759929180145;0.9476959705352783;-53.84312438964844;-114.3843765258789;211.12437438964844
779;0.0;0.0;0.0;-0.5738880038261414;0.284991979598999;0.9037759900093079;0.0;0.0;0.0
781;0.0;0.0;0.0;-0.5777919888496399;0.16396799683570862;0.8305760025978088;0.0;0.0;0.0
783;0.0;0.0;0.0;-0.5465599894523621;0.054655998945236206;0.757375955581665;0.0;0.0;0.0
785;-0.6863719820976257;0.30158400535583496;0.7029640078544617;-0.5192319750785828;-0.04684799909591675;0.7046719789505005;-50.62312698364258;-138.67437744140625;215.1143798828125
787;0.0;0.0;0.0;-0.4997119903564453;-0.1483519971370697;0.6197599768638611;0.0;0.0;0.0
789;0.0;0.0;0.0;-0.4411519765853882;-0.2654719948768616;0.5787680149078369;0.0;0.0;0.0
791;0.0;0.0;0.0;-0.4294399917125702;-0.44896000623703003;0.5094720125198364;0.0;0.0;0.0
793;-0.5651040077209473;-0.16445599496364594;0.4614039957523346;-0.33671998977661133;-0.5856000185012817;0.4899519979953766;-46.56312561035156;-149.6643829345703;218.1943817138672
796;0.0;0.0;0.0;-0.2898719906806946;-0.7183359861373901;0.43724799156188965;0.0;0.0;0.0
798;0.0;0.0;0.0;-0.2547360062599182;-0.8705919981002808;0.42846399545669556;0.0;0.0;0.0
800;0.0;0.0;0.0;-0.17665599286556244;-1.0189440250396729;0.4001599848270416;0.0;0.0;0.0
802;-0.3635599911212921;-0.7385879755020142;0.2971920073032379;-0.1727519929409027;-1.1907199621200562;0.3396480083465576;-44.603126525878906;-137.20437622070312;213.4343719482422
804;0.0;0.0;0.0;-0.13468798995018005;-1.3312640190124512;0.31915199756622314;0.0;0.0;0.0
806;0.0;0.0;0.0;-0.14932799339294434;-1.5420799255371094;0.2791360020637512;0.0;0.0;0.0
808;0.0;0.0;0.0;-0.12590399384498596;-1.686527967453003;0.26254400610923767;0.0;0.0;0.0
810;-0.2654719948768616;-1.3739639520645142;0.19007599353790283;-0.1298079937696457;-1.8192639350891113;0.2869440019130707;-46.143123626708984;-104.37438201904297;198.10438537597656
813;0.0;0.0;0.0;-0.13468798995018005;-1.9754239320755005;0.2508319914340973;0.0;0.0;0.0
815;0.0;0.0;0.0;-0.10345599800348282;-2.0456960201263428;0.30353599786758423;0.0;0.0;0.0
817;0.0;0.0;0.0;-0.1454239934682846;-2.240895986557007;0.22252799570560455;0.0;0.0;0.0
819;-0.24448800086975098;-1.9629799127578735;0.14347200095653534;-0.13761599361896515;-2.4087679386138916;0.2791360020637512;-48.173126220703125;-75.25437927246094;175.63438415527344
821;0.0;0.0;0.0;-0.029279999434947968;-2.4868478775024414;0.2664479911327362;0.0;0.0;0.0
823;0.0;0.0;0.0;-0.013663999736309052;-2.6117758750915527;0.30743998289108276;0.0;0.0;0.0
825;0.0;0.0;0.0;0.09174399822950363;-2.7601280212402344;0.3240320086479187;0.0;0.0;0.0
827;-0.1088239997625351;-2.480259895324707;0.18129199743270874;0.16494399309158325;-2.8733439445495605;0.3396480083465576;-53.00312423706055;-53.834373474121094;149.244384765625
830;0.0;0.0;0.0;0.18836799263954163;-2.935807943344116;0.3601439893245697;0.0;0.0;0.0
832;0.0;0.0;0.0;0.2508319914340973;-3.0724480152130127;0.4167519807815552;0.0;0.0;0.0
834;0.0;0.0;0.0;0.2898719906806946;-3.111487865447998;0.45286399126052856;0.0;0.0;0.0
836;0.11248400062322617;-2.9143359661102295;0.2896279990673065;0.32500800490379333;-3.2637438774108887;0.4655520021915436;-64.76312255859375;-18.764373779296875;117.8843765258789
838;0.0;0.0;0.0;0.29767999053001404;-3.3535358905792236;0.5065439939498901;0.0;0.0;0.0
840;0.0;0.0;0.0;0.3211039900779724;-3.4813919067382812;0.5016639828681946;0.0;0.0;0.0
842;0.0;0.0;0.0;0.3093920052051544;-3.543855905532837;0.5426560044288635;0.0;0.0;0.0
844;0.18861199915409088;-3.3140079975128174;0.4038199782371521;0.3093920052051544;-3.633647918701172;0.587552011013031;-78.5531234741211;20.645626068115234;80.78437805175781
847;0.0;0.0;0.0;0.2781600058078766;-3.723439931869507;0.6031680107116699;0.0;0.0;0.0
849;0.0;0.0;0.0;0.24302399158477783;-3.754671812057495;0.6236639618873596;0.0;0.0;0.0
851;0.0;0.0;0.0;0.16103999316692352;-3.7937119007110596;0.6275680065155029;0.0;0.0;0.0
853;0.10247999429702759;-3.604367971420288;0.4921479821205139;0.15323199331760406;-3.8561758995056152;0.6353759765625;-82.54312133789062;40.735626220703125;37.66437530517578
855;0.0;0.0;0.0;0.09564799815416336;-3.8795998096466064;0.6275680065155029;0.0;0.0;0.0
857;0.0;0.0;0.0;0.11028799414634705;-3.8522720336914062;0.5914559960365295;0.0;0.0;0.0
859;0.0;0.0;0.0;0.09955199807882309;-3.7937119007110596;0.5670560002326965;0.0;0.0;0.0
861;-0.01268799975514412;-3.6726880073547363;0.472383975982666;0.1298079937696457;-3.723439931869507;0.5426560044288635;-72.46311950683594;23.795625686645508;-8.045624732971191
864;0.0;0.0;0.0;0.19227199256420135;-3.625839948654175;0.48214399814605713;0.0;0.0;0.0
866;0.0;0.0;0.0;0.2547360062599182;-3.4931039810180664;0.4294399917125702;0.0;0.0;0.0
868;0.0;0.0;0.0;0.27035200595855713;-3.373055934906006;0.35624000430107117;0.0;0.0;0.0
870;0.1117519959807396;-3.3430440425872803;0.30817198753356934;0.2937760055065155;-3.2637438774108887;0.3113439977169037;-51.393123626708984;-10.434374809265137;-50.04562759399414
872;0.0;0.0;0.0;0.3445279896259308;-3.1271040439605713;0.2547360062599182;0.0;0.0;0.0
874;0.0;0.0;0.0;0.4138239920139313;-2.994367837905884;0.21374399960041046;0.0;0.0;0.0
876;0.0;0.0;0.0;0.5231360197067261;-2.8694398403167725;0.18934398889541626;0.0;0.0;0.0
878;0.31793197989463806;-2.8443078994750977;0.1041879951953888;0.5465599894523621;-2.72108793258667;0.11614400148391724;-27.173126220703125;-17.924373626708984;-85.5356216430664
881;0.0;0.0;0.0;0.5895040035247803;-2.6078720092773438;0.09662400186061859;0.0;0.0;0.0
883;0.0;0.0;0.0;0.5856000185012817;-2.451711893081665;0.0878399983048439;0.0;0.0;0.0
885;0.0;0.0;0.0;0.6314719915390015;-2.330687999725342;0.07222399860620499;0.0;0.0;0.0
887;0.4718959927558899;-2.3194639682769775;-0.023180000483989716;0.5895040035247803;-2.162816047668457;0.09662400186061859;-5.613125324249268;16.025625228881836;-114.79562377929688
889;0.0;0.0;0.0;0.6012159585952759;-2.0183680057525635;0.12883199751377106;0.0;0.0;0.0
891;0.0;0.0;0.0;0.611952006816864;-1.8856319189071655;0.16103999316692352;0.0;0.0;0.0
893;0.0;0.0;0.0;0.5934079885482788;-1.7333760261535645;0.22155199944972992;0.0;0.0;0.0
896;0.4757999777793884;-1.7321559190750122;0.05392399802803993;0.562175989151001;-1.5772159099578857;0.2869440019130707;14.266875267028809;75.45561981201172;-138.52561950683594
898;0.0;0.0;0.0;0.5504639744758606;-1.4210560321807861;0.3357439935207367;0.0;0.0;0.0
900;0.0;0.0;0.0;0.5231360197067261;-1.3156479597091675;0.44896000623703003;0.0;0.0;0.0
902;0.0;0.0;0.0;0.44896000623703003;-1.1868159770965576;0.5543680191040039;0.0;0.0;0.0
904;0.37624800205230713;-1.1641240119934082;0.3333039879798889;0.3903999924659729;-1.0384639501571655;0.6236639618873596;27.356874465942383;143.07562255859375;-154.5556182861328
906;0.0;0.0;0.0;0.3172000050544739;-0.9252479672431946;0.7456640005111694;0.0;0.0;0.0
908;0.0;0.0;0.0;0.2508319914340973;-0.8354560136795044;0.8344799876213074;0.0;0.0;0.0
910;0.0;0.0;0.0;0.18836799263954163;-0.6753919720649719;0.9681919813156128;0.0;0.0;0.0
913;0.1373720020055771;-0.67221999168396;0.7334640026092529;0.13761599361896515;-0.5973119735717773;1.1028800010681152;37.36687469482422;191.44561767578125;-161.765625
915;0.0;0.0;0.0;0.04879999905824661;-0.5114240050315857;1.2248799800872803;0.0;0.0;0.0
917;0.0;0.0;0.0;0.0019519999623298645;-0.4060159921646118;1.338096022605896;0.0;0.0;0.0
919;0.0;0.0;0.0;-0.05270399898290634;-0.33183997869491577;1.484495997428894;0.0;0.0;0.0
921;-0.10858000069856644;-0.26278799772262573;1.2146320343017578;-0.09174399822950363;-0.21081599593162537;1.5899039506912231;40.796875;213.70562744140625;-163.37562561035156
923;0.0;0.0;0.0;-0.1571359932422638;-0.14054399728775024;1.686527967453003;0.0;0.0;0.0
925;0.0;0.0;0.0;-0.22740799188613892;-0.058559998869895935;1.8124319314956665;0.0;0.0;0.0
927;0.0;0.0;0.0;-0.25863999128341675;-0.023423999547958374;1.8612319231033325;0.0;0.0;0.0
930;-0.3340359926223755;0.0773480013012886;1.6467559337615967;-0.35233598947525024;0.12883199751377106;1.9744479656219482;34.2868766784668;206.91561889648438;-162.8856201171875
932;0.0;0.0;0.0;-0.40991997718811035;0.11321599781513214;2.0310559272766113;0.0;0.0;0.0
934;0.0;0.0;0.0;-0.46457600593566895;0.21862399578094482;2.0876638889312744;0.0;0.0;0.0
936;0.0;0.0;0.0;-0.5348479747772217;0.2576639950275421;2.1452479362487793;0.0;0.0;0.0
938;-0.5785239934921265;0.3374519944190979;1.9385799169540405;-0.5582720041275024;0.3240320086479187;2.1647679805755615;24.13687515258789;165.47561645507812;-158.6856231689453
940;0.0;0.0;0.0;-0.5348479747772217;0.3903999924659729;2.2057600021362305;0.0;0.0;0.0
942;0.0;0.0;0.0;-0.569983959197998;0.4450559914112091;2.2018558979034424;0.0;0.0;0.0
944;0.0;0.0;0.0;-0.5231360197067261;0.5309439897537231;2.2018558979034424;0.0;0.0;0.0
947;-0.6544079780578613;0.5836479663848877;2.0632638931274414;-0.4840959906578064;0.569983959197998;2.2096638679504395;14.616874694824219;97.50562286376953;-152.10562133789062
949;0.0;0.0;0.0;-0.4997119903564453;0.636352002620697;2.1735520362854004;0.0;0.0;0.0
951;0.0;0.0;0.0;-0.4684799909591675;0.6871039867401123;2.1735520362854004;0.0;0.0;0.0
953;0.0;0.0;0.0;-0.4684799909591675;0.7378559708595276;2.1208479404449463;0.0;0.0;0.0
955;-0.6014599800109863;0.8176440000534058;2.0147080421447754;-0.4450559914112091;0.7847039699554443;2.0837600231170654;7.546875;31.77562713623047;-142.65562438964844
957;0.0;0.0;0.0;-0.40991997718811035;0.8393599987030029;2.043743848800659;0.0;0.0;0.0
959;0.0;0.0;0.0;-0.40991997718811035;0.8979200124740601;2.019343852996826;0.0;0.0;0.0
961;0.0;0.0;0.0;-0.3757599890232086;0.9330559968948364;1.9705439805984497;0.0;0.0;0.0
964;-0.5072759985923767;1.0111359357833862;1.8792879581451416;-0.3328160047531128;0.9330559968948364;1.9217439889907837;2.5768752098083496;-12.954375267028809;-130.19561767578125
966;0.0;0.0;0.0;-0.2820639908313751;0.9838079810142517;1.8729439973831177;0.0;0.0;0.0
968;0.0;0.0;0.0;-0.2937760055065155;1.0306559801101685;1.825119972229004;0.0;0.0;0.0
970;0.0;0.0;0.0;-0.2547360062599182;1.042367935180664;1.776319980621338;0.0;0.0;0.0
972;-0.403331995010376;1.1426520347595215;1.694823980331421;-0.22740799188613892;1.0657919645309448;1.7197120189666748;-1.203125;-33.954376220703125;-118.22562408447266
974;0.0;0.0;0.0;-0.2117919921875;1.1126400232315063;1.6748160123825073;0.0;0.0;0.0
976;0.0;0.0;0.0;-0.2000799924135208;1.1282559633255005;1.6055200099945068;0.0;0.0;0.0
978;0.0;0.0;0.0;-0.15323199331760406;1.1438720226287842;1.5655039548873901;0.0;0.0;0.0
981;-0.3140279948711395;1.2690439224243164;1.4859600067138672;-0.14932799339294434;1.2258559465408325;1.5245119333267212;2.7168750762939453;-40.32437515258789;-107.23562622070312
983;0.0;0.0;0.0;-0.11126399785280228;1.311743974685669;1.5040159225463867;0.0;0.0;0.0
985;0.0;0.0;0.0;-0.13078400492668152;1.3742079734802246;1.4883999824523926;0.0;0.0;0.0
987;0.0;0.0;0.0;-0.13371199369430542;1.4796159267425537;1.508895993232727;0.0;0.0;0.0
989;-0.24741598963737488;1.5076760053634644;1.3664000034332275;-0.11126399785280228;1.4952319860458374;1.4757119417190552;16.716875076293945;-37.66437530517578;-93.515625
991;0.0;0.0;0.0;-0.12297599762678146;1.604543924331665;1.5206079483032227;0.0;0.0;0.0
993;0.0;0.0;0.0;-0.10345599800348282;1.6279679536819458;1.53329598903656;0.0;0.0;0.0
995;0.0;0.0;0.0;-0.12297599762678146;1.6631039381027222;1.5489119291305542;0.0;0.0;0.0
998;-0.234484001994133;1.7607039213180542;1.3820159435272217;-0.11907199770212173;1.7489919662475586;1.5371999740600586;30.786874771118164;-28.354373931884766;-76.57562255859375
1000;0.0;0.0;0.0;-0.16884799301624298;1.7997440099716187;1.5528159141540527;0.0;0.0;0.0
1002;0.0;0.0;0.0;-0.20398399233818054;1.8270719051361084;1.5694079399108887;0.0;0.0;0.0
1004;0.0;0.0;0.0;-0.19617599248886108;1.8622080087661743;1.5655039548873901;0.0;0.0;0.0
1006;-0.29938799142837524;1.9534639120101929;1.4347199201583862;-0.19617599248886108;1.932479977607727;1.5977119207382202;41.076873779296875;-23.59437370300293;-56.97562789916992
1008;0.0;0.0;0.0;-0.23131199181079865;1.9402879476547241;1.5859999656677246;0.0;0.0;0.0
1010;0.0;0.0;0.0;-0.19227199256420135;2.0066559314727783;1.5938079357147217;0.0;0.0;0.0
1012;0.0;0.0;0.0;-0.23521599173545837;2.05350399017334;1.5528159141540527;0.0;0.0;0.0
1015;-0.3386719822883606;2.146467924118042;1.4478960037231445;-0.24692799150943756;2.1315839290618896;1.5811200141906738;51.22687530517578;-33.81437301635742;-35.13562774658203
1017;0.0;0.0;0.0;-0.2391199916601181;2.155007839202881;1.5694079399108887;0.0;0.0;0.0
1019;0.0;0.0;0.0;-0.23521599173545837;2.2291839122772217;1.5977119207382202;0.0;0.0;0.0
1021;0.0;0.0;0.0;-0.24302399158477783;2.2955520153045654;1.5655039548873901;0.0;0.0;0.0
1023;-0.3740519881248474;2.3689959049224854;1.441551923751831;-0.28596800565719604;2.36191987991333;1.5938079357147217;61.516876220703125;-53.55437469482422;-10.35562515258789
1025;0.0;0.0;0.0;-0.3172000050544739;2.3931519985198975;1.5528159141540527;0.0;0.0;0.0
1027;0.0;0.0;0.0;-0.3093920052051544;2.440000057220459;1.5040159225463867;0.0;0.0;0.0
1029;0.0;0.0;0.0;-0.27425599098205566;2.432191848754883;1.4923039674758911;0.0;0.0;0.0
1032;-0.416020005941391;2.54150390625;1.3834799528121948;-0.26254400610923767;2.4243838787078857;1.4513119459152222;62.77687454223633;-77.70437622070312;18.484375
1034;0.0;0.0;0.0;-0.21959999203681946;2.4243838787078857;1.362496018409729;0.0;0.0;0.0
1036;0.0;0.0;0.0;-0.18055999279022217;2.447808027267456;1.3263839483261108;0.0;0.0;0.0
1038;0.0;0.0;0.0;-0.18836799263954163;2.443903923034668;1.2775839567184448;0.0;0.0;0.0
1040;-0.32842400670051575;2.5812759399414062;1.203652024269104;-0.1727519929409027;2.455615997314453;1.2326879501342773;57.87687683105469;-98.84437561035156;46.06437301635742
1042;0.0;0.0;0.0;-0.1727519929409027;2.4673280715942383;1.1877919435501099;0.0;0.0;0.0
1044;0.0;0.0;0.0;-0.19227199256420135;2.5141758918762207;1.122399926185608;0.0;0.0;0.0
1046;0.0;0.0;0.0;-0.21569599211215973;2.529791831970215;1.0940959453582764;0.0;0.0;0.0
1049;-0.3118319809436798;2.6288559436798096;0.9947879910469055;-0.19617599248886108;2.518079996109009;1.0208959579467773;52.97687530517578;-109.97438049316406;72.94438171386719
1051;0.0;0.0;0.0;-0.16201600432395935;2.518079996109009;0.9847840070724487;0.0;0.0;0.0
1053;0.0;0.0;0.0;-0.13859200477600098;2.46342396736145;0.9281759858131409;0.0;0.0;0.0
1055;0.0;0.0;0.0;-0.15323199331760406;2.4087679386138916;0.8871839642524719;0.0;0.0;0.0
1057;-0.27035200595855713;2.5793240070343018;0.8091039657592773;-0.11907199770212173;2.3892478942871094;0.84716796875;46.046875;-116.06437683105469;101.22438049316406
1059;0.0;0.0;0.0;-0.13078400492668152;2.3072638511657715;0.8100799918174744;0.0;0.0;0.0
1061;0.0;0.0;0.0;-0.09174399822950363;2.3111679553985596;0.8139839768409729;0.0;0.0;0.0
1064;0.0;0.0;0.0;-0.0605119988322258;2.264319896697998;0.7661600112915039;0.0;0.0;0.0
1066;-0.21106000244617462;2.4124279022216797;0.6746599674224854;-0.05270399898290634;2.2369918823242188;0.7661600112915039;32.95687484741211;-111.58438110351562;128.52438354492188
1068;0.0;0.0;0.0;-0.02147199958562851;2.1354880332946777;0.725167989730835;0.0;0.0;0.0
1070;0.0;0.0;0.0;-0.040991999208927155;2.073024034500122;0.732975959777832;0.0;0.0;0.0
1072;0.0;0.0;0.0;-0.02147199958562851;2.0183680057525635;0.7173599600791931;0.0;0.0;0.0
1074;-0.14615599811077118;2.200147867202759;0.6063399910926819;-0.04879999905824661;1.9012479782104492;0.6929599642753601;10.276874542236328;-86.17437744140625;151.9043731689453
1076;0.0;0.0;0.0;-0.06441599875688553;1.834879994392395;0.6685599684715271;0.0;0.0;0.0
1078;0.0;0.0;0.0;-0.08393599838018417;1.7333760261535645;0.6646559834480286;0.0;0.0;0.0
1081;0.0;0.0;0.0;-0.11907199770212173;1.6162559986114502;0.6724640130996704;0.0;0.0;0.0
1083;-0.2076440006494522;1.8492759466171265;0.5460720062255859;-0.13468798995018005;1.499135971069336;0.6685599684715271;-11.843125343322754;-50.96437454223633;173.04437255859375
1085;0.0;0.0;0.0;-0.19227199256420135;1.3507839441299438;0.6685599684715271;0.0;0.0;0.0
1087;0.0;0.0;0.0;-0.2117919921875;1.2336640357971191;0.700767993927002;0.0;0.0;0.0
1089;0.0;0.0;0.0;-0.24692799150943756;1.0892159938812256;0.6929599642753601;0.0;0.0;0.0
1091;-0.3442839980125427;1.3517600297927856;0.5568079948425293;-0.28596800565719604;0.9564799666404724;0.7124800086021423;-27.243125915527344;-29.404375076293945;190.12437438964844
1093;0.0;0.0;0.0;-0.2820639908313751;0.8862079977989197;0.7290719747543335;0.0;0.0;0.0
1095;0.0;0.0;0.0;-0.35624000430107117;0.7964159846305847;0.7212640047073364;0.0;0.0;0.0
1098;0.0;0.0;0.0;-0.3601439893245697;0.6441599726676941;0.7212640047073364;0.0;0.0;0.0
1100;-0.4513999819755554;0.9003599882125854;0.590723991394043;-0.387472003698349;0.562175989151001;0.7212640047073364;-37.46312713623047;-26.1143741607666;200.6943817138672
1102;0.0;0.0;0.0;-0.3640480041503906;0.44896000623703003;0.7046719789505005;0.0;0.0;0.0
1104;0.0;0.0;0.0;-0.3718560039997101;0.32793599367141724;0.6929599642753601;0.0;0.0;0.0
1106;0.0;0.0;0.0;-0.387472003698349;0.19129599630832672;0.684175968170166;0.0;0.0;0.0
1108;-0.48775598406791687;0.44481199979782104;0.5716919898986816;-0.35233598947525024;0.07417599856853485;0.676367998123169;-43.97312545776367;-33.7443733215332;209.234375
1110;0.0;0.0;0.0;-0.3640480041503906;-0.11321599781513214;0.6724640130996704;0.0;0.0;0.0
1112;0.0;0.0;0.0;-0.35233598947525024;-0.27718400955200195;0.6646559834480286;0.0;0.0;0.0
1115;0.0;0.0;0.0;-0.39137598872184753;-0.45286399126052856;0.6353759765625;0.0;0.0;0.0
1117;-0.5001999735832214;-0.15079200267791748;0.5282599925994873;-0.42553597688674927;-0.6441599726676941;0.5953599810600281;-46.703125;-38.57437515258789;213.85438537597656
1119;0.0;0.0;0.0;-0.4567679762840271;-0.8042240142822266;0.6070719957351685;0.0;0.0;0.0
1121;0.0;0.0;0.0;-0.5114240050315857;-0.9408639669418335;0.5992639660835266;0.0;0.0;0.0
1123;0.0;0.0;0.0;-0.5036159753799438;-1.175104022026062;0.5387519598007202;0.0;0.0;0.0
1125;-0.6034119725227356;-0.8576599955558777;0.4496919810771942;-0.5114240050315857;-1.362496018409729;0.5348479747772217;-46.00312423706055;-43.68437576293945;210.42437744140625
1127;0.0;0.0;0.0;-0.47628799080848694;-1.3937280178070068;0.522159993648529;0.0;0.0;0.0
1129;0.0;0.0;0.0;-0.39430397748947144;-1.7489919662475586;0.4333440065383911;0.0;0.0;0.0
1132;0.0;0.0;0.0;-0.4060159921646118;-1.8504959344863892;0.4694559872150421;0.0;0.0;0.0
1134;-0.5529040098190308;-1.5198760032653809;0.34818798303604126;-0.3328160047531128;-1.9988479614257812;0.4333440065383911;-43.97312545776367;-53.764373779296875;199.22438049316406
1136;0.0;0.0;0.0;-0.2664479911327362;-2.1393918991088867;0.4001599848270416;0.0;0.0;0.0
1138;0.0;0.0;0.0;-0.19227199256420135;-2.3189759254455566;0.38844799995422363;0.0;0.0;0.0
1140;0.0;0.0;0.0;-0.1844639927148819;-2.440000057220459;0.4001599848270416;0.0;0.0;0.0
1142;-0.3357439935207367;-2.1567158699035645;0.27742800116539;-0.07612799853086472;-2.557119846343994;0.41284799575805664;-42.43312454223633;-49.91437530517578;180.60438537597656
1144;0.0;0.0;0.0;-0.02147199958562851;-2.6937599182128906;0.4333440065383911;0.0;0.0;0.0
1146;0.0;0.0;0.0;0.05660799890756607;-2.810879945755005;0.4577440023422241;0.0;0.0;0.0
1149;0.0;0.0;0.0;0.1298079937696457;-2.9475200176239014;0.45286399126052856;0.0;0.0;0.0
1151;-0.06685599684715271;-2.671067953109741;0.3294000029563904;0.13761599361896515;-3.0451200008392334;0.5143519639968872;-50.13312530517578;-18.904375076293945;154.14437866210938
1153;0.0;0.0;0.0;0.16494399309158325;-3.2247040271759033;0.522159993648529;0.0;0.0;0.0
1155;0.0;0.0;0.0;0.1727519929409027;-3.373055934906006;0.5748639702796936;0.0;0.0;0.0
1157;0.0;0.0;0.0;0.18836799263954163;-3.4970078468322754;0.6031680107116699;0.0;0.0;0.0
1159;0.04025999829173088;-3.214211940765381;0.45457199215888977;0.16884799301624298;-3.6141278743743896;0.684175968170166;-66.16312408447266;36.04562759399414;119.56437683105469
1161;0.0;0.0;0.0;0.12590399384498596;-3.7156319618225098;0.7456640005111694;0.0;0.0;0.0
1163;0.0;0.0;0.0;0.1298079937696457;-3.8561758995056152;0.7895839810371399;0.0;0.0;0.0
1166;0.0;0.0;0.0;0.06441599875688553;-3.9928159713745117;0.8510719537734985;0.0;0.0;0.0
1168;-0.020739998668432236;-3.7161200046539307;0.6758800148963928;0.037087999284267426;-4.113840103149414;0.8910880088806152;-78.62312316894531;89.17562103271484;76.234375
1170;0.0;0.0;0.0;-0.040991999208927155;-4.223151683807373;0.9476959705352783;0.0;0.0;0.0
1172;0.0;0.0;0.0;-0.08003199845552444;-4.387119770050049;0.9525759816169739;0.0;0.0;0.0
1174;0.0;0.0;0.0;-0.16494399309158325;-4.500335693359375;0.9525759816169739;0.0;0.0;0.0
1176;-0.21716000139713287;-4.219491958618164;0.8108119964599609;-0.22740799188613892;-4.570608139038086;0.9037759900093079;-75.75312042236328;105.34561920166016;27.234375
1178;0.0;0.0;0.0;-0.24302399158477783;-4.609647750854492;0.8949919939041138;0.0;0.0;0.0
1180;0.0;0.0;0.0;-0.22740799188613892;-4.613552093505859;0.8422879576683044;0.0;0.0;0.0
1183;0.0;0.0;0.0;-0.22740799188613892;-4.574512004852295;0.7895839810371399;0.0;0.0;0.0
1185;-0.3484320044517517;-4.441043853759766;0.7185800075531006;-0.16884799301624298;-4.484719753265381;0.7124800086021423;-47.053123474121094;55.29562759399414;-22.60562515258789
1187;0.0;0.0;0.0;-0.11907199770212173;-4.3597917556762695;0.659775972366333;0.0;0.0;0.0
1189;0.0;0.0;0.0;-0.05660799890756607;-4.184112071990967;0.587552011013031;0.0;0.0;0.0
1191;0.0;0.0;0.0;0.037087999284267426;-4.043568134307861;0.5182560086250305;0.0;0.0;0.0
1193;-0.16274799406528473;-4.0467400550842285;0.4601839780807495;0.13371199369430542;-3.8522720336914062;0.4167519807815552;-2.323124885559082;-19.464374542236328;-69.57562255859375
1196;0.0;0.0;0.0;0.2235039919614792;-3.645359992980957;0.3513599932193756;0.0;0.0;0.0
1197;0.0;0.0;0.0;0.374783992767334;-3.461871862411499;0.29475200176239014;0.0;0.0;0.0
1200;0.0;0.0;0.0;0.460671991109848;-3.279359817504883;0.2176479995250702;0.0;0.0;0.0
1202;0.22472399473190308;-3.3218159675598145;0.18129199743270874;0.5348479747772217;-3.1583359241485596;0.17763200402259827;33.3068733215332;-38.71437454223633;-111.92562103271484
1204;0.0;0.0;0.0;0.5426560044288635;-2.9709439277648926;0.12883199751377106;0.0;0.0;0.0
1206;0.0;0.0;0.0;0.5895040035247803;-2.7952640056610107;0.12492799758911133;0.0;0.0;0.0
1208;0.0;0.0;0.0;0.5816959738731384;-2.654719829559326;0.1210239976644516;0.0;0.0;0.0
1210;0.4572559893131256;-2.671555995941162;0.026108000427484512;0.5582720041275024;-2.5141758918762207;0.12492799758911133;57.87687683105469;7.345624923706055;-143.5656280517578
1212;0.0;0.0;0.0;0.5153279900550842;-2.3189759254455566;0.18934398889541626;0.0;0.0;0.0
1214;0.0;0.0;0.0;0.4840959906578064;-2.166719913482666;0.23423999547958374;0.0;0.0;0.0
1217;0.0;0.0;0.0;0.4567679762840271;-2.0261759757995605;0.29865598678588867;0.0;0.0;0.0
1219;0.36965999007225037;-2.037400007247925;0.13541999459266663;0.42163199186325073;-1.8934400081634521;0.4089439809322357;74.11688232421875;84.20561981201172;-168.3456268310547
1221;0.0;0.0;0.0;0.4021120071411133;-1.7724159955978394;0.4938559830188751;0.0;0.0;0.0
1223;0.0;0.0;0.0;0.3445279896259308;-1.6631039381027222;0.6236639618873596;0.0;0.0;0.0
1225;0.0;0.0;0.0;0.27035200595855713;-1.5264639854431152;0.773967981338501;0.0;0.0;0.0
1227;0.20056799054145813;-1.5225600004196167;0.5123999714851379;0.19617599248886108;-1.4210560321807861;0.8998720049858093;77.47687530517578;156.72561645507812;-185.28562927246094
1229;0.0;0.0;0.0;0.12590399384498596;-1.3312640190124512;1.0579839944839478;0.0;0.0;0.0
1231;0.0;0.0;0.0;0.0605119988322258;-1.1985279321670532;1.1633919477462769;0.0;0.0;0.0
1234;0.0;0.0;0.0;-0.02147199958562851;-1.1165440082550049;1.2932000160217285;0.0;0.0;0.0
1236;-0.06588000059127808;-1.0757960081100464;1.0367560386657715;-0.1268799901008606;-0.9720959663391113;1.4073920249938965;65.36688232421875;206.005615234375;-195.505615234375
1238;0.0;0.0;0.0;-0.2117919921875;-0.8549759984016418;1.4923039674758911;0.0;0.0;0.0
1240;0.0;0.0;0.0;-0.25863999128341675;-0.7534719705581665;1.5977119207382202;0.0;0.0;0.0
1242;0.0;0.0;0.0;-0.32500800490379333;-0.5973119735717773;1.6787199974060059;0.0;0.0;0.0
1244;-0.374783992767334;-0.6014599800109863;1.4596079587936401;-0.3328160047531128;-0.5270400047302246;1.776319980621338;44.71687316894531;211.8156280517578;-201.87562561035156
1246;0.0;0.0;0.0;-0.39137598872184753;-0.45286399126052856;1.8290239572525024;0.0;0.0;0.0
1248;0.0;0.0;0.0;-0.4060159921646118;-0.35526400804519653;1.9051519632339478;0.0;0.0;0.0
1251;0.0;0.0;0.0;-0.43724799156188965;-0.3084160089492798;1.9627360105514526;0.0;0.0;0.0
1253;-0.5360679626464844;-0.2391199916601181;1.7475279569625854;-0.4840959906578064;-0.19910399615764618;2.0027520656585693;25.466875076293945;178.91561889648438;-206.70562744140625
1255;0.0;0.0;0.0;-0.4997119903564453;-0.10931199789047241;1.9910399913787842;0.0;0.0;0.0
1257;0.0;0.0;0.0;-0.48799997568130493;0.0;2.0476479530334473;0.0;0.0;0.0
1259;0.0;0.0;0.0;-0.5270400047302246;0.1210239976644516;2.0925440788269043;0.0;0.0;0.0
1261;-0.6246399879455566;0.14395999908447266;1.903931975364685;-0.5153279900550842;0.19910399615764618;2.1081600189208984;12.166874885559082;131.94561767578125;-204.4656219482422
1264;0.0;0.0;0.0;-0.4958080053329468;0.3396480083465576;2.1042559146881104;0.0;0.0;0.0
1266;0.0;0.0;0.0;-0.49190399050712585;0.39820799231529236;2.1247520446777344;0.0;0.0;0.0
1268;0.0;0.0;0.0;-0.5387519598007202;0.5075199604034424;2.1003520488739014;0.0;0.0;0.0
1270;-0.6497719883918762;0.5407040119171143;1.9629799127578735;-0.5660799741744995;0.5738880038261414;2.1159679889678955;4.956874847412109;81.89562225341797;-197.11561584472656
1272;0.0;0.0;0.0;-0.6129279732704163;0.636352002620697;2.0925440788269043;0.0;0.0;0.0
1274;0.0;0.0;0.0;-0.6090239882469177;0.6753919720649719;2.0925440788269043;0.0;0.0;0.0
1276;0.0;0.0;0.0;-0.5660799741744995;0.7183359861373901;2.0554559230804443;0.0;0.0;0.0
1278;-0.716871976852417;0.8152039647102356;1.9319919347763062;-0.5895040035247803;0.749567985534668;2.019343852996826;2.0868752002716064;28.205625534057617;-188.29562377929688
1280;0.0;0.0;0.0;-0.5738880038261414;0.7847039699554443;1.9422399997711182;0.0;0.0;0.0
1282;0.0;0.0;0.0;-0.5504639744758606;0.8666880130767822;1.8856319189071655;0.0;0.0;0.0
1285;0.0;0.0;0.0;-0.4958080053329468;0.936959981918335;1.857327938079834;0.0;0.0;0.0
1287;-0.6485520005226135;1.0062559843063354;1.7624119520187378;-0.4411519765853882;1.0033279657363892;1.800719976425171;3.486875057220459;-21.424373626708984;-179.3356170654297
1289;0.0;0.0;0.0;-0.4138239920139313;1.1477760076522827;1.7636319398880005;0.0;0.0;0.0
1291;0.0;0.0;0.0;-0.39137598872184753;1.229759931564331;1.686527967453003;0.0;0.0;0.0
1293;0.0;0.0;0.0;-0.3718560039997101;1.3898239135742188;1.6426079273223877;0.0;0.0;0.0
1295;-0.5141080021858215;1.3934839963912964;1.57453191280365;-0.3640480041503906;1.4718079566955566;1.6016160249710083;11.116874694824219;-51.2443733215332;-167.99562072753906
1298;0.0;0.0;0.0;-0.32500800490379333;1.6162559986114502;1.5567200183868408;0.0;0.0;0.0
1300;0.0;0.0;0.0;-0.3211039900779724;1.7567999362945557;1.4962079524993896;0.0;0.0;0.0
1302;0.0;0.0;0.0;-0.3757599890232086;1.6513919830322266;1.4718079566955566;0.0;0.0;0.0
1304;-0.4538399875164032;1.8053559064865112;1.3876279592514038;-0.2547360062599182;1.8504959344863892;1.484495997428894;20.846874237060547;-64.68437957763672;-150.70562744140625
1306;0.0;0.0;0.0;-0.14932799339294434;2.0261759757995605;1.5167039632797241;0.0;0.0;0.0
1308;0.0;0.0;0.0;-0.24302399158477783;2.0300798416137695;1.4552159309387207;0.0;0.0;0.0
1310;0.0;0.0;0.0;-0.21569599211215973;1.9637119770050049;1.3781119585037231;0.0;0.0;0.0
1312;-0.3467240035533905;2.1398799419403076;1.3151599168777466;-0.2391199916601181;2.1276800632476807;1.3664000034332275;27.776874542236328;-65.80437469482422;-127.95562744140625
1315;0.0;0.0;0.0;-0.16494399309158325;2.272127866744995;1.3498079776763916;0.0;0.0;0.0
1317;0.0;0.0;0.0;-0.1424959897994995;2.443903923034668;1.3781119585037231;0.0;0.0;0.0
1319;0.0;0.0;0.0;-0.11126399785280228;2.545408010482788;1.3829920291900635;0.0;0.0;0.0
1321;-0.2810879945755005;2.529791831970215;1.2414720058441162;-0.14640000462532043;2.6000640392303467;1.3507839441299438;34.916873931884766;-55.37437438964844;-108.2856216430664
1323;0.0;0.0;0.0;-0.16103999316692352;2.810879945755005;1.4025119543075562;0.0;0.0;0.0
1325;0.0;0.0;0.0;-0.16103999316692352;2.732800006866455;1.3302879333496094;0.0;0.0;0.0
1327;0.0;0.0;0.0;-0.27425599098205566;2.803071975708008;1.3742079734802246;0.0;0.0;0.0
1329;-0.3181760013103485;2.8926198482513428;1.2365919351577759;-0.2781600058078766;2.8694398403167725;1.370303988456726;41.56687545776367;-49.00437545776367;-81.54562377929688
1331;0.0;0.0;0.0;-0.2235039919614792;2.8889598846435547;1.419103980064392;0.0;0.0;0.0
1334;0.0;0.0;0.0;-0.20398399233818054;2.9475200176239014;1.394703984260559;0.0;0.0;0.0
1336;0.0;0.0;0.0;-0.2235039919614792;3.0334079265594482;1.4474079608917236;0.0;0.0;0.0
1338;-0.3450160026550293;3.074399948120117;1.2775839567184448;-0.2117919921875;3.0568318367004395;1.4269119501113892;48.916873931884766;-47.114376068115234;-49.20562744140625
1340;0.0;0.0;0.0;-0.27035200595855713;3.088063955307007;1.460096001625061;0.0;0.0;0.0
1342;0.0;0.0;0.0;-0.33671998977661133;3.095871925354004;1.3986079692840576;0.0;0.0;0.0
1344;0.0;0.0;0.0;-0.3601439893245697;3.0646400451660156;1.4317920207977295;0.0;0.0;0.0
1346;-0.43017199635505676;3.2073800563812256;1.2841719388961792;-0.32891198992729187;3.091968059539795;1.3829920291900635;49.756874084472656;-60.55437469482422;-12.245624542236328
1349;0.0;0.0;0.0;-0.2937760055065155;3.025599956512451;1.370303988456726;0.0;0.0;0.0
1351;0.0;0.0;0.0;-0.29767999053001404;3.025599956512451;1.334191918373108;0.0;0.0;0.0
1353;0.0;0.0;0.0;-0.27425599098205566;3.006079912185669;1.3019839525222778;0.0;0.0;0.0
1355;-0.40943199396133423;3.148331880569458;1.2041399478912354;-0.22740799188613892;2.9436159133911133;1.2453759908676147;42.196876525878906;-87.43437957763672;23.454374313354492
1357;0.0;0.0;0.0;-0.2235039919614792;2.912384033203125;1.2287839651107788;0.0;0.0;0.0
1359;0.0;0.0;0.0;-0.24692799150943756;2.8850560188293457;1.1672959327697754;0.0;0.0;0.0
1361;0.0;0.0;0.0;-0.23521599173545837;2.8733439445495605;1.1516799926757812;0.0;0.0;0.0
1363;-0.35575199127197266;3.025843858718872;1.0384639501571655;-0.2508319914340973;2.806975841522217;1.0491999387741089;27.63687515258789;-105.84437561035156;54.25437545776367
1366;0.0;0.0;0.0;-0.2391199916601181;2.7601280212402344;0.9681919813156128;0.0;0.0;0.0
1368;0.0;0.0;0.0;-0.24692799150943756;2.7015678882598877;0.8910880088806152;0.0;0.0;0.0
1370;0.0;0.0;0.0;-0.2000799924135208;2.5766398906707764;0.7856799960136414;0.0;0.0;0.0
1372;-0.3428199887275696;2.805999994277954;0.7612800002098083;-0.1268799901008606;2.5024640560150146;0.7124800086021423;10.976875305175781;-121.94438171386719;85.75437927246094
1374;0.0;0.0;0.0;-0.037087999284267426;2.4165759086608887;0.6636799573898315;0.0;0.0;0.0
1376;0.0;0.0;0.0;-0.013663999736309052;2.330687999725342;0.5787680149078369;0.0;0.0;0.0
1378;0.0;0.0;0.0;0.01756799966096878;2.2291839122772217;0.5465599894523621;0.0;0.0;0.0
1380;-0.13981199264526367;2.4587879180908203;0.47921597957611084;0.05270399898290634;2.166719913482666;0.49775999784469604;-0.503125011920929;-121.59437561035156;113.75437927246094
1383;0.0;0.0;0.0;0.06831999868154526;2.05350399017334;0.41284799575805664;0.0;0.0;0.0
1385;0.0;0.0;0.0;0.13761599361896515;2.0105600357055664;0.3845439851284027;0.0;0.0;0.0
1387;0.0;0.0;0.0;0.11419199407100677;1.9402879476547241;0.3474559783935547;0.0;0.0;0.0
1389;-0.015859998762607574;2.138416051864624;0.280599981546402;0.13761599361896515;1.8465919494628906;0.35624000430107117;-7.503125190734863;-89.67437744140625;137.484375
1391;0.0;0.0;0.0;0.16884799301624298;1.7958400249481201;0.3601439893245697;0.0;0.0;0.0
1393;0.0;0.0;0.0;0.12199999392032623;1.702143907546997;0.35624000430107117;0.0;0.0;0.0
1395;0.0;0.0;0.0;0.11028799414634705;1.6240639686584473;0.3806400001049042;0.0;0.0;0.0
1397;0.00951599981635809;1.8258519172668457;0.2432679980993271;0.0331839993596077;1.4835200309753418;0.3962559998035431;-10.583125114440918;-36.96437454223633;158.6943817138672
1400;0.0;0.0;0.0;0.029279999434947968;1.370303988456726;0.4206559956073761;0.0;0.0;0.0
1402;0.0;0.0;0.0;-0.05270399898290634;1.2414720058441162;0.4333440065383911;0.0;0.0;0.0
1404;0.0;0.0;0.0;-0.09955199807882309;1.1126400232315063;0.4899519979953766;0.0;0.0;0.0
1406;-0.16299200057983398;1.3727439641952515;0.3337920010089874;-0.1268799901008606;1.0072319507598877;0.5182560086250305;-12.823124885559082;6.715624809265137;175.70437622070312
1408;0.0;0.0;0.0;-0.19227199256420135;0.8783999681472778;0.5426560044288635;0.0;0.0;0.0
1410;0.0;0.0;0.0;-0.18836799263954163;0.7807999849319458;0.5992639660835266;0.0;0.0;0.0
1412;0.0;0.0;0.0;-0.2664479911327362;0.636352002620697;0.6558719873428345;0.0;0.0;0.0
1414;-0.33086398243904114;0.8937720060348511;0.47384798526763916;-0.26254400610923767;0.5465599894523621;0.6646559834480286;-15.203125;19.035625457763672;186.34437561035156
1417;0.0;0.0;0.0;-0.2937760055065155;0.4567679762840271;0.700767993927002;0.0;0.0;0.0
1419;0.0;0.0;0.0;-0.30158400535583496;0.4021120071411133;0.700767993927002;0.0;0.0;0.0
1421;0.0;0.0;0.0;-0.3211039900779724;0.31622397899627686;0.7173599600791931;0.0;0.0;0.0
1423;-0.42626798152923584;0.5158159732818604;0.5655919909477234;-0.3328160047531128;0.20691199600696564;0.7173599600791931;-19.75312614440918;9.725625038146973;191.3143768310547
1425;0.0;0.0;0.0;-0.34062400460243225;0.14054399728775024;0.7417600154876709;0.0;0.0;0.0
1427;0.0;0.0;0.0;-0.36795198917388916;0.023423999547958374;0.7290719747543335;0.0;0.0;0.0
1429;0.0;0.0;0.0;-0.3903999924659729;-0.11711999773979187;0.732975959777832;0.0;0.0;0.0
1431;-0.4840959906578064;0.13517600297927856;0.5956040024757385;-0.3903999924659729;-0.27718400955200195;0.725167989730835;-26.333126068115234;-0.21437501907348633;194.744384765625
1434;0.0;0.0;0.0;-0.4294399917125702;-0.4177280068397522;0.7046719789505005;0.0;0.0;0.0
1436;0.0;0.0;0.0;-0.4294399917125702;-0.5934079885482788;0.7173599600791931;0.0;0.0;0.0
1438;0.0;0.0;0.0;-0.4333440065383911;-0.7183359861373901;0.7124800086021423;0.0;0.0;0.0
1440;-0.533627986907959;-0.4513999819755554;0.5895040035247803;-0.39820799231529236;-0.8862079977989197;0.7290719747543335;-33.47312545776367;0.2056249976158142;193.62437438964844
1442;0.0;0.0;0.0;-0.387472003698349;-1.0306559801101685;0.7046719789505005;0.0;0.0;0.0
1444;0.0;0.0;0.0;-0.42163199186325073;-1.1946239471435547;0.7124800086021423;0.0;0.0;0.0
1446;0.0;0.0;0.0;-0.4177280068397522;-1.3468799591064453;0.732975959777832;0.0;0.0;0.0
1448;-0.5428999662399292;-1.0562759637832642;0.5877959728240967;-0.42553597688674927;-1.4757119417190552;0.7290719747543335;-37.743125915527344;8.11562442779541;183.05438232421875
1451;0.0;0.0;0.0;-0.42163199186325073;-1.596735954284668;0.6929599642753601;0.0;0.0;0.0
1453;0.0;0.0;0.0;-0.36795198917388916;-1.7567999362945557;0.7046719789505005;0.0;0.0;0.0
1455;0.0;0.0;0.0;-0.35233598947525024;-1.87391996383667;0.6802719831466675;0.0;0.0;0.0
1457;-0.49361199140548706;-1.611132025718689;0.5692520141601562;-0.28596800565719604;-2.0339839458465576;0.659775972366333;-38.513126373291016;9.235625267028809;166.04437255859375
1459;0.0;0.0;0.0;-0.21569599211215973;-2.1901440620422363;0.6802719831466675;0.0;0.0;0.0
1461;0.0;0.0;0.0;-0.20398399233818054;-2.240895986557007;0.7173599600791931;0.0;0.0;0.0
1463;0.0;0.0;0.0;-0.14151999354362488;-2.244799852371216;0.7534719705581665;0.0;0.0;0.0
1465;-0.29694798588752747;-2.0991320610046387;0.59170001745224;-0.0058559998869895935;-2.5219838619232178;0.7612800002098083;-38.233123779296875;13.85562515258789;142.80438232421875
1468;0.0;0.0;0.0;0.0019519999623298645;-2.5649280548095703;0.798367977142334;0.0;0.0;0.0
1470;0.0;0.0;0.0;0.06441599875688553;-2.6625280380249023;0.798367977142334;0.0;0.0;0.0
1472;0.0;0.0;0.0;0.16494399309158325;-2.7718398571014404;0.8266719579696655;0.0;0.0;0.0
1474;-0.05514399707317352;-2.5307679176330566;0.6910079717636108;0.1571359932422638;-2.8850560188293457;0.8461920022964478;-45.583126068115234;48.225624084472656;114.31437683105469
1476;0.0;0.0;0.0;0.13761599361896515;-3.013887882232666;0.8666880130767822;0.0;0.0;0.0
1478;0.0;0.0;0.0;0.13761599361896515;-3.0646400451660156;0.9281759858131409;0.0;0.0;0.0
1480;0.0;0.0;0.0;0.08686399459838867;-3.0802559852600098;0.9808799624443054;0.0;0.0;0.0
1482;0.0029279999434947968;-2.9031119346618652;0.8010519742965698;0.07222399860620499;-3.1427199840545654;1.0296800136566162;-45.37312698364258;105.4856185913086;84.2143783569336
1485;0.0;0.0;0.0;0.04879999905824661;-3.1622400283813477;1.0862879753112793;0.0;0.0;0.0
1487;0.0;0.0;0.0;-0.029279999434947968;-3.181759834289551;1.1799839735031128;0.0;0.0;0.0
1489;0.0;0.0;0.0;-0.05660799890756607;-3.197376012802124;1.2531839609146118;0.0;0.0;0.0
1491;-0.14737600088119507;-3.0441439151763916;1.0523719787597656;-0.17665599286556244;-3.212991952896118;1.3263839483261108;-31.86312484741211;134.3956298828125;51.174373626708984
1493;0.0;0.0;0.0;-0.20398399233818054;-3.20908784866333;1.3986079692840576;0.0;0.0;0.0
1495;0.0;0.0;0.0;-0.27425599098205566;-3.2403199672698975;1.419103980064392;0.0;0.0;0.0
1497;0.0;0.0;0.0;-0.3054879903793335;-3.2442238330841064;1.4513119459152222;0.0;0.0;0.0
1499;-0.3828359842300415;-3.092211961746216;1.2778279781341553;-0.3093920052051544;-3.2403199672698975;1.4757119417190552;-14.993124961853027;114.515625;19.814374923706055
1502;0.0;0.0;0.0;-0.3054879903793335;-3.2481279373168945;1.5206079483032227;0.0;0.0;0.0
1504;0.0;0.0;0.0;-0.26254400610923767;-3.2207999229431152;1.5371999740600586;0.0;0.0;0.0
1506;0.0;0.0;0.0;-0.2235039919614792;-3.205183982849121;1.5167039632797241;0.0;0.0;0.0
1508;-0.38088399171829224;-3.0905039310455322;1.3764039278030396;-0.16884799301624298;-3.189568042755127;1.5001119375228882;-1.553125023841858;54.45562744140625;-10.915624618530273
1510;0.0;0.0;0.0;-0.15323199331760406;-3.1310079097747803;1.4639999866485596;0.0;0.0;0.0
1512;0.0;0.0;0.0;-0.10735999792814255;-3.103679895401001;1.4395999908447266;0.0;0.0;0.0
1514;0.0;0.0;0.0;-0.009759999811649323;-3.013887882232666;1.3585920333862305;0.0;0.0;0.0
1516;-0.20447199046611786;-2.9382479190826416;1.2897839546203613;0.029279999434947968;-2.9709439277648926;1.32150399684906;2.1568751335144043;0.27562499046325684;-42.90562438964844
1519;0.0;0.0;0.0;0.10345599800348282;-2.920192003250122;1.2658720016479492;0.0;0.0;0.0
1521;0.0;0.0;0.0;0.1454239934682846;-2.810879945755005;1.1838879585266113;0.0;0.0;0.0
1523;0.0;0.0;0.0;0.19227199256420135;-2.724992036819458;1.1302080154418945;0.0;0.0;0.0
1525;0.021715998649597168;-2.680340051651001;1.069208025932312;0.23521599173545837;-2.64300799369812;1.0657919645309448;-2.883124828338623;-21.84437370300293;-75.0356216430664
1527;0.0;0.0;0.0;0.22740799188613892;-2.5727360248565674;0.9808799624443054;0.0;0.0;0.0
1529;0.0;0.0;0.0;0.2391199916601181;-2.440000057220459;0.9320799708366394;0.0;0.0;0.0
1531;0.0;0.0;0.0;0.2508319914340973;-2.3853440284729004;0.8793759942054749;0.0;0.0;0.0
1533;0.10955599695444107;-2.3367879390716553;0.8173999786376953;0.2391199916601181;-2.3189759254455566;0.8383839726448059;-8.413125038146973;-20.514373779296875;-100.8656234741211
1536;0.0;0.0;0.0;0.27425599098205566;-2.240895986557007;0.7817760109901428;0.0;0.0;0.0
1538;0.0;0.0;0.0;0.2937760055065155;-2.1940479278564453;0.749567985534668;0.0;0.0;0.0
1540;0.0;0.0;0.0;0.34062400460243225;-2.1276800632476807;0.7212640047073364;0.0;0.0;0.0
1542;0.18251200020313263;-2.0381319522857666;0.636352002620697;0.38259199261665344;-2.0378880500793457;0.6929599642753601;-12.2631254196167;-7.7743754386901855;-121.16561889648438
1544;0.0;0.0;0.0;0.3903999924659729;-1.971519947052002;0.6929599642753601;0.0;0.0;0.0
1546;0.0;0.0;0.0;0.4021120071411133;-1.889535903930664;0.6890559792518616;0.0;0.0;0.0
1548;0.0;0.0;0.0;0.3903999924659729;-1.7802239656448364;0.659775972366333;0.0;0.0;0.0
1550;0.2744999825954437;-1.7399640083312988;0.5616880059242249;0.374783992767334;-1.7255679368972778;0.659775972366333;-15.413125038146973;19.595624923706055;-140.48562622070312
1553;0.0;0.0;0.0;0.3328160047531128;-1.647487998008728;0.659775972366333;0.0;0.0;0.0
1555;0.0;0.0;0.0;0.2391199916601181;-1.5108479261398315;0.708575963973999;0.0;0.0;0.0
1557;0.0;0.0;0.0;0.2664479911327362;-1.4796159267425537;0.684175968170166;0.0;0.0;0.0
1559;0.16274799406528473;-1.4012919664382935;0.5694959759712219;0.21959999203681946;-1.3429759740829468;0.7456640005111694;-16.813125610351562;55.29562759399414;-157.8456268310547
1561;0.0;0.0;0.0;0.20788799226284027;-1.2648959159851074;0.732975959777832;0.0;0.0;0.0
1563;0.0;0.0;0.0;0.14932799339294434;-1.182911992073059;0.7700639963150024;0.0;0.0;0.0
1565;0.0;0.0;0.0;0.13371199369430542;-1.0696959495544434;0.8139839768409729;0.0;0.0;0.0
1567;0.04294399917125702;-1.0477359294891357;0.659775972366333;0.10638399422168732;-0.9838079810142517;0.871567964553833;-13.733125686645508;83.22562408447266;-171.49562072753906
1570;0.0;0.0;0.0;0.0605119988322258;-0.8979200124740601;0.8832799792289734;0.0;0.0;0.0
1572;0.0;0.0;0.0;0.04879999905824661;-0.7690879702568054;0.9320799708366394;0.0;0.0;0.0
1574;0.0;0.0;0.0;0.02147199958562851;-0.6519680023193359;0.9603840112686157;0.0;0.0;0.0
1576;-0.0802759975194931;-0.6380599737167358;0.7978799939155579;-0.013663999736309052;-0.569983959197998;0.9681919813156128;-7.57312536239624;96.10562133789062;-179.54562377929688
1578;0.0;0.0;0.0;-0.0331839993596077;-0.42553597688674927;0.9720959663391113;0.0;0.0;0.0
1580;0.0;0.0;0.0;-0.0878399983048439;-0.3513599932193756;1.0052800178527832;0.0;0.0;0.0
1582;0.0;0.0;0.0;-0.09174399822950363;-0.27327999472618103;1.0296800136566162;0.0;0.0;0.0
1584;-0.1995919942855835;-0.22472399473190308;0.8893799781799316;-0.09564799815416336;-0.19910399615764618;1.0862879753112793;2.926875114440918;92.39562225341797;-181.0856170654297
1587;0.0;0.0;0.0;-0.14640000462532043;-0.11321599781513214;1.0784800052642822;0.0;0.0;0.0
1589;0.0;0.0;0.0;-0.2117919921875;-0.08588799834251404;1.0901919603347778;0.0;0.0;0.0
1591;0.0;0.0;0.0;-0.16494399309158325;0.015615999698638916;1.1106879711151123;0.0;0.0;0.0
1593;-0.2874319851398468;0.07320000231266022;0.9720959663391113;-0.16494399309158325;0.08198399841785431;1.1633919477462769;16.08687400817871;78.39562225341797;-178.42562866210938
1595;0.0;0.0;0.0;-0.14151999354362488;0.19129599630832672;1.1712000370025635;0.0;0.0;0.0
1597;0.0;0.0;0.0;-0.1454239934682846;0.2967039942741394;1.2248799800872803;0.0;0.0;0.0
1599;0.0;0.0;0.0;-0.115167997777462;0.3474559783935547;1.1760799884796143;0.0;0.0;0.0
1601;-0.2630319893360138;0.41284799575805664;1.0538359880447388;-0.14932799339294434;0.48799997568130493;1.2043839693069458;25.396875381469727;67.68562316894531;-176.3956298828125
1604;0.0;0.0;0.0;-0.12297599762678146;0.5973119735717773;1.2404959201812744;0.0;0.0;0.0
1606;0.0;0.0;0.0;-0.10735999792814255;0.6949119567871094;1.2326879501342773;0.0;0.0;0.0
1608;0.0;0.0;0.0;-0.1454239934682846;0.8588799834251404;1.2980799674987793;0.0;0.0;0.0
1610;-0.24253599345684052;0.852292001247406;1.12801194190979;-0.16103999316692352;1.0072319507598877;1.3058879375457764;31.766876220703125;67.6156234741211;-172.755615234375
1612;0.0;0.0;0.0;-0.19227199256420135;1.1516799926757812;1.28929603099823;0.0;0.0;0.0
1614;0.0;0.0;0.0;-0.18836799263954163;1.3390719890594482;1.362496018409729;0.0;0.0;0.0
1616;0.0;0.0;0.0;-0.19227199256420135;1.3585920333862305;1.32150399684906;0.0;0.0;0.0
1618;-0.3025600016117096;1.362007975578308;1.1858400106430054;-0.17665599286556244;1.2961280345916748;1.3254079818725586;36.45687484741211;67.82562255859375;-161.765625
1621;0.0;0.0;0.0;-0.20398399233818054;1.6162559986114502;1.443503975868225;0.0;0.0;0.0
1623;0.0;0.0;0.0;-0.0878399983048439;1.6591999530792236;1.4230079650878906;0.0;0.0;0.0
1625;0.0;0.0;0.0;-0.21959999203681946;1.8114559650421143;1.4923039674758911;0.0;0.0;0.0
1627;-0.3001199960708618;1.8129199743270874;1.3232120275497437;-0.28596800565719604;1.9129599332809448;1.5001119375228882;44.99687576293945;67.54562377929688;-146.99562072753906
1629;0.0;0.0;0.0;-0.33671998977661133;2.0066559314727783;1.5245119333267212;0.0;0.0;0.0
1631;0.0;0.0;0.0;-0.3172000050544739;2.2330880165100098;1.6055200099945068;0.0;0.0;0.0
1633;0.0;0.0;0.0;-0.3093920052051544;2.330687999725342;1.6094239950180054;0.0;0.0;0.0
1635;-0.4438360035419464;2.3026280403137207;1.4369159936904907;-0.37966400384902954;2.3736319541931152;1.6260160207748413;48.986873626708984;59.145626068115234;-124.94562530517578
1638;0.0;0.0;0.0;-0.35233598947525024;2.4868478775024414;1.6914079189300537;0.0;0.0;0.0
1640;0.0;0.0;0.0;-0.3445279896259308;2.5688319206237793;1.7070239782333374;0.0;0.0;0.0
1642;0.0;0.0;0.0;-0.34062400460243225;2.6820478439331055;1.6992160081863403;0.0;0.0;0.0
1644;-0.4753119945526123;2.708888053894043;1.5547679662704468;-0.3484320044517517;2.7718398571014404;1.7275199890136719;46.676876068115234;38.075626373291016;-96.94562530517578
1646;0.0;0.0;0.0;-0.3445279896259308;2.7718398571014404;1.7314239740371704;0.0;0.0;0.0
1648;0.0;0.0;0.0;-0.31329599022865295;2.9592318534851074;1.7968159914016724;0.0;0.0;0.0
1650;0.0;0.0;0.0;-0.36795198917388916;3.00217604637146;1.7314239740371704;0.0;0.0;0.0
1653;-0.4699440002441406;3.041703939437866;1.600395917892456;-0.3835679888725281;3.0373120307922363;1.7480159997940063;38.27687454223633;14.975625038146973;-64.67562103271484
1655;0.0;0.0;0.0;-0.4060159921646118;3.1739518642425537;1.7314239740371704;0.0;0.0;0.0
1657;0.0;0.0;0.0;-0.3484320044517517;3.1427199840545654;1.7392319440841675;0.0;0.0;0.0
1659;0.0;0.0;0.0;-0.387472003698349;3.1466238498687744;1.6953120231628418;0.0;0.0;0.0
1661;-0.4950760006904602;3.2896080017089844;1.5913679599761963;-0.3601439893245697;3.212991952896118;1.7158079147338867;25.88687515258789;-6.934375286102295;-27.925626754760742
1663;0.0;0.0;0.0;-0.35233598947525024;3.189568042755127;1.6543200016021729;0.0;0.0;0.0
1665;0.0;0.0;0.0;-0.32891198992729187;3.1739518642425537;1.6143039464950562;0.0;0.0;0.0
1667;0.0;0.0;0.0;-0.3484320044517517;3.2207999229431152;1.6055200099945068;0.0;0.0;0.0
1670;-0.4643319845199585;3.335723876953125;1.4940119981765747;-0.3172000050544739;3.177855968475342;1.5694079399108887;11.606874465942383;-29.68437385559082;9.244375228881836
1672;0.0;0.0;0.0;-0.3172000050544739;3.1622400283813477;1.5371999740600586;0.0;0.0;0.0
1674;0.0;0.0;0.0;-0.2937760055065155;3.1544318199157715;1.53329598903656;0.0;0.0;0.0
1676;0.0;0.0;0.0;-0.2781600058078766;3.1310079097747803;1.4757119417190552;0.0;0.0;0.0
1678;-0.4218759834766388;3.2717959880828857;1.3795759677886963;-0.3093920052051544;3.0724480152130127;1.4474079608917236;0.8968750238418579;-46.274375915527344;42.84437561035156
1680;0.0;0.0;0.0;-0.32500800490379333;3.0568318367004395;1.4025119543075562;0.0;0.0;0.0
1682;0.0;0.0;0.0;-0.32891198992729187;2.9826560020446777;1.370303988456726;0.0;0.0;0.0
1684;0.0;0.0;0.0;-0.2664479911327362;2.8928639888763428;1.313696026802063;0.0;0.0;0.0
1686;-0.4257799983024597;3.0929439067840576;1.2231719493865967;-0.27035200595855713;2.818687915802002;1.2688000202178955;-8.693124771118164;-53.694374084472656;76.65438079833984
1689;0.0;0.0;0.0;-0.3445279896259308;2.803071975708008;1.2444000244140625;0.0;0.0;0.0
1691;0.0;0.0;0.0;-0.2508319914340973;2.631295919418335;1.2453759908676147;0.0;0.0;0.0
1693;0.0;0.0;0.0;-0.22740799188613892;2.654719829559326;1.2775839567184448;0.0;0.0;0.0
1695;-0.38381198048591614;2.8130760192871094;1.126304030418396;-0.30158400535583496;2.5141758918762207;1.1965759992599487;-11.633125305175781;-51.66437530517578;108.3643798828125
1697;0.0;0.0;0.0;-0.4021120071411133;2.3970558643341064;1.122399926185608;0.0;0.0;0.0
1699;0.0;0.0;0.0;-0.3328160047531128;2.342400074005127;1.1311839818954468;0.0;0.0;0.0
1701;0.0;0.0;0.0;-0.31329599022865295;2.18233585357666;1.1106879711151123;0.0;0.0;0.0
1704;-0.4579879939556122;2.419991970062256;0.9850279688835144;-0.33671998977661133;2.0261759757995605;1.0696959495544434;-11.563125610351562;-44.31437301635742;139.37437438964844
1706;0.0;0.0;0.0;-0.36795198917388916;1.9090559482574463;1.0335839986801147;0.0;0.0;0.0
1708;0.0;0.0;0.0;-0.3445279896259308;1.7958400249481201;1.073599934577942;0.0;0.0;0.0
1710;0.0;0.0;0.0;-0.4333440065383911;1.647487998008728;1.0657919645309448;0.0;0.0;0.0
1712;-0.49605199694633484;1.914423942565918;0.9252479672431946;-0.4294399917125702;1.5615999698638916;1.0257760286331177;-1.3431249856948853;-40.954376220703125;164.92437744140625
1714;0.0;0.0;0.0;-0.42163199186325073;1.4405759572982788;1.0208959579467773;0.0;0.0;0.0
1716;0.0;0.0;0.0;-0.40991997718811035;1.3390719890594482;1.0052800178527832;0.0;0.0;0.0
1718;0.0;0.0;0.0;-0.4060159921646118;1.2570879459381104;0.9964959621429443;0.0;0.0;0.0
1721;-0.525331974029541;1.4805920124053955;0.8898679614067078;-0.4138239920139313;1.1672959327697754;1.0013760328292847;9.226875305175781;-44.944374084472656;182.9143829345703
1723;0.0;0.0;0.0;-0.3903999924659729;1.0970239639282227;0.9808799624443054;0.0;0.0;0.0
1725;0.0;0.0;0.0;-0.39137598872184753;1.02675199508667;0.9886879920959473;0.0;0.0;0.0
1727;0.0;0.0;0.0;-0.3757599890232086;0.9018239974975586;0.9437919855117798;0.0;0.0;0.0
1729;-0.506056010723114;1.136795997619629;0.8466799855232239;-0.4138239920139313;0.8120319843292236;0.9681919813156128;16.716875076293945;-46.55437469482422;196.5643768310547
1731;0.0;0.0;0.0;-0.37966400384902954;0.6871039867401123;0.9603840112686157;0.0;0.0;0.0
1733;0.0;0.0;0.0;-0.4021120071411133;0.6129279732704163;0.9193919897079468;0.0;0.0;0.0
1735;0.0;0.0;0.0;-0.3601439893245697;0.5504639744758606;0.9437919855117798;0.0;0.0;0.0
1738;-0.5104479789733887;0.7559120059013367;0.8220359683036804;-0.4138239920139313;0.4567679762840271;0.9437919855117798;19.096874237060547;-47.46437454223633;205.0343780517578
1740;0.0;0.0;0.0;-0.4177280068397522;0.35916799306869507;0.9242720007896423;0.0;0.0;0.0
1742;0.0;0.0;0.0;-0.39137598872184753;0.2810879945755005;0.9193919897079468;0.0;0.0;0.0
1744;0.0;0.0;0.0;-0.42163199186325073;0.17958399653434753;0.9154880046844482;0.0;0.0;0.0
1746;-0.5121560096740723;0.4135800004005432;0.7871440052986145;-0.3835679888725281;0.10931199789047241;0.8793759942054749;14.406874656677246;-49.84437561035156;209.58438110351562
1748;0.0;0.0;0.0;-0.42163199186325073;0.027327999472618103;0.8832799792289734;0.0;0.0;0.0
1750;0.0;0.0;0.0;-0.39528000354766846;-0.08979199826717377;0.8705919981002808;0.0;0.0;0.0
1752;0.0;0.0;0.0;-0.4294399917125702;-0.19129599630832672;0.8832799792289734;0.0;0.0;0.0
1755;-0.5250880122184753;0.039772000163793564;0.7468839883804321;-0.4021120071411133;-0.33183997869491577;0.8588799834251404;5.726874828338623;-48.09437561035156;211.4043731689453
1757;0.0;0.0;0.0;-0.4177280068397522;-0.3903999924659729;0.9115839600563049;0.0;0.0;0.0
1759;0.0;0.0;0.0;-0.4177280068397522;-0.4684799909591675;0.8666880130767822;0.0;0.0;0.0
1761;0.0;0.0;0.0;-0.4567679762840271;-0.6051200032234192;0.8666880130767822;0.0;0.0;0.0
1763;-0.5658360123634338;-0.36917200684547424;0.742247998714447;-0.4997119903564453;-0.7261439561843872;0.8627839684486389;-5.403125286102295;-40.81437301635742;209.8643798828125
1765;0.0;0.0;0.0;-0.5504639744758606;-0.8901119828224182;0.84716796875;0.0;0.0;0.0
1767;0.0;0.0;0.0;-0.5777919888496399;-1.0384639501571655;0.8383839726448059;0.0;0.0;0.0
1769;0.0;0.0;0.0;-0.6012159585952759;-1.221951961517334;0.8139839768409729;0.0;0.0;0.0
1772;-0.6756359934806824;-0.9225639700889587;0.6995480060577393;-0.5660799741744995;-1.417151927947998;0.8022719621658325;-18.213125228881836;-39.274375915527344;205.244384765625
1774;0.0;0.0;0.0;-0.5895040035247803;-1.5303679704666138;0.7817760109901428;0.0;0.0;0.0
1776;0.0;0.0;0.0;-0.6207360029220581;-1.702143907546997;0.7368800044059753;0.0;0.0;0.0
1778;0.0;0.0;0.0;-0.5153279900550842;-1.9363839626312256;0.7456640005111694;0.0;0.0;0.0
1780;-0.6822239756584167;-1.5823400020599365;0.6407439708709717;-0.460671991109848;-2.0495998859405518;0.757375955581665;-29.13312530517578;-44.80437469482422;194.95437622070312
1782;0.0;0.0;0.0;-0.4030880033969879;-2.1979520320892334;0.773967981338501;0.0;0.0;0.0
1784;0.0;0.0;0.0;-0.32500800490379333;-2.3189759254455566;0.7817760109901428;0.0;0.0;0.0
1786;0.0;0.0;0.0;-0.2508319914340973;-2.459519863128662;0.7934879660606384;0.0;0.0;0.0
1789;-0.4409079849720001;-2.1977078914642334;0.643671989440918;-0.2117919921875;-2.627392053604126;0.757375955581665;-42.573123931884766;-33.114376068115234;174.58438110351562
1791;0.0;0.0;0.0;-0.1454239934682846;-2.7835519313812256;0.8022719621658325;0.0;0.0;0.0
1793;0.0;0.0;0.0;-0.11126399785280228;-2.8850560188293457;0.8061760067939758;0.0;0.0;0.0
1795;0.0;0.0;0.0;-0.037087999284267426;-3.025599956512451;0.8754720091819763;0.0;0.0;0.0
1797;-0.2235039919614792;-2.7640318870544434;0.7188239693641663;-0.05270399898290634;-3.1466238498687744;0.9232959747314453;-59.4431266784668;9.725625038146973;145.1143798828125
1799;0.0;0.0;0.0;-0.0331839993596077;-3.287168025970459;0.9642879962921143;0.0;0.0;0.0
1801;0.0;0.0;0.0;-0.05660799890756607;-3.4306399822235107;1.0169919729232788;0.0;0.0;0.0
1803;0.0;0.0;0.0;-0.0878399983048439;-3.543855905532837;1.0823839902877808;0.0;0.0;0.0
1806;-0.1954440027475357;-3.275212049484253;0.9006040096282959;-0.11126399785280228;-3.649263858795166;1.1272799968719482;-71.27312469482422;62.36562728881836;108.08438110351562
1808;0.0;0.0;0.0;-0.14932799339294434;-3.723439931869507;1.2004799842834473;0.0;0.0;0.0
1810;0.0;0.0;0.0;-0.2000799924135208;-3.7819998264312744;1.2609919309616089;0.0;0.0;0.0
1812;0.0;0.0;0.0;-0.25863999128341675;-3.832751989364624;1.3176000118255615;0.0;0.0;0.0
1814;-0.34696799516677856;-3.637795925140381;1.1236200332641602;-0.3172000050544739;-3.8717918395996094;1.3546879291534424;-72.88312530517578;85.04562377929688;64.68437957763672
1816;0.0;0.0;0.0;-0.3835679888725281;-3.9069278240203857;1.370303988456726;0.0;0.0;0.0
1818;0.0;0.0;0.0;-0.39820799231529236;-3.8913118839263916;1.3498079776763916;0.0;0.0;0.0
1820;0.0;0.0;0.0;-0.42163199186325073;-3.8874080181121826;1.345903992652893;0.0;0.0;0.0
1823;-0.5141080021858215;-3.751744031906128;1.2090200185775757;-0.39528000354766846;-3.8600800037384033;1.334191918373108;-62.52312469482422;51.165626525878906;20.234375
1825;0.0;0.0;0.0;-0.39137598872184753;-3.7898080348968506;1.2932000160217285;0.0;0.0;0.0
1827;0.0;0.0;0.0;-0.33671998977661133;-3.727344036102295;1.2248799800872803;0.0;0.0;0.0
1829;0.0;0.0;0.0;-0.2508319914340973;-3.629743814468384;1.1428959369659424;0.0;0.0;0.0
1831;-0.44603198766708374;-3.5606918334960938;1.0845799446105957;-0.20788799226284027;-3.5009119510650635;1.0696959495544434;-42.43312454223633;-24.014373779296875;-21.415626525878906
1833;0.0;0.0;0.0;-0.15323199331760406;-3.396479845046997;0.9720959663391113;0.0;0.0;0.0
1835;0.0;0.0;0.0;-0.08003199845552444;-3.2637438774108887;0.8754720091819763;0.0;0.0;0.0
1837;0.0;0.0;0.0;-0.0019519999623298645;-3.1349120140075684;0.7778719663619995;0.0;0.0;0.0
1840;-0.18129199743270874;-3.1127078533172607;0.7646960020065308;0.11028799414634705;-3.009984016418457;0.700767993927002;-24.513124465942383;-82.18437957763672;-57.81562423706055
1842;0.0;0.0;0.0;0.1727519929409027;-2.927999973297119;0.5992639660835266;0.0;0.0;0.0
1844;0.0;0.0;0.0;0.23131199181079865;-2.810879945755005;0.4577440023422241;0.0;0.0;0.0
1846;0.0;0.0;0.0;0.30158400535583496;-2.6742398738861084;0.3757599890232086;0.0;0.0;0.0
1848;0.10369999706745148;-2.6539878845214844;0.36844000220298767;0.3172000050544739;-2.5883519649505615;0.2791360020637512;-11.423125267028809;-94.7143783569336;-89.87562561035156
1850;0.0;0.0;0.0;0.38649600744247437;-2.4165759086608887;0.20983999967575073;0.0;0.0;0.0
1852;0.0;0.0;0.0;0.42553597688674927;-2.2877440452575684;0.1210239976644516;0.0;0.0;0.0
1854;0.0;0.0;0.0;0.43724799156188965;-2.158911943435669;0.05953599885106087;0.0;0.0;0.0
1857;0.2808440029621124;-2.15012788772583;0.027327999472618103;0.4294399917125702;-2.057407855987549;-0.00878399983048439;2.7168750762939453;-70.35437774658203;-115.42562103271484
1859;0.0;0.0;0.0;0.5036159753799438;-1.8973439931869507;-0.01756799966096878;0.0;0.0;0.0
1861;0.0;0.0;0.0;0.5075199604034424;-1.7411839962005615;-0.02537599951028824;0.0;0.0;0.0
1863;0.0;0.0;0.0;0.5504639744758606;-1.6240639686584473;-0.0009759999811649323;0.0;0.0;0.0
1865;0.40284398198127747;-1.6072279214859009;-0.11101999878883362;0.5504639744758606;-1.4874240159988403;0.023423999547958374;18.536874771118164;-14.214375495910645;-134.60562133789062
1867;0.0;0.0;0.0;0.5816959738731384;-1.3468799591064453;0.09662400186061859;0.0;0.0;0.0
1869;0.0;0.0;0.0;0.5426560044288635;-1.2258559465408325;0.12492799758911133;0.0;0.0;0.0
1871;0.0;0.0;0.0;0.5231360197067261;-1.1594879627227783;0.19324800372123718;0.0;0.0;0.0
1874;0.41211599111557007;-1.1128839254379272;0.032207999378442764;0.4294399917125702;-1.034559965133667;0.2869440019130707;27.496875762939453;68.59561920166016;-147.1356201171875
1876;0.0;0.0;0.0;0.38649600744247437;-0.944767951965332;0.3640480041503906;0.0;0.0;0.0
1878;0.0;0.0;0.0;0.25863999128341675;-0.8549759984016418;0.4655520021915436;0.0;0.0;0.0
1880;0.0;0.0;0.0;0.19617599248886108;-0.7807999849319458;0.5504639744758606;0.0;0.0;0.0
1882;0.16128399968147278;-0.7390759587287903;0.33183997869491577;0.1454239934682846;-0.733951985836029;0.6197599768638611;30.576875686645508;145.45562744140625;-154.69561767578125
1884;0.0;0.0;0.0;0.07905599474906921;-0.6988160014152527;0.7212640047073364;0.0;0.0;0.0
1886;0.0;0.0;0.0;-0.013663999736309052;-0.6792960166931152;0.8383839726448059;0.0;0.0;0.0
1889;0.0;0.0;0.0;-0.05660799890756607;-0.5816959738731384;0.9359839558601379;0.0;0.0;0.0
1891;-0.11297199875116348;-0.5067880153656006;0.7012559771537781;-0.11907199770212173;-0.5465599894523621;1.0413919687271118;34.21687316894531;182.27561950683594;-158.9656219482422
1893;0.0;0.0;0.0;-0.1844639927148819;-0.48019200563430786;1.1184959411621094;0.0;0.0;0.0
1895;0.0;0.0;0.0;-0.20788799226284027;-0.4411519765853882;1.2209759950637817;0.0;0.0;0.0
1897;0.0;0.0;0.0;-0.27425599098205566;-0.35916799306869507;1.2980799674987793;0.0;0.0;0.0
1899;-0.33550000190734863;-0.2810879945755005;1.0828720331192017;-0.30158400535583496;-0.30060797929763794;1.3781119585037231;34.2868766784668;183.04562377929688;-162.8156280517578
1901;0.0;0.0;0.0;-0.3328160047531128;-0.22252799570560455;1.4639999866485596;0.0;0.0;0.0
1903;0.0;0.0;0.0;-0.374783992767334;-0.15225599706172943;1.5167039632797241;0.0;0.0;0.0
1906;0.0;0.0;0.0;-0.3757599890232086;-0.07807999849319458;1.5733119249343872;0.0;0.0;0.0
1908;-0.4836079776287079;-0.02757199853658676;1.3639600276947021;-0.4294399917125702;-0.03903999924659729;1.5899039506912231;29.1768741607666;159.87562561035156;-166.24562072753906
1910;0.0;0.0;0.0;-0.4450559914112091;0.003903999924659729;1.6260160207748413;0.0;0.0;0.0
1912;0.0;0.0;0.0;-0.4567679762840271;0.07027199864387512;1.6709120273590088;0.0;0.0;0.0
1914;0.0;0.0;0.0;-0.44896000623703003;0.13663999736309052;1.6953120231628418;0.0;0.0;0.0
1916;-0.5604680180549622;0.21203599870204926;1.5325639247894287;-0.45286399126052856;0.19129599630832672;1.7392319440841675;24.346874237060547;122.56562042236328;-166.45562744140625
1918;0.0;0.0;0.0;-0.44896000623703003;0.24985599517822266;1.7558239698410034;0.0;0.0;0.0
1920;0.0;0.0;0.0;-0.45286399126052856;0.3396480083465576;1.7392319440841675;0.0;0.0;0.0
1923;0.0;0.0;0.0;-0.47628799080848694;0.40991997718811035;1.759727954864502;0.0;0.0;0.0
1925;-0.5892599821090698;0.4714079797267914;1.6052759885787964;-0.47628799080848694;0.4411519765853882;1.735327959060669;19.936874389648438;80.9856185913086;-161.69561767578125
1927;0.0;0.0;0.0;-0.44896000623703003;0.49190399050712585;1.7480159997940063;0.0;0.0;0.0
1929;0.0;0.0;0.0;-0.46457600593566895;0.5543680191040039;1.7275199890136719;0.0;0.0;0.0
1931;0.0;0.0;0.0;-0.45286399126052856;0.5504639744758606;1.6992160081863403;0.0;0.0;0.0
1933;-0.5736439824104309;0.6527000069618225;1.5711159706115723;-0.4333440065383911;0.5348479747772217;1.6631039381027222;15.106874465942383;40.10562515258789;-151.9656219482422
1935;0.0;0.0;0.0;-0.3835679888725281;0.5973119735717773;1.6338239908218384;0.0;0.0;0.0
1937;0.0;0.0;0.0;-0.35624000430107117;0.6129279732704163;1.5489119291305542;0.0;0.0;0.0
1940;0.0;0.0;0.0;-0.34062400460243225;0.6832000017166138;1.5772159099578857;0.0;0.0;0.0
1942;-0.4836079776287079;0.7729920148849487;1.4566799402236938;-0.2664479911327362;0.6910079717636108;1.4962079524993896;10.626874923706055;8.745624542236328;-141.67562866210938
1944;0.0;0.0;0.0;-0.2664479911327362;0.7378559708595276;1.4513119459152222;0.0;0.0;0.0
1946;0.0;0.0;0.0;-0.27035200595855713;0.7964159846305847;1.4395999908447266;0.0;0.0;0.0
1948;0.0;0.0;0.0;-0.20788799226284027;0.823743999004364;1.3742079734802246;0.0;0.0;0.0
1950;-0.3672199845314026;0.9159759879112244;1.3005199432373047;-0.2000799924135208;0.8666880130767822;1.3664000034332275;8.526874542236328;-4.204375267028809;-132.15562438964844
1952;0.0;0.0;0.0;-0.17763200402259827;0.8823039531707764;1.338096022605896;0.0;0.0;0.0
1954;0.0;0.0;0.0;-0.21569599211215973;0.944767951965332;1.285391926765442;0.0;0.0;0.0
1957;0.0;0.0;0.0;-0.19227199256420135;0.9252479672431946;1.3019839525222778;0.0;0.0;0.0
1959;-0.3257399797439575;1.0404160022735596;1.1807159185409546;-0.1454239934682846;0.9252479672431946;1.2570879459381104;11.676875114440918;-2.734375;-119.27561950683594
1961;0.0;0.0;0.0;-0.13859200477600098;0.9525759816169739;1.2658720016479492;0.0;0.0;0.0
1963;0.0;0.0;0.0;-0.1268799901008606;0.9955199956893921;1.2609919309616089;0.0;0.0;0.0
1965;0.0;0.0;0.0;-0.13468798995018005;1.0033279657363892;1.2404959201812744;0.0;0.0;0.0
1967;-0.2564440071582794;1.1231319904327393;1.1267919540405273;-0.14640000462532043;1.0501760244369507;1.2531839609146118;20.286874771118164;5.455625057220459;-107.23562622070312
1969;0.0;0.0;0.0;-0.15323199331760406;1.1204479932785034;1.2775839567184448;0.0;0.0;0.0
1971;0.0;0.0;0.0;-0.09955199807882309;1.1633919477462769;1.2531839609146118;0.0;0.0;0.0
1974;0.0;0.0;0.0;-0.1268799901008606;1.2922239303588867;1.313696026802063;0.0;0.0;0.0
1976;-0.26962000131607056;1.3280919790267944;1.1526559591293335;-0.15323199331760406;1.2883199453353882;1.2814879417419434;32.81687545776367;14.415624618530273;-93.65562438964844
1978;0.0;0.0;0.0;-0.15030398964881897;1.3781119585037231;1.345903992652893;0.0;0.0;0.0
1980;0.0;0.0;0.0;-0.1268799901008606;1.4366719722747803;1.4151999950408936;0.0;0.0;0.0
1982;0.0;0.0;0.0;-0.09174399822950363;1.51475191116333;1.4513119459152222;0.0;0.0;0.0
1984;-0.24692799150943756;1.5752639770507812;1.2639199495315552;-0.14932799339294434;1.588927984237671;1.4923039674758911;44.926876068115234;22.325626373291016;-77.06562042236328
1986;0.0;0.0;0.0;-0.19617599248886108;1.655295968055725;1.5284159183502197;0.0;0.0;0.0
1988;0.0;0.0;0.0;-0.2235039919614792;1.6787199974060059;1.5772159099578857;0.0;0.0;0.0
1991;0.0;0.0;0.0;-0.15811198949813843;1.74508798122406;1.6299200057983398;0.0;0.0;0.0
1993;-0.30743998289108276;1.8112119436264038;1.4395999908447266;-0.18055999279022217;1.7567999362945557;1.6465119123458862;47.166873931884766;30.165626525878906;-58.79562759399414
1995;0.0;0.0;0.0;-0.22740799188613892;1.784127950668335;1.6992160081863403;0.0;0.0;0.0
1997;0.0;0.0;0.0;-0.33671998977661133;1.8856319189071655;1.7314239740371704;0.0;0.0;0.0
1999;0.0;0.0;0.0;-0.32500800490379333;1.9207680225372314;1.7158079147338867;0.0;0.0;0.0
2001;-0.42041200399398804;2.0093400478363037;1.5691639184951782;-0.3445279896259308;1.9910399913787842;1.7392319440841675;44.926876068115234;21.69562530517578;-39.61562728881836
2003;0.0;0.0;0.0;-0.4021120071411133;2.084735870361328;1.7519199848175049;0.0;0.0;0.0
2006;0.0;0.0;0.0;-0.39528000354766846;2.147199869155884;1.7636319398880005;0.0;0.0;0.0
2008;0.0;0.0;0.0;-0.36795198917388916;2.1979520320892334;1.767535924911499;0.0;0.0;0.0
2010;-0.5016639828681946;2.281156063079834;1.6262599229812622;-0.38649600744247437;2.3072638511657715;1.7802239656448364;43.106876373291016;-11.344375610351562;-17.075626373291016
2012;0.0;0.0;0.0;-0.3484320044517517;2.3775360584259033;1.7558239698410034;0.0;0.0;0.0
2014;0.0;0.0;0.0;-0.3601439893245697;2.4165759086608887;1.776319980621338;0.0;0.0;0.0
2016;0.0;0.0;0.0;-0.33671998977661133;2.459519863128662;1.759727954864502;0.0;0.0;0.0
2018;-0.4870239794254303;2.5405280590057373;1.6191840171813965;-0.3484320044517517;2.4829440116882324;1.7275199890136719;35.61687469482422;-52.15437316894531;12.254375457763672
2020;0.0;0.0;0.0;-0.3328160047531128;2.5063679218292236;1.7158079147338867;0.0;0.0;0.0
2022;0.0;0.0;0.0;-0.31329599022865295;2.5102720260620117;1.6670079231262207;0.0;0.0;0.0
2025;0.0;0.0;0.0;-0.3054879903793335;2.4868478775024414;1.5938079357147217;0.0;0.0;0.0
2027;-0.44432398676872253;2.61958384513855;1.5228040218353271;-0.35233598947525024;2.459519863128662;1.5450079441070557;18.326875686645508;-83.234375;43.12437438964844
2029;0.0;0.0;0.0;-0.34062400460243225;2.440000057220459;1.4552159309387207;0.0;0.0;0.0
2031;0.0;0.0;0.0;-0.31329599022865295;2.4243838787078857;1.362496018409729;0.0;0.0;0.0
2033;0.0;0.0;0.0;-0.2820639908313751;2.358016014099121;1.2814879417419434;0.0;0.0;0.0
2035;-0.42504799365997314;2.5480918884277344;1.2402520179748535;-0.2508319914340973;2.365823984146118;1.2004799842834473;1.106874942779541;-106.19438171386719;70.42437744140625
2038;0.0;0.0;0.0;-0.21569599211215973;2.369727849960327;1.122399926185608;0.0;0.0;0.0
2039;0.0;0.0;0.0;-0.2117919921875;2.36191987991333;1.0862879753112793;0.0;0.0;0.0
2042;0.0;0.0;0.0;-0.19617599248886108;2.358016014099121;1.0130879878997803;0.0;0.0;0.0
2044;-0.34599199891090393;2.484652042388916;0.9501360058784485;-0.2235039919614792;2.3189759254455566;0.9642879962921143;-4.773125171661377;-121.31437683105469;95.55437469482422
2046;0.0;0.0;0.0;-0.19227199256420135;2.3033599853515625;0.9320799708366394;0.0;0.0;0.0
2048;0.0;0.0;0.0;-0.19227199256420135;2.2252800464630127;0.8510719537734985;0.0;0.0;0.0
2050;0.0;0.0;0.0;-0.1844639927148819;2.2096638679504395;0.798367977142334;0.0;0.0;0.0
2052;-0.3096359968185425;2.3755838871002197;0.7356599569320679;-0.16494399309158325;2.1315839290618896;0.7651839852333069;-7.433125019073486;-122.3643798828125;123.97438049316406
2054;0.0;0.0;0.0;-0.16884799301624298;2.069119930267334;0.7134559750556946;0.0;0.0;0.0
2056;0.0;0.0;0.0;-0.15323199331760406;1.971519947052002;0.676367998123169;0.0;0.0;0.0
2059;0.0;0.0;0.0;-0.09564799815416336;1.9129599332809448;0.6724640130996704;0.0;0.0;0.0
2061;-0.2483920007944107;2.106207847595215;0.5672999620437622;-0.10735999792814255;1.7685120105743408;0.6314719915390015;-10.723125457763672;-108.0143814086914;152.1843719482422
2063;0.0;0.0;0.0;-0.09564799815416336;1.6787199974060059;0.5992639660835266;0.0;0.0;0.0
2065;0.0;0.0;0.0;-0.0878399983048439;1.604543924331665;0.6197599768638611;0.0;0.0;0.0
2067;0.0;0.0;0.0;-0.09564799815416336;1.4796159267425537;0.5748639702796936;0.0;0.0;0.0
2069;-0.21886800229549408;1.7055599689483643;0.48019200563430786;-0.11907199770212173;1.370303988456726;0.5670560002326965;-16.813125610351562;-78.68437957763672;174.58438110351562
2072;0.0;0.0;0.0;-0.11907199770212173;1.272704005241394;0.5826719999313354;0.0;0.0;0.0
2074;0.0;0.0;0.0;-0.13468798995018005;1.1477760076522827;0.5953599810600281;0.0;0.0;0.0
2076;0.0;0.0;0.0;-0.1844639927148819;1.042367935180664;0.6158559918403625;0.0;0.0;0.0
2078;-0.26913198828697205;1.2775839567184448;0.48311999440193176;-0.16494399309158325;0.8901119828224182;0.6353759765625;-22.833126068115234;-42.00437545776367;189.21438598632812
2080;0.0;0.0;0.0;-0.25863999128341675;0.7807999849319458;0.6519680023193359;0.0;0.0;0.0
2082;0.0;0.0;0.0;-0.2820639908313751;0.6636799573898315;0.684175968170166;0.0;0.0;0.0
2084;0.0;0.0;0.0;-0.2898719906806946;0.5153279900550842;0.7290719747543335;0.0;0.0;0.0
2086;-0.38966798782348633;0.7934879660606384;0.5714479684829712;-0.29767999053001404;0.4567679762840271;0.8061760067939758;-29.41312599182129;-15.5443754196167;198.0343780517578
2089;0.0;0.0;0.0;-0.3640480041503906;0.3123199939727783;0.8022719621658325;0.0;0.0;0.0
2091;0.0;0.0;0.0;-0.39820799231529236;0.20691199600696564;0.8383839726448059;0.0;0.0;0.0
2093;0.0;0.0;0.0;-0.45286399126052856;0.0663679987192154;0.8754720091819763;0.0;0.0;0.0
2095;-0.533627986907959;0.3315959870815277;0.7119919657707214;-0.4997119903564453;-0.07417599856853485;0.8949919939041138;-35.36312484741211;-6.164375305175781;201.95437622070312
2097;0.0;0.0;0.0;-0.5231360197067261;-0.16787199676036835;0.8666880130767822;0.0;0.0;0.0
2099;0.0;0.0;0.0;-0.5738880038261414;-0.3396480083465576;0.9154880046844482;0.0;0.0;0.0
2101;0.0;0.0;0.0;-0.5816959738731384;-0.460671991109848;0.9398880004882812;0.0;0.0;0.0
2103;-0.6856399774551392;-0.1925159990787506;0.7727479934692383;-0.6090239882469177;-0.6051200032234192;0.8910880088806152;-39.493125915527344;-19.18437385559082;202.79437255859375
2106;0.0;0.0;0.0;-0.6627039909362793;-0.8042240142822266;0.9076799750328064;0.0;0.0;0.0
2108;0.0;0.0;0.0;-0.6509919762611389;-0.9525759816169739;0.8949919939041138;0.0;0.0;0.0
2110;0.0;0.0;0.0;-0.6861279606819153;-1.1165440082550049;0.8422879576683044;0.0;0.0;0.0
2112;-0.779092013835907;-0.8354560136795044;0.746396005153656;-0.6900320053100586;-1.3585920333862305;0.8139839768409729;-39.84312438964844;-47.88437271118164;201.1843719482422
2114;0.0;0.0;0.0;-0.636352002620697;-1.5772159099578857;0.7700639963150024;0.0;0.0;0.0
2116;0.0;0.0;0.0;-0.6168320178985596;-1.7646079063415527;0.7046719789505005;0.0;0.0;0.0
2118;0.0;0.0;0.0;-0.562175989151001;-2.0183680057525635;0.6724640130996704;0.0;0.0;0.0
2120;-0.709551990032196;-1.659932017326355;0.5938959717750549;-0.4411519765853882;-2.264319896697998;0.6558719873428345;-40.40312576293945;-78.75437927246094;193.27438354492188
2123;0.0;0.0;0.0;-0.3445279896259308;-2.436095952987671;0.6070719957351685;0.0;0.0;0.0
2125;0.0;0.0;0.0;-0.26254400610923767;-2.623487949371338;0.6275680065155029;0.0;0.0;0.0
2127;0.0;0.0;0.0;-0.16103999316692352;-2.748415946960449;0.5992639660835266;0.0;0.0;0.0
2129;-0.3713679909706116;-2.4658639430999756;0.49653998017311096;-0.09174399822950363;-2.9592318534851074;0.6031680107116699;-43.763126373291016;-77.00437927246094;170.734375
2131;0.0;0.0;0.0;0.009759999811649323;-3.088063955307007;0.6197599768638611;0.0;0.0;0.0
2133;0.0;0.0;0.0;0.0907679945230484;-3.201279878616333;0.6402559876441956;0.0;0.0;0.0
2135;0.0;0.0;0.0;0.18836799263954163;-3.283263921737671;0.684175968170166;0.0;0.0;0.0
2137;-0.02537599951028824;-3.0397520065307617;0.5428999662399292;0.20788799226284027;-3.365247964859009;0.7368800044059753;-56.29312515258789;-28.14437484741211;134.82437133789062
2139;0.0;0.0;0.0;0.21959999203681946;-3.4891998767852783;0.7895839810371399;0.0;0.0;0.0
2142;0.0;0.0;0.0;0.1727519929409027;-3.5828959941864014;0.8344799876213074;0.0;0.0;0.0
2144;0.0;0.0;0.0;0.15323199331760406;-3.649263858795166;0.8832799792289734;0.0;0.0;0.0
2146;0.06539200246334076;-3.4142918586730957;0.720043957233429;0.12199999392032623;-3.6922078132629395;0.9564799666404724;-72.953125;46.895626068115234;93.66437530517578
2148;0.0;0.0;0.0;0.04879999905824661;-3.7819998264312744;1.0091840028762817;0.0;0.0;0.0
2150;0.0;0.0;0.0;0.009759999811649323;-3.8561758995056152;1.0374879837036133;0.0;0.0;0.0
2152;0.0;0.0;0.0;-0.0605119988322258;-3.9576799869537354;1.097999930381775;0.0;0.0;0.0
2154;-0.11980399489402771;-3.722463846206665;0.9140239953994751;-0.10735999792814255;-4.039663791656494;1.1184959411621094;-77.36312103271484;94.2856216430664;50.68437576293945
2157;0.0;0.0;0.0;-0.14932799339294434;-4.106031894683838;1.1067839860916138;0.0;0.0;0.0
2159;0.0;0.0;0.0;-0.20788799226284027;-4.172399997711182;1.122399926185608;0.0;0.0;0.0
2161;0.0;0.0;0.0;-0.26254400610923767;-4.219247817993164;1.0775039196014404;0.0;0.0;0.0
2163;-0.3213479816913605;-4.00135612487793;0.9738039970397949;-0.2664479911327362;-4.188015937805176;1.0696959495544434;-60.28312683105469;74.54562377929688;7.494375228881836
2165;0.0;0.0;0.0;-0.27425599098205566;-4.117743968963623;1.0413919687271118;0.0;0.0;0.0
2167;0.0;0.0;0.0;-0.21569599211215973;-4.035759925842285;0.9964959621429443;0.0;0.0;0.0
2169;0.0;0.0;0.0;-0.19617599248886108;-3.934255838394165;0.9281759858131409;0.0;0.0;0.0
2171;-0.3520919978618622;-3.8671560287475586;0.8503400087356567;-0.11907199770212173;-3.7624800205230713;0.8588799834251404;-23.743125915527344;-2.244374990463257;-35.06562423706055
2174;0.0;0.0;0.0;-0.037087999284267426;-3.649263858795166;0.757375955581665;0.0;0.0;0.0
2176;0.0;0.0;0.0;-0.0058559998869895935;-3.4931039810180664;0.676367998123169;0.0;0.0;0.0
2178;0.0;0.0;0.0;0.07612799853086472;-3.3223040103912354;0.5670560002326965;0.0;0.0;0.0
2180;-0.11004399508237839;-3.335235834121704;0.5470479726791382;0.14151999354362488;-3.185663938522339;0.4577440023422241;11.536874771118164;-74.83438110351562;-75.45561981201172
2182;0.0;0.0;0.0;0.1844639927148819;-2.998271942138672;0.3640480041503906;0.0;0.0;0.0
2184;0.0;0.0;0.0;0.2664479911327362;-2.826495885848999;0.2869440019130707;0.0;0.0;0.0
2186;0.0;0.0;0.0;0.35233598947525024;-2.6703360080718994;0.16103999316692352;0.0;0.0;0.0
2188;0.1622599959373474;-2.6949799060821533;0.16103999316692352;0.45286399126052856;-2.5063679218292236;0.06831999868154526;34.076873779296875;-94.85437774658203;-108.2856216430664
2190;0.0;0.0;0.0;0.4958080053329468;-2.36191987991333;0.031231999397277832;0.0;0.0;0.0
2193;0.0;0.0;0.0;0.5348479747772217;-2.18233585357666;-0.02147199958562851;0.0;0.0;0.0
2195;0.0;0.0;0.0;0.5543680191040039;-1.9949439764022827;-0.045871999114751816;0.0;0.0;0.0
2197;0.4101639986038208;-2.0432560443878174;-0.11272799968719482;0.611952006816864;-1.8661119937896729;-0.06148799881339073;47.236873626708984;-62.864376068115234;-133.8356170654297
2199;0.0;0.0;0.0;0.6588000059127808;-1.7099519968032837;-0.07027199864387512;0.0;0.0;0.0
2201;0.0;0.0;0.0;0.6392799615859985;-1.557695984840393;-0.04196799919009209;0.0;0.0;0.0
2203;0.0;0.0;0.0;0.6783199906349182;-1.4561920166015625;-0.02537599951028824;0.0;0.0;0.0
2205;0.52947998046875;-1.4547280073165894;-0.1525000035762787;0.6705119609832764;-1.3234559297561646;0.019519999623298645;50.31687545776367;12.665624618530273;-152.45562744140625
2208;0.0;0.0;0.0;0.6666079759597778;-1.2336640357971191;0.04391999915242195;0.0;0.0;0.0
2210;0.0;0.0;0.0;0.6090239882469177;-1.1790080070495605;0.1210239976644516;0.0;0.0;0.0
2212;0.0;0.0;0.0;0.5231360197067261;-1.0384639501571655;0.21374399960041046;0.0;0.0;0.0
2214;0.4631119966506958;-1.012112021446228;0.015859998762607574;0.42553597688674927;-0.9330559968948364;0.30743998289108276;45.90687561035156;108.98562622070312;-165.6856231689453
2216;0.0;0.0;0.0;0.3211039900779724;-0.8315519690513611;0.39235198497772217;0.0;0.0;0.0
2218;0.0;0.0;0.0;0.21959999203681946;-0.7261439561843872;0.49775999784469604;0.0;0.0;0.0
2220;0.0;0.0;0.0;0.13761599361896515;-0.6324479579925537;0.5748639702796936;0.0;0.0;0.0
2222;0.12517200410366058;-0.6004840135574341;0.36502400040626526;0.10345599800348282;-0.5348479747772217;0.7046719789505005;43.106876373291016;184.79562377929688;-174.92562866210938
2225;0.0;0.0;0.0;0.013663999736309052;-0.44896000623703003;0.8100799918174744;0.0;0.0;0.0
2227;0.0;0.0;0.0;-0.06441599875688553;-0.3786879777908325;0.8871839642524719;0.0;0.0;0.0
2229;0.0;0.0;0.0;-0.09174399822950363;-0.2654719948768616;1.0130879878997803;0.0;0.0;0.0
2231;-0.14981599152088165;-0.22179599106311798;0.7771399617195129;-0.14640000462532043;-0.17958399653434753;1.1389919519424438;42.96687316894531;218.8156280517578;-178.35562133789062
2233;0.0;0.0;0.0;-0.18055999279022217;-0.10931199789047241;1.2209759950637817;0.0;0.0;0.0
2235;0.0;0.0;0.0;-0.22740799188613892;0.019519999623298645;1.334191918373108;0.0;0.0;0.0
2237;0.0;0.0;0.0;-0.2937760055065155;0.05075199902057648;1.4230079650878906;0.0;0.0;0.0
2239;-0.3567279875278473;0.12199999392032623;1.1936479806900024;-0.3718560039997101;0.16396799683570862;1.5127999782562256;41.146873474121094;222.24562072753906;-177.5856170654297
2242;0.0;0.0;0.0;-0.4177280068397522;0.24595199525356293;1.5850239992141724;0.0;0.0;0.0
2244;0.0;0.0;0.0;-0.4567679762840271;0.3474559783935547;1.6338239908218384;0.0;0.0;0.0
2246;0.0;0.0;0.0;-0.46457600593566895;0.4021120071411133;1.7031199932098389;0.0;0.0;0.0
2248;-0.5575399994850159;0.47457998991012573;1.5054799318313599;-0.48799997568130493;0.5270400047302246;1.7724159955978394;37.7868766784668;197.04562377929688;-173.87562561035156
2250;0.0;0.0;0.0;-0.5153279900550842;0.6636799573898315;1.8202400207519531;0.0;0.0;0.0
2252;0.0;0.0;0.0;-0.47628799080848694;0.7534719705581665;1.8729439973831177;0.0;0.0;0.0
2254;0.0;0.0;0.0;-0.5231360197067261;0.9174399971961975;1.9295519590377808;0.0;0.0;0.0
2256;-0.6314719915390015;0.8971880078315735;1.73117995262146;-0.4958080053329468;0.9916160106658936;1.9627360105514526;38.416873931884766;153.4356231689453;-167.15562438964844
2259;0.0;0.0;0.0;-0.5309439897537231;1.1204479932785034;1.9783519506454468;0.0;0.0;0.0
2261;0.0;0.0;0.0;-0.5348479747772217;1.2258559465408325;1.9910399913787842;0.0;0.0;0.0
2263;0.0;0.0;0.0;-0.5387519598007202;1.3859199285507202;1.9988479614257812;0.0;0.0;0.0
2265;-0.6609959602355957;1.384455919265747;1.8607439994812012;-0.5856000185012817;1.51475191116333;2.0105600357055664;39.676876068115234;107.93562316894531;-155.11561584472656
2267;0.0;0.0;0.0;-0.6051200032234192;1.6591999530792236;2.0232479572296143;0.0;0.0;0.0
2269;0.0;0.0;0.0;-0.562175989151001;1.7958400249481201;2.019343852996826;0.0;0.0;0.0
2271;0.0;0.0;0.0;-0.49190399050712585;1.87391996383667;1.9910399913787842;0.0;0.0;0.0
2273;-0.6710000038146973;1.9049079418182373;1.871724009513855;-0.48799997568130493;1.9871360063552856;1.9988479614257812;42.61687469482422;59.84562683105469;-134.74562072753906
2276;0.0;0.0;0.0;-0.4840959906578064;2.080832004547119;1.9988479614257812;0.0;0.0;0.0
2278;0.0;0.0;0.0;-0.43724799156188965;2.1901440620422363;2.0310559272766113;0.0;0.0;0.0
2280;0.0;0.0;0.0;-0.4450559914112091;2.3267838954925537;2.0476479530334473;0.0;0.0;0.0
2282;-0.5814520120620728;2.342400074005127;1.8824599981307983;-0.43724799156188965;2.447808027267456;2.0349600315093994;46.11687469482422;20.645626068115234;-109.96562194824219
2284;0.0;0.0;0.0;-0.4450559914112091;2.4985599517822266;1.9910399913787842;0.0;0.0;0.0
2286;0.0;0.0;0.0;-0.4411519765853882;2.5922560691833496;2.0271520614624023;0.0;0.0;0.0
2288;0.0;0.0;0.0;-0.45286399126052856;2.6703360080718994;1.9627360105514526;0.0;0.0;0.0
2290;-0.5768159627914429;2.7230398654937744;1.8556199073791504;-0.46457600593566895;2.810879945755005;1.9500479698181152;42.47687530517578;-12.39437484741211;-79.30562591552734
2293;0.0;0.0;0.0;-0.4138239920139313;2.8538239002227783;1.9256479740142822;0.0;0.0;0.0
2295;0.0;0.0;0.0;-0.4684799909591675;2.920192003250122;1.8973439931869507;0.0;0.0;0.0
2297;0.0;0.0;0.0;-0.46457600593566895;2.9670400619506836;1.8768479824066162;0.0;0.0;0.0
2299;-0.5626639723777771;3.0414600372314453;1.761923909187317;-0.43724799156188965;2.994367837905884;1.8124319314956665;35.266876220703125;-45.364376068115234;-45.915626525878906
2301;0.0;0.0;0.0;-0.399183988571167;3.0451200008392334;1.8124319314956665;0.0;0.0;0.0
2303;0.0;0.0;0.0;-0.39528000354766846;3.0334079265594482;1.7392319440841675;0.0;0.0;0.0
2305;0.0;0.0;0.0;-0.3601439893245697;3.0451200008392334;1.7070239782333374;0.0;0.0;0.0
2307;-0.508251965045929;3.1593120098114014;1.6060079336166382;-0.34062400460243225;3.0685439109802246;1.6465119123458862;26.306875228881836;-74.484375;-13.295624732971191
2310;0.0;0.0;0.0;-0.35233598947525024;3.0529279708862305;1.5694079399108887;0.0;0.0;0.0
2312;0.0;0.0;0.0;-0.4021120071411133;3.0607359409332275;1.5040159225463867;0.0;0.0;0.0
2314;0.0;0.0;0.0;-0.3835679888725281;3.0529279708862305;1.4230079650878906;0.0;0.0;0.0
2316;-0.4823879897594452;3.1827359199523926;1.3705480098724365;-0.34062400460243225;3.0373120307922363;1.3907999992370605;17.906875610351562;-96.39437866210938;20.514373779296875
2318;0.0;0.0;0.0;-0.27035200595855713;3.025599956512451;1.3498079776763916;0.0;0.0;0.0
2320;0.0;0.0;0.0;-0.23521599173545837;2.9670400619506836;1.2736799716949463;0.0;0.0;0.0
2322;0.0;0.0;0.0;-0.27425599098205566;2.9475200176239014;1.2287839651107788;0.0;0.0;0.0
2324;-0.40357598662376404;3.1048998832702637;1.144115924835205;-0.3093920052051544;2.8850560188293457;1.1799839735031128;13.70687484741211;-108.15438079833984;54.81437301635742
2327;0.0;0.0;0.0;-0.29767999053001404;2.8694398403167725;1.1067839860916138;0.0;0.0;0.0
2329;0.0;0.0;0.0;-0.2937760055065155;2.7523200511932373;1.0618879795074463;0.0;0.0;0.0
2331;0.0;0.0;0.0;-0.24692799150943756;2.6820478439331055;1.0257760286331177;0.0;0.0;0.0
2333;-0.3911319971084595;2.8967678546905518;0.9437919855117798;-0.18055999279022217;2.5883519649505615;0.9886879920959473;8.246874809265137;-112.00437927246094;90.37438201904297
2335;0.0;0.0;0.0;-0.14640000462532043;2.5141758918762207;0.9720959663391113;0.0;0.0;0.0
2337;0.0;0.0;0.0;-0.16494399309158325;2.4126720428466797;0.9603840112686157;0.0;0.0;0.0
2339;0.0;0.0;0.0;-0.15323199331760406;2.2955520153045654;0.9437919855117798;0.0;0.0;0.0
2341;-0.2845039963722229;2.520763874053955;0.838871955871582;-0.16201600432395935;2.155007839202881;0.9193919897079468;-1.7631250619888306;-98.00437927246094;121.10437774658203
2344;0.0;0.0;0.0;-0.1571359932422638;2.080832004547119;0.9359839558601379;0.0;0.0;0.0
2346;0.0;0.0;0.0;-0.16884799301624298;1.9910399913787842;0.9037759900093079;0.0;0.0;0.0
2348;0.0;0.0;0.0;-0.18055999279022217;1.8700159788131714;0.9115839600563049;0.0;0.0;0.0
2350;-0.29694798588752747;2.096691846847534;0.8003199696540833;-0.1844639927148819;1.737280011177063;0.9242720007896423;-16.393125534057617;-65.03437805175781;145.60438537597656
2352;0.0;0.0;0.0;-0.21959999203681946;1.6279679536819458;0.9115839600563049;0.0;0.0;0.0
2354;0.0;0.0;0.0;-0.27425599098205566;1.4835200309753418;0.9320799708366394;0.0;0.0;0.0
2356;0.0;0.0;0.0;-0.2898719906806946;1.3781119585037231;0.9769759774208069;0.0;0.0;0.0
2358;-0.3972319960594177;1.6284559965133667;0.8051999807357788;-0.3640480041503906;1.2453759908676147;0.9398880004882812;-29.483125686645508;-38.084373474121094;164.57437133789062
2361;0.0;0.0;0.0;-0.3757599890232086;1.1594879627227783;0.9720959663391113;0.0;0.0;0.0
2363;0.0;0.0;0.0;-0.4060159921646118;1.0228480100631714;0.9847840070724487;0.0;0.0;0.0
2365;0.0;0.0;0.0;-0.44896000623703003;0.9096319675445557;0.9769759774208069;0.0;0.0;0.0
2367;-0.5392400026321411;1.1614400148391724;0.8500959873199463;-0.49190399050712585;0.7964159846305847;1.0052800178527832;-36.203125;-34.79437255859375;178.7843780517578
2369;0.0;0.0;0.0;-0.472383975982666;0.6753919720649719;0.9769759774208069;0.0;0.0;0.0
2371;0.0;0.0;0.0;-0.47628799080848694;0.5895040035247803;0.9681919813156128;0.0;0.0;0.0
2373;0.0;0.0;0.0;-0.48019200563430786;0.44896000623703003;0.9398880004882812;0.0;0.0;0.0
2375;-0.6056079864501953;0.7058919668197632;0.8400920033454895;-0.46457600593566895;0.3396480083465576;0.9437919855117798;-39.143123626708984;-51.66437530517578;190.12437438964844
2378;0.0;0.0;0.0;-0.460671991109848;0.230335995554924;0.9525759816169739;0.0;0.0;0.0
2380;0.0;0.0;0.0;-0.43724799156188965;0.08979199826717377;0.9525759816169739;0.0;0.0;0.0
2382;0.0;0.0;0.0;-0.4567679762840271;-0.03903999924659729;0.9525759816169739;0.0;0.0;0.0
2384;-0.5841360092163086;0.2239919900894165;0.826915979385376;-0.4567679762840271;-0.1600639969110489;0.9476959705352783;-40.053123474121094;-67.55437469482422;196.5643768310547
2386;0.0;0.0;0.0;-0.5075199604034424;-0.27718400955200195;0.9359839558601379;0.0;0.0;0.0
2388;0.0;0.0;0.0;-0.5387519598007202;-0.42553597688674927;0.9320799708366394;0.0;0.0;0.0
2390;0.0;0.0;0.0;-0.5426560044288635;-0.5075199604034424;0.9437919855117798;0.0;0.0;0.0
2392;-0.6492840051651001;-0.29109200835227966;0.8059319853782654;-0.5934079885482788;-0.6910079717636108;0.8910880088806152;-45.163124084472656;-69.09437561035156;196.84437561035156
2395;0.0;0.0;0.0;-0.5660799741744995;-0.8081279993057251;0.895967960357666;0.0;0.0;0.0
2397;0.0;0.0;0.0;-0.5777919888496399;-0.9486719965934753;0.8754720091819763;0.0;0.0;0.0
2399;0.0;0.0;0.0;-0.5348479747772217;-1.0501760244369507;0.8666880130767822;0.0;0.0;0.0
