Timestamp(ms);LG-Accel x(g);LG-Accel y(g);LG-Accel z(g);HG-Accel x(g);HG-Accel y(g);HG-Accel z(g);Gyro x(dps);Gyro y(dps);Gyro z(dps)
89;0.0;0.0;0.0;0.30743998289108276;-0.020495999604463577;0.9486719965934753;0.0;0.0;0.0
91;0.0;0.0;0.0;0.33476799726486206;-0.028303999453783035;0.9525759816169739;0.0;0.0;0.0
93;0.0;0.0;0.0;0.34647998213768005;-0.004879999905824661;0.9769759774208069;0.0;0.0;0.0
95;0.0;0.0;0.0;0.3386719822883606;-0.004879999905824661;0.9486719965934753;0.0;0.0;0.0
97;0.0;0.0;0.0;0.3230559825897217;0.03415999934077263;0.9808799624443054;0.0;0.0;0.0
100;0.0;0.0;0.0;0.31329599022865295;0.05270399898290634;1.036512017250061;0.0;0.0;0.0
102;0.0;0.0;0.0;0.2937760055065155;0.037087999284267426;1.0482239723205566;0.0;0.0;0.0
104;0.0;0.0;0.0;0.2781600058078766;0.09174399822950363;1.0648159980773926;0.0;0.0;0.0
106;0.15981999039649963;0.17958399653434753;0.924515962600708;0.23131199181079865;0.06441599875688553;1.1048319339752197;0.0;0.0;0.0
108;0.0;0.0;0.0;0.24692799150943756;0.05660799890756607;1.1048319339752197;0.0;0.0;0.0
110;0.0;0.0;0.0;0.2117919921875;0.06831999868154526;1.1663199663162231;0.0;0.0;0.0
112;0.0;0.0;0.0;0.16494399309158325;0.09174399822950363;1.2307360172271729;0.0;0.0;0.0
114;0.07515199482440948;0.2071560025215149;1.0472480058670044;0.1298079937696457;0.08393599838018417;1.262943983078003;0.0;0.0;0.0
117;0.0;0.0;0.0;0.09662400186061859;0.09564799815416336;1.2795360088348389;0.0;0.0;0.0
119;0.0;0.0;0.0;0.07320000231266022;0.09174399822950363;1.3322399854660034;0.0;0.0;0.0
121;0.0;0.0;0.0;0.04196799919009209;0.13859200477600098;1.3400479555130005;0.0;0.0;0.0
123;-0.05392399802803993;0.25327199697494507;1.1765680313110352;-0.00878399983048439;0.1424959897994995;1.3410239219665527;0.0;0.0;0.0
125;0.0;0.0;0.0;-0.04782399907708168;0.15030398964881897;1.3644479513168335;0.0;0.0;0.0
127;0.0;0.0;0.0;-0.03611199930310249;0.13859200477600098;1.3449280261993408;0.0;0.0;0.0
129;0.0;0.0;0.0;-0.020495999604463577;0.14640000462532043;1.3566399812698364;0.0;0.0;0.0
131;-0.14347200095653534;0.27596399188041687;1.2121919393539429;0.010735999792814255;0.1542080044746399;1.3283360004425049;0.0;0.0;0.0
134;0.0;0.0;0.0;0.040991999208927155;0.20495998859405518;1.352735996246338;0.0;0.0;0.0
136;0.0;0.0;0.0;0.04879999905824661;0.21276798844337463;1.336143970489502;0.0;0.0;0.0
138;0.0;0.0;0.0;0.07222399860620499;0.23228800296783447;1.352735996246338;0.0;0.0;0.0
140;-0.07246799767017365;0.3472119867801666;1.213655948638916;0.09955199807882309;0.2518079876899719;1.3205280303955078;0.0;0.0;0.0
142;0.0;0.0;0.0;0.09564799815416336;0.29475200176239014;1.2961280345916748;0.0;0.0;0.0
144;0.0;0.0;0.0;0.08003199845552444;0.3298879861831665;1.2834399938583374;0.0;0.0;0.0
146;0.0;0.0;0.0;0.0878399983048439;0.33769598603248596;1.262943983078003;0.0;0.0;0.0
148;-0.025863999500870705;0.4457879960536957;1.157047986984253;0.09174399822950363;0.3416000008583069;1.2639199495315552;2.4412500858306885;2.996875047683716;-30.856874465942383
151;0.0;0.0;0.0;0.1571359932422638;0.3806400001049042;1.2063360214233398;0.0;0.0;0.0
153;0.0;0.0;0.0;0.12199999392032623;0.411871999502182;1.1780319213867188;0.0;0.0;0.0
155;0.0;0.0;0.0;0.1454239934682846;0.45481598377227783;1.1858400106430054;0.0;0.0;0.0
157;0.010003999806940556;0.5487560033798218;1.0592039823532104;0.16884799301624298;0.4899519979953766;1.1624159812927246;0.20125000178813934;-4.143125057220459;-30.15687370300293
159;0.0;0.0;0.0;0.18836799263954163;0.5172799825668335;1.1380159854888916;0.0;0.0;0.0
161;0.0;0.0;0.0;0.2235039919614792;0.5719360113143921;1.0892159938812256;0.0;0.0;0.0
163;0.0;0.0;0.0;0.2117919921875;0.5641279816627502;1.0892159938812256;0.0;0.0;0.0
165;0.07685999572277069;0.6802719831466675;0.9762439727783203;0.22740799188613892;0.6070719957351685;1.0521279573440552;0.061250001192092896;-2.953125;-28.056875228881836
168;0.0;0.0;0.0;0.22740799188613892;0.5953599810600281;1.0404160022735596;0.0;0.0;0.0
170;0.0;0.0;0.0;0.27035200595855713;0.610975980758667;1.0238239765167236;0.0;0.0;0.0
172;0.0;0.0;0.0;0.23521599173545837;0.6304959654808044;1.0160160064697266;0.0;0.0;0.0
174;0.12175599485635757;0.7510319948196411;0.9023119807243347;0.2820639908313751;0.6578239798545837;1.0238239765167236;3.771250009536743;5.306875228881836;-20.356874465942383
176;0.0;0.0;0.0;0.24692799150943756;0.6656320095062256;1.019919991493225;0.0;0.0;0.0
178;0.0;0.0;0.0;0.24692799150943756;0.6656320095062256;1.0404160022735596;0.0;0.0;0.0
180;0.0;0.0;0.0;0.2235039919614792;0.6656320095062256;1.0277279615402222;0.0;0.0;0.0
182;0.11541199684143066;0.7944639921188354;0.907435953617096;0.21959999203681946;0.6304959654808044;1.0482239723205566;8.391249656677246;18.606876373291016;-10.486875534057617
185;0.0;0.0;0.0;0.16884799301624298;0.6656320095062256;1.0404160022735596;0.0;0.0;0.0
187;0.0;0.0;0.0;0.16103999316692352;0.6344000101089478;1.0931199789047241;0.0;0.0;0.0
189;0.0;0.0;0.0;0.1727519929409027;0.6070719957351685;1.10971200466156;0.0;0.0;0.0
191;0.05953599885106087;0.7712839841842651;0.9537959694862366;0.14932799339294434;0.6226879954338074;1.1624159812927246;12.381250381469727;32.81687545776367;-2.856874942779541
193;0.0;0.0;0.0;0.14932799339294434;0.6265919804573059;1.1907199621200562;0.0;0.0;0.0
195;0.0;0.0;0.0;0.13371199369430542;0.6148799657821655;1.2395199537277222;0.0;0.0;0.0
197;0.0;0.0;0.0;0.14932799339294434;0.5719360113143921;1.2190239429473877;0.0;0.0;0.0
199;0.024399999529123306;0.7351719737052917;1.0816519260406494;0.14932799339294434;0.6500160098075867;1.3400479555130005;15.111249923706055;44.296875;4.493124961853027
202;0.0;0.0;0.0;0.0605119988322258;0.6539199948310852;1.3322399854660034;0.0;0.0;0.0
204;0.0;0.0;0.0;0.10735999792814255;0.6539199948310852;1.360543966293335;0.0;0.0;0.0
206;0.0;0.0;0.0;0.07612799853086472;0.6539199948310852;1.441551923751831;0.0;0.0;0.0
208;-0.044895999133586884;0.7637199759483337;1.242691993713379;-0.0019519999623298645;0.5328959822654724;1.458143949508667;13.081250190734863;43.38687515258789;10.233124732971191
210;0.0;0.0;0.0;-0.05660799890756607;0.5758399963378906;1.474735975265503;0.0;0.0;0.0
212;0.0;0.0;0.0;-0.07222399860620499;0.5641279816627502;1.4620479345321655;0.0;0.0;0.0
214;0.0;0.0;0.0;-0.115167997777462;0.5485119819641113;1.506943941116333;0.0;0.0;0.0
216;-0.187391996383667;0.6866160035133362;1.345903992652893;-0.09955199807882309;0.5055679678916931;1.506943941116333;1.4612500667572021;28.826875686645508;15.063124656677246
219;0.0;0.0;0.0;-0.09955199807882309;0.49775999784469604;1.555743932723999;0.0;0.0;0.0
221;0.0;0.0;0.0;-0.08003199845552444;0.4938559830188751;1.5274399518966675;0.0;0.0;0.0
223;0.0;0.0;0.0;-0.11907199770212173;0.513375997543335;1.5108479261398315;0.0;0.0;0.0
225;-0.2227720022201538;0.6365959644317627;1.3922640085220337;-0.08393599838018417;0.48604798316955566;1.5157279968261719;-15.198750495910645;6.286875247955322;16.25312614440918
227;0.0;0.0;0.0;-0.11907199770212173;0.4665279984474182;1.5157279968261719;0.0;0.0;0.0
229;0.0;0.0;0.0;-0.10345599800348282;0.4509119987487793;1.4620479345321655;0.0;0.0;0.0
231;0.0;0.0;0.0;-0.09955199807882309;0.4274879992008209;1.4220319986343384;0.0;0.0;0.0
233;-0.21691599488258362;0.5812079906463623;1.3202840089797974;-0.06441599875688553;0.4391999840736389;1.3449280261993408;-30.668750762939453;-18.703125;17.653125762939453
236;0.0;0.0;0.0;-0.06441599875688553;0.3962559998035431;1.3283360004425049;0.0;0.0;0.0
238;0.0;0.0;0.0;-0.029279999434947968;0.37673598527908325;1.262943983078003;0.0;0.0;0.0
240;0.0;0.0;0.0;-0.02537599951028824;0.4001599848270416;1.2063360214233398;0.0;0.0;0.0
242;-0.15664799511432648;0.5343599915504456;1.124351978302002;0.013663999736309052;0.3689279854297638;1.134112000465393;-35.778751373291016;-43.763126373291016;22.41312599182129
244;0.0;0.0;0.0;0.04879999905824661;0.34940800070762634;1.1009279489517212;0.0;0.0;0.0
246;0.0;0.0;0.0;0.07612799853086472;0.29475200176239014;1.0326080322265625;0.0;0.0;0.0
248;0.0;0.0;0.0;0.06831999868154526;0.25571200251579285;0.9750239849090576;0.0;0.0;0.0
251;-0.05026400089263916;0.4387120008468628;0.9079239964485168;0.13371199369430542;0.2635200023651123;0.9311040043830872;-31.0887508392334;-61.05312728881836;30.533126831054688
253;0.0;0.0;0.0;0.16103999316692352;0.20105600357055664;0.8901119828224182;0.0;0.0;0.0
255;0.0;0.0;0.0;0.1571359932422638;0.18934398889541626;0.8618080019950867;0.0;0.0;0.0
257;0.0;0.0;0.0;0.20788799226284027;0.1698240041732788;0.8295999765396118;0.0;0.0;0.0
259;0.05148399993777275;0.31549200415611267;0.7402960062026978;0.20398399233818054;0.10735999792814255;0.8091039657592773;-22.758750915527344;-59.79312515258789;38.513126373291016
261;0.0;0.0;0.0;0.21959999203681946;0.13859200477600098;0.7768959999084473;0.0;0.0;0.0
263;0.0;0.0;0.0;0.24302399158477783;0.09564799815416336;0.7807999849319458;0.0;0.0;0.0
265;0.0;0.0;0.0;0.2235039919614792;0.0878399983048439;0.7603039741516113;0.0;0.0;0.0
268;0.09564799815416336;0.22008799016475677;0.6539199948310852;0.23521599173545837;0.044895999133586884;0.7446879744529724;-14.288749694824219;-44.11312484741211;44.603126525878906
270;0.0;0.0;0.0;0.19227199256420135;0.0058559998869895935;0.748591959476471;0.0;0.0;0.0
272;0.0;0.0;0.0;0.19617599248886108;-0.04879999905824661;0.7681120038032532;0.0;0.0;0.0
274;0.0;0.0;0.0;0.18055999279022217;-0.09564799815416336;0.7973920106887817;0.0;0.0;0.0
276;0.0773480013012886;0.08832799643278122;0.6461119651794434;0.18055999279022217;-0.12297599762678146;0.7925119996070862;-8.12874984741211;-26.123125076293945;49.36312484741211
278;0.0;0.0;0.0;0.1571359932422638;-0.19324800372123718;0.8012959957122803;0.0;0.0;0.0
280;0.0;0.0;0.0;0.16884799301624298;-0.1815359890460968;0.8169119954109192;0.0;0.0;0.0
282;0.0;0.0;0.0;0.13761599361896515;-0.24009600281715393;0.7807999849319458;0.0;0.0;0.0
285;0.03660000115633011;-0.06319599598646164;0.6700239777565002;0.16494399309158325;-0.2596159875392914;0.8051999807357788;-4.418749809265137;-11.983125686645508;52.65312576293945
287;0.0;0.0;0.0;0.16103999316692352;-0.30646398663520813;0.7925119996070862;0.0;0.0;0.0
289;0.0;0.0;0.0;0.16884799301624298;-0.3572160005569458;0.8130080103874207;0.0;0.0;0.0
291;0.0;0.0;0.0;0.19227199256420135;-0.38844799995422363;0.8012959957122803;0.0;0.0;0.0
293;0.05270399898290634;-0.22667600214481354;0.6744160056114197;0.1844639927148819;-0.44310399889945984;0.7807999849319458;-0.7087500095367432;-3.7231249809265137;55.9431266784668
295;0.0;0.0;0.0;0.18836799263954163;-0.4665279984474182;0.8091039657592773;0.0;0.0;0.0
297;0.0;0.0;0.0;0.1844639927148819;-0.536799967288971;0.8374080061912537;0.0;0.0;0.0
299;0.0;0.0;0.0;0.18055999279022217;-0.5719360113143921;0.8500959873199463;0.0;0.0;0.0
302;0.07222399860620499;-0.39601197838783264;0.7112599611282349;0.17665599286556244;-0.5914559960365295;0.8901119828224182;6.291250228881836;5.516875267028809;59.37312698364258
304;0.0;0.0;0.0;0.1727519929409027;-0.6890559792518616;0.8783999681472778;0.0;0.0;0.0
306;0.0;0.0;0.0;0.12199999392032623;-0.7046719789505005;0.8979200124740601;0.0;0.0;0.0
308;0.0;0.0;0.0;0.09955199807882309;-0.7437120079994202;0.9106079936027527;0.0;0.0;0.0
310;0.02391199953854084;-0.5721799731254578;0.7778719663619995;0.13371199369430542;-0.7866559624671936;0.9633119702339172;10.981249809265137;16.996875762939453;60.00312423706055
312;0.0;0.0;0.0;0.12199999392032623;-0.8530240058898926;0.9799039959907532;0.0;0.0;0.0
314;0.0;0.0;0.0;0.1180959939956665;-0.8608319759368896;1.0521279573440552;0.0;0.0;0.0
316;0.0;0.0;0.0;0.08003199845552444;-0.888159990310669;1.0726239681243896;0.0;0.0;0.0
319;-0.014151999726891518;-0.7280960083007812;0.90938800573349;0.05660799890756607;-0.9115839600563049;1.1175199747085571;9.861249923706055;28.056875228881836;53.91312789916992
321;0.0;0.0;0.0;0.05660799890756607;-0.9662399888038635;1.1331360340118408;0.0;0.0;0.0
323;0.0;0.0;0.0;0.044895999133586884;-0.9779520034790039;1.1536319255828857;0.0;0.0;0.0
325;0.0;0.0;0.0;0.013663999736309052;-1.0208959579467773;1.1214239597320557;0.0;0.0;0.0
327;-0.08295999467372894;-0.8400920033454895;1.0086959600448608;0.02147199958562851;-1.0208959579467773;1.1458239555358887;2.091249942779541;30.086875915527344;44.11312484741211
329;0.0;0.0;0.0;-0.009759999811649323;-0.9896639585494995;1.1419199705123901;0.0;0.0;0.0
331;0.0;0.0;0.0;0.029279999434947968;-1.0287039279937744;1.1214239597320557;0.0;0.0;0.0
333;0.0;0.0;0.0;0.0605119988322258;-0.9896639585494995;1.1575360298156738;0.0;0.0;0.0
336;-0.09027999639511108;-0.8671759963035583;1.009671926498413;0.05660799890756607;-1.0013760328292847;1.1419199705123901;-1.8287500143051147;23.50687599182129;35.22312545776367
338;0.0;0.0;0.0;0.06831999868154526;-0.9935680031776428;1.1458239555358887;0.0;0.0;0.0
340;0.0;0.0;0.0;0.044895999133586884;-0.9974719882011414;1.1380159854888916;0.0;0.0;0.0
342;0.0;0.0;0.0;0.04879999905824661;-1.0404160022735596;1.1009279489517212;0.0;0.0;0.0
344;-0.06905199587345123;-0.8871839642524719;1.0003999471664429;0.040991999208927155;-1.0326080322265625;1.1292319297790527;0.6212499737739563;16.016876220703125;31.02312660217285
346;0.0;0.0;0.0;0.040991999208927155;-1.075551986694336;1.1048319339752197;0.0;0.0;0.0
348;0.0;0.0;0.0;0.06441599875688553;-1.1067839860916138;1.1292319297790527;0.0;0.0;0.0
350;0.0;0.0;0.0;0.09857599437236786;-1.1458239555358887;1.1214239597320557;0.0;0.0;0.0
353;-0.050995998084545135;-0.9669719934463501;0.9933239817619324;0.09174399822950363;-1.1497279405593872;1.1702239513397217;5.451250076293945;11.256875038146973;28.993125915527344
355;0.0;0.0;0.0;0.09467199444770813;-1.1614400148391724;1.1702239513397217;0.0;0.0;0.0
357;0.0;0.0;0.0;0.10638399422168732;-1.1848639249801636;1.1946239471435547;0.0;0.0;0.0
359;0.0;0.0;0.0;0.07612799853086472;-1.2434239387512207;1.2063360214233398;0.0;0.0;0.0
361;-0.029523998498916626;-1.0518839359283447;1.060912013053894;0.05660799890756607;-1.2121919393539429;1.23854398727417;7.551249980926514;18.046875;23.04312515258789
363;0.0;0.0;0.0;0.013663999736309052;-1.2004799842834473;1.2395199537277222;0.0;0.0;0.0
365;0.0;0.0;0.0;-0.013663999736309052;-1.2004799842834473;1.2961280345916748;0.0;0.0;0.0
367;0.0;0.0;0.0;-0.040991999208927155;-1.165343999862671;1.2922239303588867;0.0;0.0;0.0
370;-0.1361519992351532;-1.0570080280303955;1.136307954788208;-0.06441599875688553;-1.134112000465393;1.3039360046386719;6.361249923706055;19.656875610351562;13.173125267028809
372;0.0;0.0;0.0;-0.08393599838018417;-1.083359956741333;1.3000320196151733;0.0;0.0;0.0
374;0.0;0.0;0.0;-0.09174399822950363;-1.0794559717178345;1.2961280345916748;0.0;0.0;0.0
376;0.0;0.0;0.0;-0.06441599875688553;-1.0638400316238403;1.2795360088348389;0.0;0.0;0.0
378;-0.19861599802970886;-0.9472079873085022;1.1592439413070679;-0.06441599875688553;-1.0404160022735596;1.262943983078003;3.4912500381469727;2.6468751430511475;4.773124694824219
380;0.0;0.0;0.0;-0.0605119988322258;-0.985759973526001;1.2473279237747192;0.0;0.0;0.0
382;0.0;0.0;0.0;-0.013663999736309052;-0.9701439738273621;1.1946239471435547;0.0;0.0;0.0
384;0.0;0.0;0.0;0.02537599951028824;-0.9389119744300842;1.1702239513397217;0.0;0.0;0.0
387;-0.12931999564170837;-0.8261839747428894;1.059448003768921;0.040991999208927155;-0.8803519606590271;1.1175199747085571;2.4412500858306885;-23.323123931884766;2.0431249141693115
389;0.0;0.0;0.0;0.09857599437236786;-0.8803519606590271;1.10971200466156;0.0;0.0;0.0
391;0.0;0.0;0.0;0.15323199331760406;-0.8413119912147522;1.0726239681243896;0.0;0.0;0.0
393;0.0;0.0;0.0;0.2000799924135208;-0.8491199612617493;1.0570080280303955;0.0;0.0;0.0
395;0.032207999378442764;-0.7102839946746826;0.949891984462738;0.21569599211215973;-0.7788479924201965;1.036512017250061;1.1812500953674316;-36.6931266784668;0.8531249761581421
397;0.0;0.0;0.0;0.1844639927148819;-0.7788479924201965;0.9750239849090576;0.0;0.0;0.0
399;0.0;0.0;0.0;0.2235039919614792;-0.7476159930229187;0.9555040001869202;0.0;0.0;0.0
401;0.0;0.0;0.0;0.24302399158477783;-0.7398079633712769;0.8979200124740601;0.0;0.0;0.0
404;0.1000399962067604;-0.6117079854011536;0.8244760036468506;0.2391199916601181;-0.708575963973999;0.8979200124740601;-2.458750009536743;-30.88312530517578;1.1331250667572021
406;0.0;0.0;0.0;0.2820639908313751;-0.6890559792518616;0.9027999639511108;0.0;0.0;0.0
408;0.0;0.0;0.0;0.3211039900779724;-0.685151994228363;0.8862079977989197;0.0;0.0;0.0
410;0.0;0.0;0.0;0.32500800490379333;-0.6578239798545837;0.8783999681472778;0.0;0.0;0.0
412;0.1844639927148819;-0.5358240008354187;0.7605479955673218;0.32891198992729187;-0.685151994228363;0.8901119828224182;-2.668750047683716;-20.663124084472656;3.3731250762939453
414;0.0;0.0;0.0;0.32891198992729187;-0.6265919804573059;0.8901119828224182;0.0;0.0;0.0
416;0.0;0.0;0.0;0.3172000050544739;-0.6304959654808044;0.9428159594535828;0.0;0.0;0.0
418;0.0;0.0;0.0;0.32500800490379333;-0.6461119651794434;0.9838079810142517;0.0;0.0;0.0
421;0.19617599248886108;-0.5072759985923767;0.8127639889717102;0.2664479911327362;-0.6070719957351685;0.9955199956893921;-4.908750057220459;-2.6031248569488525;4.073124885559082
423;0.0;0.0;0.0;0.26254400610923767;-0.6344000101089478;1.036512017250061;0.0;0.0;0.0
425;0.0;0.0;0.0;0.23131199181079865;-0.5953599810600281;1.060912013053894;0.0;0.0;0.0
427;0.0;0.0;0.0;0.20788799226284027;-0.6265919804573059;1.0521279573440552;0.0;0.0;0.0
429;0.10540799796581268;-0.48604798316955566;0.9264679551124573;0.14932799339294434;-0.6344000101089478;1.1009279489517212;-14.988750457763672;21.406875610351562;-0.4768750071525574
431;0.0;0.0;0.0;0.14151999354362488;-0.6226879954338074;1.1009279489517212;0.0;0.0;0.0
433;0.0;0.0;0.0;0.10247999429702759;-0.5953599810600281;1.1136159896850586;0.0;0.0;0.0
436;0.0;0.0;0.0;0.0878399983048439;-0.5446079969406128;1.1497279405593872;0.0;0.0;0.0
438;-0.017079999670386314;-0.45359599590301514;0.9913719892501831;0.044895999133586884;-0.5328959822654724;1.1214239597320557;-23.03875160217285;29.806875228881836;-6.286875247955322
440;0.0;0.0;0.0;0.02537599951028824;-0.4938559830188751;1.1380159854888916;0.0;0.0;0.0
442;0.0;0.0;0.0;0.040991999208927155;-0.4626239836215973;1.1175199747085571;0.0;0.0;0.0
444;0.0;0.0;0.0;0.013663999736309052;-0.4509119987487793;1.10971200466156;0.0;0.0;0.0
446;-0.0878399983048439;-0.33720800280570984;0.9720959663391113;0.04879999905824661;-0.423583984375;1.060912013053894;-24.158750534057617;17.20687484741211;-9.016875267028809
448;0.0;0.0;0.0;0.07612799853086472;-0.39235198497772217;1.036512017250061;0.0;0.0;0.0
450;0.0;0.0;0.0;0.12590399384498596;-0.3533119857311249;1.0404160022735596;0.0;0.0;0.0
453;0.0;0.0;0.0;0.12199999392032623;-0.32207998633384705;1.0648159980773926;0.0;0.0;0.0
455;-0.022447999566793442;-0.22008799016475677;0.907435953617096;0.14151999354362488;-0.29475200176239014;1.019919991493225;-18.55875015258789;6.566874980926514;-10.416874885559082
457;0.0;0.0;0.0;0.16103999316692352;-0.24009600281715393;1.036512017250061;0.0;0.0;0.0
459;0.0;0.0;0.0;0.18055999279022217;-0.2596159875392914;1.0043039321899414;0.0;0.0;0.0
461;0.0;0.0;0.0;0.16494399309158325;-0.2908479869365692;1.0238239765167236;0.0;0.0;0.0
463;0.03879600018262863;-0.1378600001335144;0.8947479724884033;0.13761599361896515;-0.30646398663520813;1.036512017250061;-12.888750076293945;10.20687484741211;-15.316875457763672
465;0.0;0.0;0.0;0.13761599361896515;-0.37673598527908325;1.0804319381713867;0.0;0.0;0.0
467;0.0;0.0;0.0;0.10247999429702759;-0.3806400001049042;1.1419199705123901;0.0;0.0;0.0
470;0.0;0.0;0.0;0.0878399983048439;-0.3806400001049042;1.1868159770965576;0.0;0.0;0.0
472;-0.008295999839901924;-0.23668000102043152;1.0099159479141235;0.07612799853086472;-0.36111998558044434;1.2551360130310059;-14.7787504196167;29.38687515258789;-21.196874618530273
474;0.0;0.0;0.0;0.02537599951028824;-0.36111998558044434;1.3449280261993408;0.0;0.0;0.0
476;0.0;0.0;0.0;-0.0019519999623298645;-0.3533119857311249;1.3693280220031738;0.0;0.0;0.0
478;0.0;0.0;0.0;-0.05270399898290634;-0.3455039858818054;1.401535987854004;0.0;0.0;0.0
480;-0.1378600001335144;-0.2042279988527298;1.229759931564331;-0.115167997777462;-0.28303998708724976;1.433743953704834;-27.098751068115234;54.166873931884766;-34.076873779296875
482;0.0;0.0;0.0;-0.1571359932422638;-0.28303998708724976;1.433743953704834;0.0;0.0;0.0
484;0.0;0.0;0.0;-0.2235039919614792;-0.2635200023651123;1.45033597946167;0.0;0.0;0.0
487;0.0;0.0;0.0;-0.21959999203681946;-0.236191987991333;1.4220319986343384;0.0;0.0;0.0
489;-0.3071959912776947;-0.12492799758911133;1.2985680103302002;-0.2000799924135208;-0.23228800296783447;1.4054399728775024;-35.49875259399414;45.62687301635742;-45.27687454223633
491;0.0;0.0;0.0;-0.2235039919614792;-0.1815359890460968;1.401535987854004;0.0;0.0;0.0
493;0.0;0.0;0.0;-0.1727519929409027;-0.19324800372123718;1.3937280178070068;0.0;0.0;0.0
495;0.0;0.0;0.0;-0.16103999316692352;-0.1268799901008606;1.377135992050171;0.0;0.0;0.0
497;-0.30158400535583496;-0.035868000239133835;1.246840000152588;-0.1727519929409027;-0.09955199807882309;1.3205280303955078;-29.688751220703125;4.536875247955322;-48.63687515258789
499;0.0;0.0;0.0;-0.1268799901008606;-0.05660799890756607;1.3000320196151733;0.0;0.0;0.0
501;0.0;0.0;0.0;-0.0878399983048439;-0.044895999133586884;1.2551360130310059;0.0;0.0;0.0
504;0.0;0.0;0.0;-0.02147199958562851;-0.029279999434947968;1.1985279321670532;0.0;0.0;0.0
506;-0.1995919942855835;0.09467199444770813;1.1021479368209839;0.037087999284267426;0.009759999811649323;1.1292319297790527;-21.848751068115234;-35.993125915527344;-48.70687484741211
508;0.0;0.0;0.0;0.06831999868154526;0.040991999208927155;1.0726239681243896;0.0;0.0;0.0
510;0.0;0.0;0.0;0.13371199369430542;0.11126399785280228;1.0277279615402222;0.0;0.0;0.0
512;0.0;0.0;0.0;0.18055999279022217;0.0878399983048439;0.9711199998855591;0.0;0.0;0.0
514;0.004879999905824661;0.19983600080013275;0.8988959789276123;0.21569599211215973;0.07222399860620499;0.9067040085792542;-17.01875114440918;-52.0931282043457;-49.0568733215332
516;0.0;0.0;0.0;0.2117919921875;0.1542080044746399;0.8862079977989197;0.0;0.0;0.0
518;0.0;0.0;0.0;0.27425599098205566;0.17372798919677734;0.8169119954109192;0.0;0.0;0.0
521;0.0;0.0;0.0;0.3093920052051544;0.21667200326919556;0.7925119996070862;0.0;0.0;0.0
523;0.14566799998283386;0.32964399456977844;0.7156519889831543;0.2664479911327362;0.3337920010089874;0.8051999807357788;-10.368749618530273;-47.333126068115234;-43.52687454223633
525;0.0;0.0;0.0;0.35624000430107117;0.2479040026664734;0.7642079591751099;0.0;0.0;0.0
527;0.0;0.0;0.0;0.3484320044517517;0.3337920010089874;0.7925119996070862;0.0;0.0;0.0
529;0.0;0.0;0.0;0.3835679888725281;0.30646398663520813;0.7642079591751099;0.0;0.0;0.0
531;0.23521599173545837;0.42968398332595825;0.6453799605369568;0.3445279896259308;0.26742398738861084;0.7642079591751099;-5.608749866485596;-22.483123779296875;-38.416873931884766
533;0.0;0.0;0.0;0.32500800490379333;0.3025600016117096;0.7398079633712769;0.0;0.0;0.0
535;0.0;0.0;0.0;0.32500800490379333;0.28303998708724976;0.7768959999084473;0.0;0.0;0.0
538;0.0;0.0;0.0;0.31329599022865295;0.31036800146102905;0.8051999807357788;0.0;0.0;0.0
540;0.18665999174118042;0.4211439788341522;0.664900004863739;0.25863999128341675;0.30646398663520813;0.8295999765396118;-1.5487499237060547;13.636874198913574;-37.506874084472656
542;0.0;0.0;0.0;0.20788799226284027;0.3298879861831665;0.8657119870185852;0.0;0.0;0.0
544;0.0;0.0;0.0;0.2000799924135208;0.3181760013103485;0.9145119786262512;0.0;0.0;0.0
546;0.0;0.0;0.0;0.16103999316692352;0.33769598603248596;0.9555040001869202;0.0;0.0;0.0
548;0.0756400004029274;0.46335598826408386;0.7866559624671936;0.15323199331760406;0.3416000008583069;0.9955199956893921;4.121250152587891;35.546875;-37.15687561035156
550;0.0;0.0;0.0;0.14151999354362488;0.3455039858818054;1.0404160022735596;0.0;0.0;0.0
552;0.0;0.0;0.0;0.13761599361896515;0.3728320002555847;1.0804319381713867;0.0;0.0;0.0
555;0.0;0.0;0.0;0.12199999392032623;0.4079679846763611;1.1292319297790527;0.0;0.0;0.0
557;0.009027999825775623;0.5224040150642395;0.9474520087242126;0.11126399785280228;0.45481598377227783;1.1575360298156738;5.101250171661377;39.326873779296875;-37.36687469482422
559;0.0;0.0;0.0;0.044895999133586884;0.4782399833202362;1.1946239471435547;0.0;0.0;0.0
561;0.0;0.0;0.0;0.029279999434947968;0.4626239836215973;1.1946239471435547;0.0;0.0;0.0
563;0.0;0.0;0.0;0.02147199958562851;0.5016639828681946;1.2063360214233398;0.0;0.0;0.0
565;-0.06905199587345123;0.5973119735717773;1.0638400316238403;0.029279999434947968;0.47043198347091675;1.2307360172271729;-1.5487499237060547;34.916873931884766;-38.69687271118164
567;0.0;0.0;0.0;0.013663999736309052;0.49775999784469604;1.2590399980545044;0.0;0.0;0.0
569;0.0;0.0;0.0;0.02147199958562851;0.5172799825668335;1.2756320238113403;0.0;0.0;0.0
572;0.0;0.0;0.0;0.06831999868154526;0.513375997543335;1.2756320238113403;0.0;0.0;0.0
574;-0.07441999763250351;0.6331799626350403;1.12801194190979;0.07612799853086472;0.5289919972419739;1.2639199495315552;-13.098750114440918;30.016876220703125;-42.266876220703125
576;0.0;0.0;0.0;0.09174399822950363;0.521183967590332;1.2590399980545044;0.0;0.0;0.0
578;0.0;0.0;0.0;0.11419199407100677;0.5524159669876099;1.2512320280075073;0.0;0.0;0.0
580;0.0;0.0;0.0;0.09174399822950363;0.5602239966392517;1.2512320280075073;0.0;0.0;0.0
582;-0.024156000465154648;0.6736840009689331;1.1175199747085571;0.0878399983048439;0.5797439813613892;1.2346400022506714;-20.51875114440918;24.066875457763672;-45.766876220703125
585;0.0;0.0;0.0;0.09955199807882309;0.5797439813613892;1.2434239387512207;0.0;0.0;0.0
586;0.0;0.0;0.0;0.11419199407100677;0.5836479663848877;1.2190239429473877;0.0;0.0;0.0
589;0.0;0.0;0.0;0.1180959939956665;0.5992639660835266;1.2229279279708862;0.0;0.0;0.0
591;-0.01268799975514412;0.7139439582824707;1.0997079610824585;0.13761599361896515;0.587552011013031;1.2395199537277222;-20.658750534057617;17.97687530517578;-48.146873474121094
593;0.0;0.0;0.0;0.1298079937696457;0.6031680107116699;1.2268320322036743;0.0;0.0;0.0
595;0.0;0.0;0.0;0.1727519929409027;0.6187840104103088;1.2307360172271729;0.0;0.0;0.0
597;0.0;0.0;0.0;0.18055999279022217;0.6226879954338074;1.2024319171905518;0.0;0.0;0.0
599;0.03635599836707115;0.7576199769973755;1.087996006011963;0.17665599286556244;0.6773439645767212;1.2063360214233398;-18.418750762939453;16.716875076293945;-51.576873779296875
602;0.0;0.0;0.0;0.19617599248886108;0.700767993927002;1.1741279363632202;0.0;0.0;0.0
603;0.0;0.0;0.0;0.16494399309158325;0.7476159930229187;1.1741279363632202;0.0;0.0;0.0
606;0.0;0.0;0.0;0.2235039919614792;0.7905600070953369;1.1663199663162231;0.0;0.0;0.0
608;0.07466399669647217;0.8945040106773376;1.055299997329712;0.2000799924135208;0.8608319759368896;1.1497279405593872;-13.588749885559082;16.716875076293945;-51.85687255859375
610;0.0;0.0;0.0;0.23521599173545837;0.9037759900093079;1.1575360298156738;0.0;0.0;0.0
612;0.0;0.0;0.0;0.23131199181079865;0.9311040043830872;1.1458239555358887;0.0;0.0;0.0
614;0.0;0.0;0.0;0.2235039919614792;0.9350079894065857;1.1292319297790527;0.0;0.0;0.0
616;0.11004399508237839;1.0521279573440552;1.0174800157546997;0.24302399158477783;0.9818559885025024;1.1048319339752197;-6.93874979019165;15.946874618530273;-44.506874084472656
618;0.0;0.0;0.0;0.26254400610923767;0.985759973526001;1.1048319339752197;0.0;0.0;0.0
620;0.0;0.0;0.0;0.25863999128341675;0.9740479588508606;1.1292319297790527;0.0;0.0;0.0
623;0.0;0.0;0.0;0.2391199916601181;1.036512017250061;1.1292319297790527;0.0;0.0;0.0
625;0.13419999182224274;1.1172759532928467;1.0045479536056519;0.23131199181079865;0.9779520034790039;1.1575360298156738;1.4612500667572021;27.146875381469727;-31.97687530517578
627;0.0;0.0;0.0;0.19617599248886108;1.0208959579467773;1.1663199663162231;0.0;0.0;0.0
629;0.0;0.0;0.0;0.15323199331760406;0.985759973526001;1.2307360172271729;0.0;0.0;0.0
631;0.0;0.0;0.0;0.13371199369430542;1.0091840028762817;1.2473279237747192;0.0;0.0;0.0
633;0.031964000314474106;1.123863935470581;1.0816519260406494;0.09174399822950363;0.9662399888038635;1.2834399938583374;9.651249885559082;41.076873779296875;-19.516874313354492
635;0.0;0.0;0.0;0.0605119988322258;0.9154880046844482;1.3166239261627197;0.0;0.0;0.0
638;0.0;0.0;0.0;0.09174399822950363;0.8100799918174744;1.2795360088348389;0.0;0.0;0.0
640;0.0;0.0;0.0;-0.08393599838018417;0.8100799918174744;1.3322399854660034;0.0;0.0;0.0
642;-0.09174399822950363;1.0233359336853027;1.199504017829895;0.029279999434947968;1.0950720310211182;1.5030399560928345;14.69124984741211;42.26687240600586;-10.066875457763672
644;0.0;0.0;0.0;0.02147199958562851;1.0677440166473389;1.4298399686813354;0.0;0.0;0.0
646;0.0;0.0;0.0;-0.07612799853086472;0.8374080061912537;1.2795360088348389;0.0;0.0;0.0
648;0.0;0.0;0.0;-0.08003199845552444;0.8374080061912537;1.2678239345550537;0.0;0.0;0.0
650;-0.15811198949813843;1.0418800115585327;1.2060920000076294;-0.05660799890756607;0.774944007396698;1.2678239345550537;12.87125015258789;24.766876220703125;-1.9468748569488525
652;0.0;0.0;0.0;-0.02147199958562851;0.9545279741287231;1.3810399770736694;0.0;0.0;0.0
655;0.0;0.0;0.0;0.040991999208927155;0.8998720049858093;1.3078399896621704;0.0;0.0;0.0
657;0.0;0.0;0.0;0.06441599875688553;0.8608319759368896;1.3039360046386719;0.0;0.0;0.0
659;-0.11028799414634705;1.0113799571990967;1.1914520263671875;0.0019519999623298645;0.87254399061203;1.2922239303588867;17.001249313354492;1.5268750190734863;3.3031251430511475
661;0.0;0.0;0.0;0.0605119988322258;0.8335039615631104;1.311743974685669;0.0;0.0;0.0
663;0.0;0.0;0.0;0.08003199845552444;0.8530240058898926;1.3000320196151733;0.0;0.0;0.0
665;0.0;0.0;0.0;0.07612799853086472;0.8100799918174744;1.2346400022506714;0.0;0.0;0.0
667;-0.054899998009204865;0.9708759784698486;1.1411880254745483;0.07612799853086472;0.8608319759368896;1.2473279237747192;12.241250038146973;-9.953125;8.55312442779541
670;0.0;0.0;0.0;0.05270399898290634;0.9115839600563049;1.2473279237747192;0.0;0.0;0.0
672;0.0;0.0;0.0;0.09564799815416336;0.8647359609603882;1.2190239429473877;0.0;0.0;0.0
674;0.0;0.0;0.0;0.10247999429702759;0.9232959747314453;1.2268320322036743;0.0;0.0;0.0
676;-0.027327999472618103;1.0216280221939087;1.101904034614563;0.11419199407100677;0.9232959747314453;1.1907199621200562;2.4412500858306885;-6.593124866485596;14.153124809265137
678;0.0;0.0;0.0;0.09174399822950363;0.9076799750328064;1.1741279363632202;0.0;0.0;0.0
680;0.0;0.0;0.0;0.040991999208927155;0.9076799750328064;1.1458239555358887;0.0;0.0;0.0
682;0.0;0.0;0.0;0.06831999868154526;0.8998720049858093;1.1253279447555542;0.0;0.0;0.0
684;-0.054655998945236206;1.0228480100631714;1.0187000036239624;0.05270399898290634;0.87254399061203;1.1175199747085571;-5.74875020980835;-3.2331249713897705;23.393125534057617
686;0.0;0.0;0.0;0.08393599838018417;0.8413119912147522;1.1214239597320557;0.0;0.0;0.0
689;0.0;0.0;0.0;0.08295999467372894;0.8178879618644714;1.1048319339752197;0.0;0.0;0.0
691;0.0;0.0;0.0;0.06441599875688553;0.8139839768409729;1.0970239639282227;0.0;0.0;0.0
693;-0.04172400012612343;0.9559919834136963;0.9728279709815979;0.08393599838018417;0.7710399627685547;1.0892159938812256;-8.4087495803833;-7.083125114440918;32.073123931884766
695;0.0;0.0;0.0;0.08393599838018417;0.7827519774436951;1.085312008857727;0.0;0.0;0.0
697;0.0;0.0;0.0;0.0605119988322258;0.7671359777450562;1.0687199831008911;0.0;0.0;0.0
699;0.0;0.0;0.0;0.04879999905824661;0.7437120079994202;0.9799039959907532;0.0;0.0;0.0
701;-0.062219999730587006;0.8971880078315735;0.9057279825210571;0.013663999736309052;0.7319999933242798;0.9428159594535828;-12.258749961853027;-14.363125801086426;39.07312774658203
704;0.0;0.0;0.0;0.07222399860620499;0.700767993927002;0.9223200082778931;0.0;0.0;0.0
706;0.0;0.0;0.0;0.08003199845552444;0.6226879954338074;0.8618080019950867;0.0;0.0;0.0
708;0.0;0.0;0.0;0.0878399983048439;0.5563200116157532;0.7925119996070862;0.0;0.0;0.0
710;-0.026839999482035637;0.7512759566307068;0.7302919626235962;0.21569599211215973;0.5289919972419739;0.7075999975204468;-14.498749732971191;-20.803125381469727;46.84312438964844
712;0.0;0.0;0.0;0.2117919921875;0.5250880122184753;0.7154079675674438;0.0;0.0;0.0
714;0.0;0.0;0.0;0.21959999203681946;0.4782399833202362;0.6470879912376404;0.0;0.0;0.0
716;0.0;0.0;0.0;0.18836799263954163;0.44310399889945984;0.6265919804573059;0.0;0.0;0.0
718;0.08515600115060806;0.6063399910926819;0.5487560033798218;0.1727519929409027;0.4001599848270416;0.6509919762611389;-6.658750057220459;-14.993125915527344;53.98312759399414
721;0.0;0.0;0.0;0.2000799924135208;0.30646398663520813;0.6265919804573059;0.0;0.0;0.0
723;0.0;0.0;0.0;0.16103999316692352;0.2635200023651123;0.6304959654808044;0.0;0.0;0.0
725;0.0;0.0;0.0;0.14932799339294434;0.1815359890460968;0.6431840062141418;0.0;0.0;0.0
727;0.035868000239133835;0.3945479989051819;0.5163040161132812;0.10638399422168732;0.15030398964881897;0.6588000059127808;3.981250047683716;7.686874866485596;60.703125
729;0.0;0.0;0.0;0.07222399860620499;0.0878399983048439;0.6792960166931152;0.0;0.0;0.0
731;0.0;0.0;0.0;0.0331839993596077;0.06441599875688553;0.6871039867401123;0.0;0.0;0.0
733;0.0;0.0;0.0;-0.0058559998869895935;0.04879999905824661;0.7729920148849487;0.0;0.0;0.0
735;-0.08686399459838867;0.20032399892807007;0.6043879985809326;0.0019519999623298645;0.01756799966096878;0.8012959957122803;10.561249732971191;39.81687545776367;62.31312561035156
738;0.0;0.0;0.0;-0.06831999868154526;-0.0058559998869895935;0.8452159762382507;0.0;0.0;0.0
740;0.0;0.0;0.0;-0.10735999792814255;0.009759999811649323;0.8256959915161133;0.0;0.0;0.0
742;0.0;0.0;0.0;-0.20788799226284027;-0.009759999811649323;0.8413119912147522;0.0;0.0;0.0
744;-0.24399998784065247;0.13078400492668152;0.7097960114479065;-0.2235039919614792;-0.029279999434947968;0.8295999765396118;16.581249237060547;53.396873474121094;64.69312286376953
746;0.0;0.0;0.0;-0.24302399158477783;-0.06831999868154526;0.8579039573669434;0.0;0.0;0.0
748;0.0;0.0;0.0;-0.24302399158477783;-0.02537599951028824;0.8783999681472778;0.0;0.0;0.0
750;0.0;0.0;0.0;-0.2235039919614792;-0.013663999736309052;0.8988959789276123;0.0;0.0;0.0
752;-0.3508719801902771;0.09027999639511108;0.7603039741516113;-0.1571359932422638;-0.0605119988322258;0.9515999555587769;30.37125015258789;32.81687545776367;72.953125
755;0.0;0.0;0.0;-0.1727519929409027;-0.08393599838018417;1.0033279657363892;0.0;0.0;0.0
757;0.0;0.0;0.0;-0.1268799901008606;-0.115167997777462;0.9916160106658936;0.0;0.0;0.0
759;0.0;0.0;0.0;-0.1571359932422638;-0.20105600357055664;1.0033279657363892;0.0;0.0;0.0
761;-0.2874319851398468;-0.01512799970805645;0.8552199602127075;-0.18055999279022217;-0.20495998859405518;0.9799039959907532;35.69124984741211;18.326875686645508;79.3231201171875
763;0.0;0.0;0.0;-0.20788799226284027;-0.2596159875392914;1.012112021446228;0.0;0.0;0.0
765;0.0;0.0;0.0;-0.16591998934745789;-0.32207998633384705;1.0482239723205566;0.0;0.0;0.0
767;0.0;0.0;0.0;-0.1268799901008606;-0.3455039858818054;1.0570080280303955;0.0;0.0;0.0
769;-0.28645598888397217;-0.17909599840641022;0.9118279814720154;-0.16103999316692352;-0.37673598527908325;1.1009279489517212;28.831249237060547;17.20687484741211;80.3031234741211
772;0.0;0.0;0.0;-0.115167997777462;-0.41967999935150146;1.1458239555358887;0.0;0.0;0.0
774;0.0;0.0;0.0;-0.14932799339294434;-0.3142719864845276;1.2346400022506714;0.0;0.0;0.0
776;0.0;0.0;0.0;-0.1298079937696457;-0.4938559830188751;1.1331360340118408;0.0;0.0;0.0
778;-0.2752319872379303;-0.28669998049736023;1.0328519344329834;-0.2000799924135208;-0.4782399833202362;1.1624159812927246;11.821249961853027;28.47687530517578;77.5731201171875
780;0.0;0.0;0.0;-0.2117919921875;-0.49775999784469604;1.1858400106430054;0.0;0.0;0.0
782;0.0;0.0;0.0;-0.2000799924135208;-0.4938559830188751;1.1780319213867188;0.0;0.0;0.0
784;0.0;0.0;0.0;-0.21569599211215973;-0.5172799825668335;1.1536319255828857;0.0;0.0;0.0
786;-0.3276920020580292;-0.37966400384902954;1.0396839380264282;-0.19227199256420135;-0.610975980758667;1.1331360340118408;-7.078750133514404;23.786874771118164;75.68312072753906
789;0.0;0.0;0.0;-0.15030398964881897;-0.685151994228363;1.1214239597320557;0.0;0.0;0.0
791;0.0;0.0;0.0;-0.13468798995018005;-0.7359039783477783;1.1048319339752197;0.0;0.0;0.0
793;0.0;0.0;0.0;-0.09564799815416336;-0.8061760067939758;1.10971200466156;0.0;0.0;0.0
795;-0.25034400820732117;-0.6134160161018372;0.9835639595985413;-0.11907199770212173;-0.9037759900093079;1.0970239639282227;-17.298751831054688;14.406874656677246;77.08312225341797
797;0.0;0.0;0.0;-0.0605119988322258;-0.9701439738273621;1.0931199789047241;0.0;0.0;0.0
799;0.0;0.0;0.0;-0.029279999434947968;-0.985759973526001;1.134112000465393;0.0;0.0;0.0
801;0.0;0.0;0.0;-0.0331839993596077;-1.0599359273910522;1.1009279489517212;0.0;0.0;0.0
803;-0.16494399309158325;-0.8659560084342957;0.985759973526001;-0.044895999133586884;-1.09116792678833;1.10971200466156;-20.30875015258789;22.806875228881836;73.3031234741211
806;0.0;0.0;0.0;-0.037087999284267426;-1.1575360298156738;1.1009279489517212;0.0;0.0;0.0
808;0.0;0.0;0.0;-0.044895999133586884;-1.1848639249801636;1.0892159938812256;0.0;0.0;0.0
810;0.0;0.0;0.0;-0.040991999208927155;-1.2082879543304443;1.0765279531478882;0.0;0.0;0.0
812;-0.15860000252723694;-1.0401719808578491;0.954039990901947;-0.0605119988322258;-1.2278079986572266;1.044319987297058;-18.068750381469727;27.00687599182129;68.61312103271484
814;0.0;0.0;0.0;-0.009759999811649323;-1.2512320280075073;1.0648159980773926;0.0;0.0;0.0
816;0.0;0.0;0.0;0.01756799966096878;-1.2551360130310059;1.1009279489517212;0.0;0.0;0.0
818;0.0;0.0;0.0;0.044895999133586884;-1.2980799674987793;1.1048319339752197;0.0;0.0;0.0
820;-0.10687199980020523;-1.1226439476013184;0.9618479609489441;0.04879999905824661;-1.2746559381484985;1.1048319339752197;-8.96875;24.836875915527344;63.64312744140625
823;0.0;0.0;0.0;0.029279999434947968;-1.313696026802063;1.1136159896850586;0.0;0.0;0.0
825;0.0;0.0;0.0;0.04879999905824661;-1.313696026802063;1.1048319339752197;0.0;0.0;0.0
827;0.0;0.0;0.0;0.013663999736309052;-1.3371199369430542;1.1136159896850586;0.0;0.0;0.0
829;-0.09979599714279175;-1.1921839714050293;0.9952759742736816;0.01756799966096878;-1.3878719806671143;1.1458239555358887;-4.978749752044678;32.396873474121094;59.37312698364258
831;0.0;0.0;0.0;0.040991999208927155;-1.4308159351348877;1.1907199621200562;0.0;0.0;0.0
833;0.0;0.0;0.0;0.04879999905824661;-1.4776639938354492;1.2229279279708862;0.0;0.0;0.0
835;0.0;0.0;0.0;0.029279999434947968;-1.5167039632797241;1.2551360130310059;0.0;0.0;0.0
837;-0.08442399650812149;-1.331507921218872;1.0955599546432495;-0.013663999736309052;-1.5674560070037842;1.2834399938583374;-4.558750152587891;49.0568733215332;52.163124084472656
840;0.0;0.0;0.0;-0.0058559998869895935;-1.547935962677002;1.3283360004425049;0.0;0.0;0.0
842;0.0;0.0;0.0;-0.037087999284267426;-1.5713599920272827;1.352735996246338;0.0;0.0;0.0
844;0.0;0.0;0.0;-0.07612799853086472;-1.606495976448059;1.4054399728775024;0.0;0.0;0.0
846;-0.16713999211788177;-1.4491159915924072;1.2326879501342773;-0.11907199770212173;-1.653343915939331;1.4298399686813354;-5.18874979019165;67.88687896728516;41.59312438964844
848;0.0;0.0;0.0;-0.14932799339294434;-1.6650559902191162;1.4952319860458374;0.0;0.0;0.0
850;0.0;0.0;0.0;-0.16494399309158325;-1.6923840045928955;1.5352479219436646;0.0;0.0;0.0
852;0.0;0.0;0.0;-0.2000799924135208;-1.7197120189666748;1.5762399435043335;0.0;0.0;0.0
854;-0.2945079803466797;-1.5454959869384766;1.401047945022583;-0.2117919921875;-1.7001919746398926;1.6123520135879517;-4.278749942779541;72.296875;27.873125076293945
857;0.0;0.0;0.0;-0.2664479911327362;-1.6728639602661133;1.6650559902191162;0.0;0.0;0.0
859;0.0;0.0;0.0;-0.29767999053001404;-1.6845759153366089;1.6982399225234985;0.0;0.0;0.0
861;0.0;0.0;0.0;-0.29767999053001404;-1.6806719303131104;1.7304480075836182;0.0;0.0;0.0
863;-0.4067479968070984;-1.5574519634246826;1.5489119291305542;-0.3328160047531128;-1.6650559902191162;1.7421599626541138;-3.018749952316284;62.146873474121094;11.213125228881836
865;0.0;0.0;0.0;-0.3396480083465576;-1.645535945892334;1.743135929107666;0.0;0.0;0.0
867;0.0;0.0;0.0;-0.35916799306869507;-1.6143039464950562;1.7265440225601196;0.0;0.0;0.0
869;0.0;0.0;0.0;-0.3172000050544739;-1.5635520219802856;1.7382559776306152;0.0;0.0;0.0
871;-0.46286800503730774;-1.4710760116577148;1.5964919328689575;-0.35526400804519653;-1.5206079483032227;1.7421599626541138;-1.1987500190734863;34.28687286376953;-4.956875324249268
874;0.0;0.0;0.0;-0.3328160047531128;-1.4932799339294434;1.7060480117797852;0.0;0.0;0.0
876;0.0;0.0;0.0;-0.3201279938220978;-1.4464319944381714;1.669935941696167;0.0;0.0;0.0
878;0.0;0.0;0.0;-0.2820639908313751;-1.3839679956436157;1.653343915939331;0.0;0.0;0.0
880;-0.4299280047416687;-1.2983239889144897;1.5367119312286377;-0.2547360062599182;-1.3449280261993408;1.6250399351119995;3.0712499618530273;-8.273125648498535;-16.716875076293945
882;0.0;0.0;0.0;-0.22740799188613892;-1.270751953125;1.5762399435043335;0.0;0.0;0.0
884;0.0;0.0;0.0;-0.1727519929409027;-1.231711983680725;1.5274399518966675;0.0;0.0;0.0
886;0.0;0.0;0.0;-0.13859200477600098;-1.1848639249801636;1.4864479303359985;0.0;0.0;0.0
888;-0.293287992477417;-1.105563998222351;1.3990960121154785;-0.09174399822950363;-1.1536319255828857;1.4298399686813354;4.051249980926514;-46.8431282043457;-25.046875
891;0.0;0.0;0.0;-0.044895999133586884;-1.1419199705123901;1.3937280178070068;0.0;0.0;0.0
893;0.0;0.0;0.0;-0.013663999736309052;-1.1145919561386108;1.352735996246338;0.0;0.0;0.0
895;0.0;0.0;0.0;0.0019519999623298645;-1.0950720310211182;1.3039360046386719;0.0;0.0;0.0
897;-0.13346800208091736;-0.9821000099182129;1.2234159708023071;0.0331839993596077;-1.0326080322265625;1.2834399938583374;-1.0587499141693115;-62.453125;-31.416873931884766
899;0.0;0.0;0.0;0.08393599838018417;-1.0638400316238403;1.2512320280075073;0.0;0.0;0.0
901;0.0;0.0;0.0;0.09955199807882309;-1.0130879878997803;1.2346400022506714;0.0;0.0;0.0
903;0.0;0.0;0.0;0.09174399822950363;-0.985759973526001;1.2346400022506714;0.0;0.0;0.0
905;-0.03806399926543236;-0.8815720081329346;1.1153240203857422;0.11419199407100677;-0.9896639585494995;1.2063360214233398;-11.62874984741211;-56.71312713623047;-38.97687530517578
908;0.0;0.0;0.0;0.07222399860620499;-0.9740479588508606;1.1780319213867188;0.0;0.0;0.0
910;0.0;0.0;0.0;0.07222399860620499;-0.9154880046844482;1.1702239513397217;0.0;0.0;0.0
912;0.0;0.0;0.0;0.07612799853086472;-0.9350079894065857;1.1497279405593872;0.0;0.0;0.0
914;-0.035868000239133835;-0.7995879650115967;1.044319987297058;0.07222399860620499;-0.8920639753341675;1.1380159854888916;-24.298751831054688;-42.923126220703125;-48.63687515258789
916;0.0;0.0;0.0;0.06831999868154526;-0.8530240058898926;1.1253279447555542;0.0;0.0;0.0
918;0.0;0.0;0.0;0.09955199807882309;-0.8647359609603882;1.0404160022735596;0.0;0.0;0.0
920;0.0;0.0;0.0;0.0878399983048439;-0.8061760067939758;1.044319987297058;0.0;0.0;0.0
922;-0.030499998480081558;-0.7171159982681274;0.954039990901947;0.1180959939956665;-0.8178879618644714;1.0160160064697266;-32.2087516784668;-36.55312728881836;-55.63687515258789
925;0.0;0.0;0.0;0.1454239934682846;-0.774944007396698;0.9994239807128906;0.0;0.0;0.0
927;0.0;0.0;0.0;0.1180959939956665;-0.7593280076980591;0.9916160106658936;0.0;0.0;0.0
929;0.0;0.0;0.0;0.20788799226284027;-0.7632319927215576;0.9633119702339172;0.0;0.0;0.0
931;0.03562399744987488;-0.6400119662284851;0.8579039573669434;0.2117919921875;-0.7398079633712769;0.9428159594535828;-32.55875015258789;-37.88312530517578;-57.176876068115234
933;0.0;0.0;0.0;0.26254400610923767;-0.7046719789505005;0.9594079852104187;0.0;0.0;0.0
935;0.0;0.0;0.0;0.24692799150943756;-0.7280960083007812;0.9506239891052246;0.0;0.0;0.0
937;0.0;0.0;0.0;0.2391199916601181;-0.6734399795532227;0.9916160106658936;0.0;0.0;0.0
939;0.12419600039720535;-0.5716919898986816;0.8466799855232239;0.20788799226284027;-0.7163839936256409;0.9994239807128906;-31.508750915527344;-22.27312469482422;-57.666873931884766
942;0.0;0.0;0.0;0.19617599248886108;-0.7163839936256409;1.0082080364227295;0.0;0.0;0.0
944;0.0;0.0;0.0;0.16884799301624298;-0.7124800086021423;1.0482239723205566;0.0;0.0;0.0
946;0.0;0.0;0.0;0.13371199369430542;-0.7280960083007812;1.085312008857727;0.0;0.0;0.0
948;0.05782799795269966;-0.5785239934921265;0.9152439832687378;0.16494399309158325;-0.700767993927002;1.1575360298156738;-31.01875114440918;8.596874237060547;-59.416873931884766
950;0.0;0.0;0.0;0.16884799301624298;-0.6968640089035034;1.1702239513397217;0.0;0.0;0.0
952;0.0;0.0;0.0;0.09564799815416336;-0.6890559792518616;1.2151199579238892;0.0;0.0;0.0
954;0.0;0.0;0.0;0.037087999284267426;-0.6187840104103088;1.2395199537277222;0.0;0.0;0.0
956;-0.03440399840474129;-0.5328959822654724;1.0721359252929688;-0.0058559998869895935;-0.6461119651794434;1.2346400022506714;-28.35875129699707;31.836875915527344;-62.356876373291016
959;0.0;0.0;0.0;-0.05660799890756607;-0.6070719957351685;1.287343978881836;0.0;0.0;0.0
961;0.0;0.0;0.0;-0.1268799901008606;-0.6148799657821655;1.3039360046386719;0.0;0.0;0.0
963;0.0;0.0;0.0;-0.1268799901008606;-0.5914559960365295;1.352735996246338;0.0;0.0;0.0
965;-0.21716000139713287;-0.4772639870643616;1.1665639877319336;-0.1571359932422638;-0.5602239966392517;1.3488320112228394;-21.218751907348633;27.84687614440918;-62.56687545776367
967;0.0;0.0;0.0;-0.16103999316692352;-0.5953599810600281;1.377135992050171;0.0;0.0;0.0
969;0.0;0.0;0.0;-0.13859200477600098;-0.5641279816627502;1.3810399770736694;0.0;0.0;0.0
971;0.0;0.0;0.0;-0.14932799339294434;-0.5016639828681946;1.401535987854004;0.0;0.0;0.0
973;-0.27742800116539;-0.4257799983024597;1.2356159687042236;-0.18836799263954163;-0.5524159669876099;1.384943962097168;-14.358750343322754;9.576874732971191;-64.24687957763672
976;0.0;0.0;0.0;-0.21569599211215973;-0.48604798316955566;1.377135992050171;0.0;0.0;0.0
978;0.0;0.0;0.0;-0.16494399309158325;-0.47433599829673767;1.352735996246338;0.0;0.0;0.0
980;0.0;0.0;0.0;-0.18836799263954163;-0.4470079839229584;1.3400479555130005;0.0;0.0;0.0
982;-0.3020719885826111;-0.33940398693084717;1.2131680250167847;-0.16494399309158325;-0.4470079839229584;1.2961280345916748;-11.418749809265137;-13.733125686645508;-66.6968765258789
984;0.0;0.0;0.0;-0.1571359932422638;-0.41577598452568054;1.2473279237747192;0.0;0.0;0.0
986;0.0;0.0;0.0;-0.15030398964881897;-0.36111998558044434;1.23854398727417;0.0;0.0;0.0
988;0.0;0.0;0.0;-0.10735999792814255;-0.3806400001049042;1.1741279363632202;0.0;0.0;0.0
990;-0.2496119886636734;-0.2513200044631958;1.0775039196014404;-0.09564799815416336;-0.32207998633384705;1.0970239639282227;-8.198749542236328;-37.25312805175781;-68.72687530517578
993;0.0;0.0;0.0;-0.0331839993596077;-0.2869440019130707;1.1009279489517212;0.0;0.0;0.0
995;0.0;0.0;0.0;-0.040991999208927155;-0.22838398814201355;1.0238239765167236;0.0;0.0;0.0
997;0.0;0.0;0.0;0.009759999811649323;-0.17763200402259827;0.9916160106658936;0.0;0.0;0.0
999;-0.15030398964881897;-0.09442799538373947;0.9047519564628601;0.037087999284267426;-0.13078400492668152;0.9633119702339172;-1.1987500190734863;-49.78312683105469;-70.1968765258789
1001;0.0;0.0;0.0;0.05660799890756607;-0.11907199770212173;0.9145119786262512;0.0;0.0;0.0
1003;0.0;0.0;0.0;0.0605119988322258;-0.02147199958562851;0.8783999681472778;0.0;0.0;0.0
1005;0.0;0.0;0.0;0.05270399898290634;-0.02537599951028824;0.8374080061912537;0.0;0.0;0.0
1008;-0.05514399707317352;0.0773480013012886;0.7529839873313904;0.1298079937696457;0.013663999736309052;0.8256959915161133;6.291250228881836;-52.86312484741211;-68.30687713623047
1010;0.0;0.0;0.0;0.12590399384498596;0.05660799890756607;0.8217920064926147;0.0;0.0;0.0
1012;0.0;0.0;0.0;0.14151999354362488;0.14640000462532043;0.8169119954109192;0.0;0.0;0.0
1014;0.0;0.0;0.0;0.13371199369430542;0.15811198949813843;0.8012959957122803;0.0;0.0;0.0
1016;0.01878799870610237;0.2449759989976883;0.6778320074081421;0.18055999279022217;0.1815359890460968;0.7847039699554443;12.03125;-43.833126068115234;-65.85688018798828
1018;0.0;0.0;0.0;0.2000799924135208;0.23228800296783447;0.7973920106887817;0.0;0.0;0.0
1020;0.0;0.0;0.0;0.2117919921875;0.2791360020637512;0.8130080103874207;0.0;0.0;0.0
1022;0.0;0.0;0.0;0.18836799263954163;0.3689279854297638;0.8051999807357788;0.0;0.0;0.0
1024;0.08295999467372894;0.4008919894695282;0.6758800148963928;0.24692799150943756;0.3142719864845276;0.7437120079994202;9.721250534057617;-21.433124542236328;-66.20687866210938
1027;0.0;0.0;0.0;0.21959999203681946;0.2479040026664734;0.7642079591751099;0.0;0.0;0.0
1029;0.0;0.0;0.0;0.13761599361896515;0.38844799995422363;0.8169119954109192;0.0;0.0;0.0
1031;0.0;0.0;0.0;0.1727519929409027;0.45871999859809875;0.8500959873199463;0.0;0.0;0.0
1033;0.06075599789619446;0.505079984664917;0.6788079738616943;0.14932799339294434;0.48214399814605713;0.8452159762382507;8.601249694824219;2.786875009536743;-62.986873626708984
1035;0.0;0.0;0.0;0.09955199807882309;0.4665279984474182;0.8539999723434448;0.0;0.0;0.0
1037;0.0;0.0;0.0;0.06441599875688553;0.5524159669876099;0.8940159678459167;0.0;0.0;0.0
1039;0.0;0.0;0.0;0.04879999905824661;0.5914559960365295;0.8618080019950867;0.0;0.0;0.0
1042;-0.03635599836707115;0.681003987789154;0.7388319969177246;0.06831999868154526;0.6226879954338074;0.8979200124740601;10.211250305175781;14.476874351501465;-55.916873931884766
1044;0.0;0.0;0.0;0.044895999133586884;0.6383039951324463;0.9184159636497498;0.0;0.0;0.0
1046;0.0;0.0;0.0;0.044895999133586884;0.6734399795532227;0.9877119660377502;0.0;0.0;0.0
1048;0.0;0.0;0.0;-0.0058559998869895935;0.708575963973999;1.0082080364227295;0.0;0.0;0.0
1050;-0.09223199635744095;0.8054440021514893;0.8339920043945312;-0.040991999208927155;0.6929599642753601;1.0082080364227295;13.081250190734863;16.22687530517578;-48.916873931884766
1052;0.0;0.0;0.0;-0.04879999905824661;0.6968640089035034;0.9994239807128906;0.0;0.0;0.0
1054;0.0;0.0;0.0;-0.07612799853086472;0.6656320095062256;1.0238239765167236;0.0;0.0;0.0
1056;0.0;0.0;0.0;-0.13761599361896515;0.6148799657821655;1.012112021446228;0.0;0.0;0.0
1059;-0.21447598934173584;0.7700639963150024;0.8940159678459167;-0.11907199770212173;0.5602239966392517;1.044319987297058;10.351249694824219;13.636874198913574;-41.56687545776367
1061;0.0;0.0;0.0;-0.12297599762678146;0.5016639828681946;1.1292319297790527;0.0;0.0;0.0
1063;0.0;0.0;0.0;-0.13859200477600098;0.44310399889945984;1.1780319213867188;0.0;0.0;0.0
1065;0.0;0.0;0.0;-0.13468798995018005;0.43139198422431946;1.2346400022506714;0.0;0.0;0.0
1067;-0.26327598094940186;0.5926759839057922;1.0418800115585327;-0.16494399309158325;0.4274879992008209;1.3156479597091675;2.721250057220459;16.156875610351562;-47.796875
1069;0.0;0.0;0.0;-0.15323199331760406;0.4391999840736389;1.3810399770736694;0.0;0.0;0.0
1071;0.0;0.0;0.0;-0.2117919921875;0.5016639828681946;1.377135992050171;0.0;0.0;0.0
1073;0.0;0.0;0.0;-0.2820639908313751;0.5602239966392517;1.409343957901001;0.0;0.0;0.0
1076;-0.34769999980926514;0.6605079770088196;1.2373239994049072;-0.3172000050544739;0.6578239798545837;1.3976320028305054;-14.988750457763672;23.856876373291016;-65.9268798828125
1078;0.0;0.0;0.0;-0.3630719780921936;0.7202879786491394;1.3400479555130005;0.0;0.0;0.0
1080;0.0;0.0;0.0;-0.4021120071411133;0.7671359777450562;1.2961280345916748;0.0;0.0;0.0
1082;0.0;0.0;0.0;-0.39430397748947144;0.8374080061912537;1.2190239429473877;0.0;0.0;0.0
1084;-0.49556398391723633;0.9064599871635437;1.1511919498443604;-0.32891198992729187;0.8686400055885315;1.1819360256195068;-24.578750610351562;-10.863125801086426;-74.74687957763672
1086;0.0;0.0;0.0;-0.25863999128341675;0.9154880046844482;1.1175199747085571;0.0;0.0;0.0
1088;0.0;0.0;0.0;-0.16884799301624298;0.9350079894065857;1.036512017250061;0.0;0.0;0.0
1090;0.0;0.0;0.0;-0.06441599875688553;0.9935680031776428;0.9750239849090576;0.0;0.0;0.0
1093;-0.284991979598999;1.0887279510498047;0.9054839611053467;-0.01756799966096878;1.0247999429702759;0.8979200124740601;-14.988750457763672;-69.66312408447266;-68.16687774658203
1095;0.0;0.0;0.0;0.07222399860620499;1.0638400316238403;0.8012959957122803;0.0;0.0;0.0
1097;0.0;0.0;0.0;0.13371199369430542;1.1106879711151123;0.7642079591751099;0.0;0.0;0.0
1099;0.0;0.0;0.0;0.1727519929409027;1.1497279405593872;0.6910079717636108;0.0;0.0;0.0
1101;-0.011467999778687954;1.2331759929656982;0.6402559876441956;0.1454239934682846;1.1536319255828857;0.6548959612846375;-0.8487500548362732;-94.86312103271484;-53.74687576293945
1103;0.0;0.0;0.0;0.24302399158477783;1.1848639249801636;0.6187840104103088;0.0;0.0;0.0
1105;0.0;0.0;0.0;0.2781600058078766;1.165343999862671;0.5943840146064758;0.0;0.0;0.0
1107;0.0;0.0;0.0;0.33671998977661133;1.165343999862671;0.5816959738731384;0.0;0.0;0.0
1110;0.1634799987077713;1.2863680124282837;0.48507198691368103;0.3718560039997101;1.1575360298156738;0.5777919888496399;7.481250286102295;-77.15312194824219;-37.71687316894531
1112;0.0;0.0;0.0;0.4108960032463074;1.126304030418396;0.5904799699783325;0.0;0.0;0.0
1114;0.0;0.0;0.0;0.42553597688674927;1.0950720310211182;0.6226879954338074;0.0;0.0;0.0
1116;0.0;0.0;0.0;0.399183988571167;1.0677440166473389;0.6431840062141418;0.0;0.0;0.0
1118;0.2862119972705841;1.211459994316101;0.49239200353622437;0.4108960032463074;1.0404160022735596;0.6344000101089478;8.181249618530273;-23.88312530517578;-27.846874237060547
1120;0.0;0.0;0.0;0.35624000430107117;1.0560319423675537;0.6714879870414734;0.0;0.0;0.0
1122;0.0;0.0;0.0;0.3211039900779724;1.0404160022735596;0.7241919636726379;0.0;0.0;0.0
1124;0.0;0.0;0.0;0.23521599173545837;1.0794559717178345;0.7319999933242798;0.0;0.0;0.0
1127;0.18812400102615356;1.2034080028533936;0.59170001745224;0.1844639927148819;1.122399926185608;0.7847039699554443;4.821249961853027;35.19687271118164;-24.13687515258789
1129;0.0;0.0;0.0;0.15323199331760406;1.1575360298156738;0.8091039657592773;0.0;0.0;0.0
1131;0.0;0.0;0.0;0.12199999392032623;1.1848639249801636;0.8335039615631104;0.0;0.0;0.0
1133;0.0;0.0;0.0;0.09857599437236786;1.2121919393539429;0.8783999681472778;0.0;0.0;0.0
1135;0.0;1.3044239282608032;0.7063800096511841;0.08003199845552444;1.2004799842834473;0.9106079936027527;6.571249961853027;58.01687240600586;-15.94687557220459
1137;0.0;0.0;0.0;0.06831999868154526;1.2043839693069458;0.9389119744300842;0.0;0.0;0.0
1139;0.0;0.0;0.0;0.044895999133586884;1.1965759992599487;0.9799039959907532;0.0;0.0;0.0
1141;0.0;0.0;0.0;0.02147199958562851;1.180959939956665;1.0326080322265625;0.0;0.0;0.0
1144;-0.07783599942922592;1.3244320154190063;0.8437519669532776;-0.0019519999623298645;1.1419199705123901;1.044319987297058;12.5912504196167;54.44687271118164;-2.4368748664855957
1146;0.0;0.0;0.0;-0.01756799966096878;1.1458239555358887;1.0970239639282227;0.0;0.0;0.0
1148;0.0;0.0;0.0;-0.02537599951028824;1.083359956741333;1.1214239597320557;0.0;0.0;0.0
1150;0.0;0.0;0.0;-0.04879999905824661;1.0872639417648315;1.1419199705123901;0.0;0.0;0.0
1152;-0.14688800275325775;1.221463918685913;0.9811239838600159;-0.05660799890756607;1.044319987297058;1.1624159812927246;12.03125;49.26687240600586;8.623125076293945
1154;0.0;0.0;0.0;-0.029279999434947968;1.036512017250061;1.2063360214233398;0.0;0.0;0.0
1156;0.0;0.0;0.0;-0.02147199958562851;0.9935680031776428;1.1946239471435547;0.0;0.0;0.0
1158;0.0;0.0;0.0;-0.040991999208927155;0.9935680031776428;1.2229279279708862;0.0;0.0;0.0
1161;-0.15957599878311157;1.136795997619629;1.0765279531478882;-0.040991999208927155;0.9779520034790039;1.2268320322036743;3.6312501430511475;46.11687469482422;14.29312515258789
1163;0.0;0.0;0.0;-0.06441599875688553;0.9389119744300842;1.2434239387512207;0.0;0.0;0.0
1165;0.0;0.0;0.0;-0.11126399785280228;0.962336003780365;1.2590399980545044;0.0;0.0;0.0
1167;0.0;0.0;0.0;-0.09174399822950363;0.9662399888038635;1.2473279237747192;0.0;0.0;0.0
1169;-0.19739599525928497;1.0887279510498047;1.1199599504470825;-0.0878399983048439;0.9506239891052246;1.3000320196151733;-4.138750076293945;42.19687271118164;18.423126220703125
1171;0.0;0.0;0.0;-0.09564799815416336;0.9154880046844482;1.3078399896621704;0.0;0.0;0.0
1173;0.0;0.0;0.0;-0.12297599762678146;0.9154880046844482;1.2922239303588867;0.0;0.0;0.0
1175;0.0;0.0;0.0;-0.1268799901008606;0.8491199612617493;1.287343978881836;0.0;0.0;0.0
1178;-0.23960798978805542;1.0306559801101685;1.176811933517456;-0.1424959897994995;0.8608319759368896;1.3166239261627197;-10.018750190734863;33.72687530517578;23.393125534057617
1180;0.0;0.0;0.0;-0.1424959897994995;0.6773439645767212;1.262943983078003;0.0;0.0;0.0
1182;0.0;0.0;0.0;-0.1424959897994995;0.798367977142334;1.3654239177703857;0.0;0.0;0.0
1184;0.0;0.0;0.0;-0.2235039919614792;0.6461119651794434;1.2678239345550537;0.0;0.0;0.0
1186;-0.28133198618888855;0.8737639784812927;1.1677839756011963;-0.14932799339294434;0.8764479756355286;1.368351936340332;-9.738750457763672;15.596874237060547;28.923126220703125
1188;0.0;0.0;0.0;-0.06831999868154526;0.9193919897079468;1.3644479513168335;0.0;0.0;0.0
1190;0.0;0.0;0.0;-0.13468798995018005;0.7398079633712769;1.1741279363632202;0.0;0.0;0.0
1192;0.0;0.0;0.0;-0.1424959897994995;0.6656320095062256;1.1009279489517212;0.0;0.0;0.0
1195;-0.24180398881435394;0.9049959778785706;1.0814080238342285;-0.0878399983048439;0.610975980758667;1.044319987297058;-11.62874984741211;-9.883125305175781;36.6931266784668
1197;0.0;0.0;0.0;-0.009759999811649323;0.6383039951324463;1.085312008857727;0.0;0.0;0.0
1199;0.0;0.0;0.0;0.1180959939956665;0.7671359777450562;1.1253279447555542;0.0;0.0;0.0
1201;0.0;0.0;0.0;0.10345599800348282;0.7437120079994202;1.0726239681243896;0.0;0.0;0.0
1203;-0.06368400156497955;0.8505839705467224;0.9474520087242126;0.10638399422168732;0.7319999933242798;1.0160160064697266;-2.1787500381469727;-21.0831241607666;43.6931266784668
1205;0.0;0.0;0.0;0.08295999467372894;0.7163839936256409;0.9271999597549438;0.0;0.0;0.0
1207;0.0;0.0;0.0;0.07612799853086472;0.700767993927002;0.9184159636497498;0.0;0.0;0.0
1209;0.0;0.0;0.0;0.10638399422168732;0.7202879786491394;0.8901119828224182;0.0;0.0;0.0
1212;-0.01781199872493744;0.8557080030441284;0.8056879639625549;0.1454239934682846;0.7319999933242798;0.9350079894065857;5.731250286102295;-25.073123931884766;56.15312576293945
1214;0.0;0.0;0.0;0.17665599286556244;0.708575963973999;0.8940159678459167;0.0;0.0;0.0
1216;0.0;0.0;0.0;0.1454239934682846;0.6890559792518616;0.8940159678459167;0.0;0.0;0.0
1218;0.0;0.0;0.0;0.1727519929409027;0.6539199948310852;0.8940159678459167;0.0;0.0;0.0
1220;0.04270000010728836;0.8078839778900146;0.7756760120391846;0.23131199181079865;0.6148799657821655;0.8901119828224182;10.28125;-12.823125839233398;70.5731201171875
1222;0.0;0.0;0.0;0.20398399233818054;0.5524159669876099;0.9145119786262512;0.0;0.0;0.0
1224;0.0;0.0;0.0;0.19617599248886108;0.5446079969406128;0.9184159636497498;0.0;0.0;0.0
1227;0.0;0.0;0.0;0.16103999316692352;0.48604798316955566;0.9389119744300842;0.0;0.0;0.0
1229;0.056120000779628754;0.6412320137023926;0.7912920117378235;0.09174399822950363;0.40406399965286255;0.9027999639511108;7.06125020980835;20.9168758392334;78.62312316894531
1231;0.0;0.0;0.0;0.0331839993596077;0.3572160005569458;0.9711199998855591;0.0;0.0;0.0
1233;0.0;0.0;0.0;0.0605119988322258;0.2479040026664734;1.0238239765167236;0.0;0.0;0.0
1235;0.0;0.0;0.0;0.009759999811649323;0.22838398814201355;1.0726239681243896;0.0;0.0;0.0
1237;-0.09930799901485443;0.41040799021720886;0.8869400024414062;-0.05270399898290634;0.1698240041732788;1.1292319297790527;8.181249618530273;48.56687545776367;82.33312225341797
1239;0.0;0.0;0.0;-0.11126399785280228;0.0878399983048439;1.1048319339752197;0.0;0.0;0.0
1241;0.0;0.0;0.0;-0.1268799901008606;0.09955199807882309;1.1868159770965576;0.0;0.0;0.0
1244;0.0;0.0;0.0;-0.1424959897994995;0.02147199958562851;1.2063360214233398;0.0;0.0;0.0
1246;-0.23009198904037476;0.20520399510860443;1.0452959537506104;-0.13859200477600098;0.0019519999623298645;1.2473279237747192;10.981249809265137;61.51687240600586;84.01312255859375
1248;0.0;0.0;0.0;-0.23131199181079865;-0.06441599875688553;1.2512320280075073;0.0;0.0;0.0
1250;0.0;0.0;0.0;-0.2391199916601181;-0.1268799901008606;1.2268320322036743;0.0;0.0;0.0
1252;0.0;0.0;0.0;-0.2937760055065155;-0.09955199807882309;1.2639199495315552;0.0;0.0;0.0
1254;-0.3606320023536682;0.062463998794555664;1.1170319318771362;-0.29767999053001404;-0.06831999868154526;1.262943983078003;18.96124839782715;52.06687545776367;86.39311981201172
1256;0.0;0.0;0.0;-0.3093920052051544;-0.09174399822950363;1.2639199495315552;0.0;0.0;0.0
1258;0.0;0.0;0.0;-0.31329599022865295;-0.10735999792814255;1.2834399938583374;0.0;0.0;0.0
1261;0.0;0.0;0.0;-0.2664479911327362;-0.14640000462532043;1.2434239387512207;0.0;0.0;0.0
1263;-0.4084559977054596;0.00634399987757206;1.1311839818954468;-0.2937760055065155;-0.19715198874473572;1.2639199495315552;30.37125015258789;24.27687644958496;91.99312591552734
1265;0.0;0.0;0.0;-0.21569599211215973;-0.2791360020637512;1.3000320196151733;0.0;0.0;0.0
1267;0.0;0.0;0.0;-0.14151999354362488;-0.32598400115966797;1.3039360046386719;0.0;0.0;0.0
1269;0.0;0.0;0.0;-0.20398399233818054;-0.3806400001049042;1.3283360004425049;0.0;0.0;0.0
1271;-0.3201279938220978;-0.18665999174118042;1.172663927078247;-0.1844639927148819;-0.4079679846763611;1.3322399854660034;33.73125076293945;10.416874885559082;95.703125
1273;0.0;0.0;0.0;-0.19227199256420135;-0.4626239836215973;1.3410239219665527;0.0;0.0;0.0
1275;0.0;0.0;0.0;-0.23521599173545837;-0.4391999840736389;1.3322399854660034;0.0;0.0;0.0
1278;0.0;0.0;0.0;-0.2547360062599182;-0.411871999502182;1.377135992050171;0.0;0.0;0.0
1280;-0.3537999987602234;-0.2920680046081543;1.2158520221710205;-0.2391199916601181;-0.4665279984474182;1.336143970489502;25.401248931884766;16.786874771118164;92.62312316894531
1282;0.0;0.0;0.0;-0.23131199181079865;-0.513375997543335;1.336143970489502;0.0;0.0;0.0
1284;0.0;0.0;0.0;-0.2547360062599182;-0.5446079969406128;1.3244320154190063;0.0;0.0;0.0
1286;0.0;0.0;0.0;-0.27425599098205566;-0.5953599810600281;1.3039360046386719;0.0;0.0;0.0
1288;-0.37795600295066833;-0.41967999935150146;1.1904759407043457;-0.27425599098205566;-0.6695359945297241;1.2883199453353882;13.851249694824219;13.14687442779541;89.4731216430664
1290;0.0;0.0;0.0;-0.2117919921875;-0.6929599642753601;1.2590399980545044;0.0;0.0;0.0
1292;0.0;0.0;0.0;-0.2235039919614792;-0.7241919636726379;1.2834399938583374;0.0;0.0;0.0
1295;0.0;0.0;0.0;-0.1844639927148819;-0.7319999933242798;1.2717279195785522;0.0;0.0;0.0
1297;-0.33842799067497253;-0.574131965637207;1.1470439434051514;-0.1844639927148819;-0.7280960083007812;1.2834399938583374;12.101249694824219;3.6968750953674316;88.0731201171875
1299;0.0;0.0;0.0;-0.2117919921875;-0.8100799918174744;1.2678239345550537;0.0;0.0;0.0
1301;0.0;0.0;0.0;-0.21569599211215973;-0.8491199612617493;1.2512320280075073;0.0;0.0;0.0
1303;0.0;0.0;0.0;-0.20788799226284027;-0.8413119912147522;1.2434239387512207;0.0;0.0;0.0
1305;-0.3276920020580292;-0.6973519921302795;1.1087360382080078;-0.1571359932422638;-0.8998720049858093;1.1868159770965576;11.751250267028809;-6.103125095367432;87.51312255859375
1307;0.0;0.0;0.0;-0.1542080044746399;-0.9506239891052246;1.1624159812927246;0.0;0.0;0.0
1309;0.0;0.0;0.0;-0.09564799815416336;-1.0326080322265625;1.1458239555358887;0.0;0.0;0.0
1312;0.0;0.0;0.0;-0.044895999133586884;-1.0560319423675537;1.1575360298156738;0.0;0.0;0.0
1314;-0.2105719894170761;-0.8686400055885315;1.0235799551010132;0.013663999736309052;-1.083359956741333;1.1575360298156738;10.211250305175781;-12.473125457763672;86.39311981201172
1316;0.0;0.0;0.0;0.06441599875688553;-1.1497279405593872;1.1331360340118408;0.0;0.0;0.0
1318;0.0;0.0;0.0;0.044895999133586884;-1.1770559549331665;1.1458239555358887;0.0;0.0;0.0
1320;0.0;0.0;0.0;0.02537599951028824;-1.2473279237747192;1.1663199663162231;0.0;0.0;0.0
1322;-0.0832040011882782;-1.0418800115585327;1.0247999429702759;0.02147199958562851;-1.2473279237747192;1.1663199663162231;6.921249866485596;3.976875066757202;84.01312255859375
1324;0.0;0.0;0.0;-0.0331839993596077;-1.309791922569275;1.2229279279708862;0.0;0.0;0.0
1326;0.0;0.0;0.0;-0.029279999434947968;-1.3722559213638306;1.2795360088348389;0.0;0.0;0.0
1329;0.0;0.0;0.0;-0.04879999905824661;-1.4269119501113892;1.3566399812698364;0.0;0.0;0.0
1331;-0.15176799893379211;-1.232200026512146;1.1558279991149902;-0.037087999284267426;-1.4698560237884521;1.384943962097168;-1.128749966621399;28.826875686645508;76.1731185913086
1333;0.0;0.0;0.0;-0.10735999792814255;-1.50108802318573;1.4181280136108398;0.0;0.0;0.0
1335;0.0;0.0;0.0;-0.13859200477600098;-1.5791679620742798;1.417151927947998;0.0;0.0;0.0
1337;0.0;0.0;0.0;-0.1424959897994995;-1.5869759321212769;1.433743953704834;0.0;0.0;0.0
1339;-0.24302399158477783;-1.401535987854004;1.2941759824752808;-0.16494399309158325;-1.637727975845337;1.45033597946167;-17.01875114440918;43.38687515258789;64.69312286376953
1341;0.0;0.0;0.0;-0.18836799263954163;-1.645535945892334;1.465951919555664;0.0;0.0;0.0
1343;0.0;0.0;0.0;-0.15030398964881897;-1.7040959596633911;1.4542399644851685;0.0;0.0;0.0
1346;0.0;0.0;0.0;-0.1844639927148819;-1.7392319440841675;1.474735975265503;0.0;0.0;0.0
1348;-0.29280000925064087;-1.5554999113082886;1.336143970489502;-0.16884799301624298;-1.7665599584579468;1.5030399560928345;-25.55875015258789;35.40687561035156;51.743125915527344
1350;0.0;0.0;0.0;-0.17665599286556244;-1.7899839878082275;1.458143949508667;0.0;0.0;0.0
1352;0.0;0.0;0.0;-0.18836799263954163;-1.8290239572525024;1.4825439453125;0.0;0.0;0.0
1354;0.0;0.0;0.0;-0.20788799226284027;-1.8602559566497803;1.4952319860458374;0.0;0.0;0.0
1356;-0.3125639855861664;-1.6816480159759521;1.3554199934005737;-0.20788799226284027;-1.8485440015792847;1.4542399644851685;-26.188751220703125;19.516876220703125;38.02312469482422
1358;0.0;0.0;0.0;-0.2235039919614792;-1.8446400165557861;1.4864479303359985;0.0;0.0;0.0
1360;0.0;0.0;0.0;-0.19617599248886108;-1.8602559566497803;1.4825439453125;0.0;0.0;0.0
1363;0.0;0.0;0.0;-0.22740799188613892;-1.8290239572525024;1.458143949508667;0.0;0.0;0.0
1365;-0.34769999980926514;-1.7094639539718628;1.343951940536499;-0.24302399158477783;-1.8290239572525024;1.45033597946167;-23.80875015258789;1.2468750476837158;21.50312614440918
1367;0.0;0.0;0.0;-0.26254400610923767;-1.8173120021820068;1.4132479429244995;0.0;0.0;0.0
1369;0.0;0.0;0.0;-0.2547360062599182;-1.7665599584579468;1.4220319986343384;0.0;0.0;0.0
1371;0.0;0.0;0.0;-0.2235039919614792;-1.7587519884109497;1.352735996246338;0.0;0.0;0.0
1373;-0.354775995016098;-1.6589559316635132;1.2534279823303223;-0.23521599173545837;-1.7509440183639526;1.3039360046386719;-20.238750457763672;-20.593124389648438;4.42312479019165
1376;0.0;0.0;0.0;-0.17665599286556244;-1.6689599752426147;1.2805119752883911;0.0;0.0;0.0
1377;0.0;0.0;0.0;-0.1268799901008606;-1.6650559902191162;1.1956000328063965;0.0;0.0;0.0
1380;0.0;0.0;0.0;-0.15323199331760406;-1.6299200057983398;1.1712000370025635;0.0;0.0;0.0
1382;-0.2705959975719452;-1.5240240097045898;1.0809199810028076;-0.08003199845552444;-1.598688006401062;1.0814080238342285;-13.098750114440918;-46.28312683105469;-11.326875686645508
1384;0.0;0.0;0.0;-0.05660799890756607;-1.5713599920272827;1.0130879878997803;0.0;0.0;0.0
1386;0.0;0.0;0.0;0.0058559998869895935;-1.5167039632797241;0.9847840070724487;0.0;0.0;0.0
1388;0.0;0.0;0.0;0.0331839993596077;-1.4776639938354492;0.9037759900093079;0.0;0.0;0.0
1390;-0.13371199369430542;-1.3756719827651978;0.8359439969062805;0.07612799853086472;-1.4269119501113892;0.8422879576683044;-3.788749933242798;-67.84312438964844;-22.666873931884766
1393;0.0;0.0;0.0;0.09857599437236786;-1.3917759656906128;0.7807999849319458;0.0;0.0;0.0
1394;0.0;0.0;0.0;0.14932799339294434;-1.3644479513168335;0.7563999891281128;0.0;0.0;0.0
1397;0.0;0.0;0.0;0.19227199256420135;-1.3332159519195557;0.7154079675674438;0.0;0.0;0.0
1399;0.04147999733686447;-1.2221959829330444;0.628055989742279;0.2235039919614792;-1.2902719974517822;0.6792960166931152;5.171249866485596;-74.0731201171875;-29.31687355041504
1401;0.0;0.0;0.0;0.2898719906806946;-1.2278079986572266;0.6383039951324463;0.0;0.0;0.0
1403;0.0;0.0;0.0;0.30158400535583496;-1.2160959243774414;0.6304959654808044;0.0;0.0;0.0
1405;0.0;0.0;0.0;0.3445279896259308;-1.173151969909668;0.6344000101089478;0.0;0.0;0.0
1407;0.17933999001979828;-1.062619924545288;0.5285040140151978;0.35233598947525024;-1.1145919561386108;0.6509919762611389;8.391249656677246;-55.31312561035156;-34.70687484741211
1410;0.0;0.0;0.0;0.3601439893245697;-1.1184959411621094;0.6431840062141418;0.0;0.0;0.0
1412;0.0;0.0;0.0;0.37966400384902954;-1.0872639417648315;0.6832000017166138;0.0;0.0;0.0
1414;0.0;0.0;0.0;0.3757599890232086;-1.0989760160446167;0.7075999975204468;0.0;0.0;0.0
1416;0.24741598963737488;-0.9738039970397949;0.5499759912490845;0.35233598947525024;-1.09116792678833;0.7319999933242798;4.611249923706055;-14.783125877380371;-40.86687469482422
1418;0.0;0.0;0.0;0.3328160047531128;-1.09116792678833;0.7807999849319458;0.0;0.0;0.0
1420;0.0;0.0;0.0;0.2898719906806946;-1.044319987297058;0.8374080061912537;0.0;0.0;0.0
1422;0.0;0.0;0.0;0.22740799188613892;-1.0872639417648315;0.8696159720420837;0.0;0.0;0.0
1424;0.15152399241924286;-0.9210999608039856;0.7161399722099304;0.1454239934682846;-1.0287039279937744;0.9515999555587769;-5.18874979019165;32.396873474121094;-48.70687484741211
1427;0.0;0.0;0.0;0.09564799815416336;-1.0716480016708374;1.0043039321899414;0.0;0.0;0.0
1429;0.0;0.0;0.0;0.06831999868154526;-1.0169919729232788;1.0491999387741089;0.0;0.0;0.0
1431;0.0;0.0;0.0;0.029279999434947968;-1.0247999429702759;1.097999930381775;0.0;0.0;0.0
1433;-0.04440800100564957;-0.8947479724884033;0.9130479693412781;-0.0058559998869895935;-1.0169919729232788;1.146799921989441;-17.298751831054688;63.61687469482422;-57.8068733215332
1435;0.0;0.0;0.0;-0.037087999284267426;-1.0130879878997803;1.175104022026062;0.0;0.0;0.0
1437;0.0;0.0;0.0;-0.11126399785280228;-0.9701439738273621;1.231711983680725;0.0;0.0;0.0
1439;0.0;0.0;0.0;-0.15811198949813843;-0.9428159594535828;1.2200000286102295;0.0;0.0;0.0
1441;-0.23375199735164642;-0.8349679708480835;1.069451928138733;-0.21959999203681946;-0.888159990310669;1.2639199495315552;-23.03875160217285;68.23687744140625;-66.97687530517578
1443;0.0;0.0;0.0;-0.24692799150943756;-0.8256959915161133;1.2229279279708862;0.0;0.0;0.0
1446;0.0;0.0;0.0;-0.2898719906806946;-0.798367977142334;1.2639199495315552;0.0;0.0;0.0
1448;0.0;0.0;0.0;-0.25863999128341675;-0.7593280076980591;1.2795360088348389;0.0;0.0;0.0
1450;-0.3672199845314026;-0.6548959612846375;1.1248400211334229;-0.2000799924135208;-0.700767993927002;1.2756320238113403;-20.238750457763672;40.86687469482422;-72.64688110351562
1452;0.0;0.0;0.0;-0.18836799263954163;-0.6734399795532227;1.2678239345550537;0.0;0.0;0.0
1454;0.0;0.0;0.0;-0.1727519929409027;-0.6578239798545837;1.2551360130310059;0.0;0.0;0.0
1456;0.0;0.0;0.0;-0.14640000462532043;-0.6265919804573059;1.2473279237747192;0.0;0.0;0.0
1458;-0.3001199960708618;-0.517035961151123;1.1109319925308228;-0.13078400492668152;-0.6226879954338074;1.2229279279708862;-13.6587495803833;6.776875019073486;-73.20687866210938
1461;0.0;0.0;0.0;-0.13468798995018005;-0.5719360113143921;1.1702239513397217;0.0;0.0;0.0
1463;0.0;0.0;0.0;-0.115167997777462;-0.5602239966392517;1.1663199663162231;0.0;0.0;0.0
1465;0.0;0.0;0.0;-0.0605119988322258;-0.5172799825668335;1.1624159812927246;0.0;0.0;0.0
1467;-0.23399598896503448;-0.41626399755477905;1.0491999387741089;-0.08393599838018417;-0.48214399814605713;1.1702239513397217;-7.848750114440918;-9.60312557220459;-74.18688201904297
1469;0.0;0.0;0.0;-0.06831999868154526;-0.4509119987487793;1.1292319297790527;0.0;0.0;0.0
1471;0.0;0.0;0.0;-0.0605119988322258;-0.3845439851284027;1.1458239555358887;0.0;0.0;0.0
1473;0.0;0.0;0.0;-0.06441599875688553;-0.3455039858818054;1.1458239555358887;0.0;0.0;0.0
1475;-0.1920280009508133;-0.26571598649024963;1.013819932937622;-0.09174399822950363;-0.3416000008583069;1.1214239597320557;-6.168749809265137;-10.653125762939453;-75.58687591552734
1478;0.0;0.0;0.0;-0.0878399983048439;-0.31036800146102905;1.1419199705123901;0.0;0.0;0.0
1480;0.0;0.0;0.0;-0.06441599875688553;-0.29475200176239014;1.1663199663162231;0.0;0.0;0.0
1482;0.0;0.0;0.0;-0.07612799853086472;-0.27132800221443176;1.1868159770965576;0.0;0.0;0.0
1484;-0.2000799924135208;-0.15640400350093842;1.0372439622879028;-0.07222399860620499;-0.20495998859405518;1.2307360172271729;-8.12874984741211;-4.143125057220459;-78.59687805175781
1486;0.0;0.0;0.0;-0.09564799815416336;-0.17372798919677734;1.2551360130310059;0.0;0.0;0.0
1488;0.0;0.0;0.0;-0.09174399822950363;-0.10345599800348282;1.3156479597091675;0.0;0.0;0.0
1490;0.0;0.0;0.0;-0.15323199331760406;-0.10735999792814255;1.2961280345916748;0.0;0.0;0.0
1492;-0.24253599345684052;0.010979999788105488;1.1729079484939575;-0.1727519929409027;-0.0331839993596077;1.3644479513168335;-17.578750610351562;8.596874237060547;-83.98687744140625
1495;0.0;0.0;0.0;-0.2235039919614792;0.040991999208927155;1.352735996246338;0.0;0.0;0.0
1497;0.0;0.0;0.0;-0.27035200595855713;0.07222399860620499;1.311743974685669;0.0;0.0;0.0
1499;0.0;0.0;0.0;-0.2937760055065155;0.13859200477600098;1.287343978881836;0.0;0.0;0.0
1501;-0.3811279833316803;0.20617999136447906;1.2026759386062622;-0.31329599022865295;0.16201600432395935;1.3039360046386719;-28.708751678466797;4.676875114440918;-85.38687896728516
1503;0.0;0.0;0.0;-0.2820639908313751;0.2088640034198761;1.311743974685669;0.0;0.0;0.0
1505;0.0;0.0;0.0;-0.21959999203681946;0.236191987991333;1.3039360046386719;0.0;0.0;0.0
1507;0.0;0.0;0.0;-0.17665599286556244;0.1815359890460968;1.2395199537277222;0.0;0.0;0.0
1509;-0.35916799306869507;0.3311080038547516;1.152899980545044;-0.2000799924135208;0.20105600357055664;1.2151199579238892;-28.708751678466797;-18.143123626708984;-82.86687469482422
1512;0.0;0.0;0.0;-0.16884799301624298;0.21667200326919556;1.2112159729003906;0.0;0.0;0.0
1514;0.0;0.0;0.0;-0.13859200477600098;0.2088640034198761;1.1916959285736084;0.0;0.0;0.0
1516;0.0;0.0;0.0;-0.1424959897994995;0.2205759882926941;1.1712000370025635;0.0;0.0;0.0
1518;-0.27327999472618103;0.35404399037361145;1.059448003768921;-0.13468798995018005;0.2869440019130707;1.158511996269226;-20.51875114440918;-38.86312484741211;-77.05687713623047
1520;0.0;0.0;0.0;-0.115167997777462;0.29475200176239014;1.1058080196380615;0.0;0.0;0.0
1522;0.0;0.0;0.0;-0.10345599800348282;0.3455039858818054;1.0657919645309448;0.0;0.0;0.0
1524;0.0;0.0;0.0;-0.08393599838018417;0.3416000008583069;1.0579839944839478;0.0;0.0;0.0
1526;-0.22960399091243744;0.45749998092651367;0.9523319602012634;-0.0605119988322258;0.3845439851284027;1.0413919687271118;-12.398750305175781;-50.97312545776367;-73.48687744140625
1529;0.0;0.0;0.0;-0.05270399898290634;0.423583984375;1.044319987297058;0.0;0.0;0.0
1531;0.0;0.0;0.0;0.0019519999623298645;0.38844799995422363;0.9838079810142517;0.0;0.0;0.0
1533;0.0;0.0;0.0;0.0605119988322258;0.23228800296783447;0.9184159636497498;0.0;0.0;0.0
1535;-0.12297599762678146;0.5043479800224304;0.8720560073852539;-0.0331839993596077;0.4782399833202362;1.0160160064697266;-7.988749980926514;-50.6931266784668;-72.296875
1537;0.0;0.0;0.0;0.08686399459838867;0.5172799825668335;0.9594079852104187;0.0;0.0;0.0
1539;0.0;0.0;0.0;0.037087999284267426;0.5172799825668335;0.9311040043830872;0.0;0.0;0.0
1541;0.0;0.0;0.0;0.05270399898290634;0.44310399889945984;0.9184159636497498;0.0;0.0;0.0
1543;-0.06758800148963928;0.6204919815063477;0.8091039657592773;0.02147199958562851;0.4899519979953766;0.8940159678459167;-2.7387499809265137;-44.673126220703125;-69.70687866210938
1546;0.0;0.0;0.0;0.05660799890756607;0.4938559830188751;0.9027999639511108;0.0;0.0;0.0
1548;0.0;0.0;0.0;0.10638399422168732;0.47043198347091675;0.8735199570655823;0.0;0.0;0.0
1550;0.0;0.0;0.0;0.13761599361896515;0.45481598377227783;0.8862079977989197;0.0;0.0;0.0
1552;-0.013663999736309052;0.6097559928894043;0.7700639963150024;0.12590399384498596;0.5094720125198364;0.9311040043830872;3.0012500286102295;-34.453125;-67.3268814086914
1554;0.0;0.0;0.0;0.1298079937696457;0.5289919972419739;0.9350079894065857;0.0;0.0;0.0
1556;0.0;0.0;0.0;0.11028799414634705;0.5563200116157532;0.9467200040817261;0.0;0.0;0.0
1558;0.0;0.0;0.0;0.0605119988322258;0.7046719789505005;0.9759999513626099;0.0;0.0;0.0
1560;-0.012199999764561653;0.7139439582824707;0.8091039657592773;0.08393599838018417;0.6187840104103088;0.9027999639511108;10.001250267028809;-15.833125114440918;-66.55687713623047
1563;0.0;0.0;0.0;0.01756799966096878;0.7827519774436951;0.9886879920959473;0.0;0.0;0.0
1565;0.0;0.0;0.0;0.029279999434947968;0.798367977142334;0.9564799666404724;0.0;0.0;0.0
1567;0.0;0.0;0.0;0.029279999434947968;0.8491199612617493;0.9681919813156128;0.0;0.0;0.0
1569;-0.08588799834251404;0.9176839590072632;0.8332599997520447;0.0331839993596077;0.8608319759368896;0.9642879962921143;16.23124885559082;-10.863125801086426;-60.11687469482422
1571;0.0;0.0;0.0;0.07222399860620499;0.8842560052871704;0.9603840112686157;0.0;0.0;0.0
1573;0.0;0.0;0.0;0.14151999354362488;0.8803519606590271;0.9476959705352783;0.0;0.0;0.0
1575;0.0;0.0;0.0;0.12199999392032623;0.8764479756355286;0.9437919855117798;0.0;0.0;0.0
1577;-0.018055999651551247;1.0108920335769653;0.8188639879226685;0.13761599361896515;0.8803519606590271;0.9359839558601379;23.581249237060547;-12.123125076293945;-49.47687530517578
1580;0.0;0.0;0.0;0.1454239934682846;0.888159990310669;0.9223200082778931;0.0;0.0;0.0
1582;0.0;0.0;0.0;0.1454239934682846;0.8764479756355286;0.9389119744300842;0.0;0.0;0.0
1584;0.0;0.0;0.0;0.15323199331760406;0.8608319759368896;0.9467200040817261;0.0;0.0;0.0
1586;0.029767999425530434;1.0062559843063354;0.8159359693527222;0.16494399309158325;0.8686400055885315;0.9515999555587769;32.05125045776367;-2.1831250190734863;-41.006874084472656
1588;0.0;0.0;0.0;0.11419199407100677;0.8530240058898926;0.9955199956893921;0.0;0.0;0.0
1590;0.0;0.0;0.0;0.1571359932422638;0.8530240058898926;0.9838079810142517;0.0;0.0;0.0
1592;0.0;0.0;0.0;0.1844639927148819;0.8998720049858093;1.0043039321899414;0.0;0.0;0.0
1594;0.03611199930310249;1.0238239765167236;0.8652240037918091;0.16884799301624298;0.9584319591522217;1.0160160064697266;36.811248779296875;12.516874313354492;-37.016876220703125
1597;0.0;0.0;0.0;0.1571359932422638;1.0169919729232788;1.0491999387741089;0.0;0.0;0.0
1599;0.0;0.0;0.0;0.12199999392032623;1.0638400316238403;1.0940959453582764;0.0;0.0;0.0
1601;0.0;0.0;0.0;0.13371199369430542;1.09116792678833;1.0775039196014404;0.0;0.0;0.0
1603;0.020739998668432236;1.1797399520874023;0.9491599798202515;0.1180959939956665;1.1184959411621094;1.146799921989441;37.44124984741211;25.676876068115234;-32.74687576293945
1605;0.0;0.0;0.0;0.04879999905824661;1.1692479848861694;1.1633919477462769;0.0;0.0;0.0
1607;0.0;0.0;0.0;0.05660799890756607;1.1770559549331665;1.199504017829895;0.0;0.0;0.0
1609;0.0;0.0;0.0;0.040991999208927155;1.223904013633728;1.2404959201812744;0.0;0.0;0.0
1611;-0.05075199902057648;1.325652003288269;1.0723799467086792;0.0331839993596077;1.2512320280075073;1.272704005241394;33.80125045776367;34.146873474121094;-25.396873474121094
1614;0.0;0.0;0.0;0.01756799966096878;1.2824640274047852;1.3039360046386719;0.0;0.0;0.0
1616;0.0;0.0;0.0;-0.013663999736309052;1.2746559381484985;1.3244320154190063;0.0;0.0;0.0
1618;0.0;0.0;0.0;-0.037087999284267426;1.313696026802063;1.352735996246338;0.0;0.0;0.0
1620;-0.12639199197292328;1.4139800071716309;1.1858400106430054;-0.044895999133586884;1.2902719974517822;1.3644479513168335;23.721248626708984;37.85687255859375;-15.666874885559082
1622;0.0;0.0;0.0;-0.08003199845552444;1.2941759824752808;1.3810399770736694;0.0;0.0;0.0
1624;0.0;0.0;0.0;-0.07612799853086472;1.278559923171997;1.4210560321807861;0.0;0.0;0.0
1626;0.0;0.0;0.0;-0.08003199845552444;1.2512320280075073;1.4220319986343384;0.0;0.0;0.0
1628;-0.1983719915151596;1.4044640064239502;1.270751953125;-0.10735999792814255;1.2395199537277222;1.4620479345321655;12.311249732971191;35.68687438964844;-5.236875057220459
1631;0.0;0.0;0.0;-0.09564799815416336;1.2278079986572266;1.4542399644851685;0.0;0.0;0.0
1633;0.0;0.0;0.0;-0.13468798995018005;1.2004799842834473;1.4620479345321655;0.0;0.0;0.0
1635;0.0;0.0;0.0;-0.1542080044746399;1.1926720142364502;1.4708319902420044;0.0;0.0;0.0
1637;-0.23716799914836884;1.334191918373108;1.3217480182647705;-0.14640000462532043;1.1848639249801636;1.4376479387283325;1.4612500667572021;25.466875076293945;4.143125057220459
1639;0.0;0.0;0.0;-0.1542080044746399;1.1536319255828857;1.433743953704834;0.0;0.0;0.0
1641;0.0;0.0;0.0;-0.18055999279022217;1.1458239555358887;1.4220319986343384;0.0;0.0;0.0
1643;0.0;0.0;0.0;-0.15323199331760406;1.0677440166473389;1.3976320028305054;0.0;0.0;0.0
1645;-0.2652280032634735;1.2617239952087402;1.2817319631576538;-0.10735999792814255;1.083359956741333;1.3732320070266724;-5.958749771118164;4.536875247955322;13.453125
1648;0.0;0.0;0.0;-0.09955199807882309;1.0677440166473389;1.3293119668960571;0.0;0.0;0.0
1650;0.0;0.0;0.0;-0.06441599875688553;1.0091840028762817;1.3088159561157227;0.0;0.0;0.0
1652;0.0;0.0;0.0;-0.01756799966096878;1.0247999429702759;1.256111979484558;0.0;0.0;0.0
1654;-0.1849519908428192;1.1599760055541992;1.1629040241241455;-0.0331839993596077;0.9545279741287231;1.1916959285736084;-8.478750228881836;-18.983123779296875;24.02312660217285
1656;0.0;0.0;0.0;0.029279999434947968;0.9350079894065857;1.1712000370025635;0.0;0.0;0.0
1658;0.0;0.0;0.0;0.009759999811649323;0.9311040043830872;1.1428959369659424;0.0;0.0;0.0
1660;0.0;0.0;0.0;0.0331839993596077;0.8491199612617493;1.1058080196380615;0.0;0.0;0.0
1662;-0.08100800216197968;1.0169919729232788;1.002351999282837;0.06831999868154526;0.7046719789505005;0.9925919771194458;-6.798749923706055;-29.343124389648438;33.82312774658203
1665;0.0;0.0;0.0;0.0878399983048439;0.888159990310669;1.1058080196380615;0.0;0.0;0.0
1667;0.0;0.0;0.0;0.11419199407100677;0.7944639921188354;1.0287039279937744;0.0;0.0;0.0
1669;0.0;0.0;0.0;0.14151999354362488;0.9311040043830872;1.0413919687271118;0.0;0.0;0.0
1671;0.003659999929368496;0.9811239838600159;0.9049959778785706;0.17665599286556244;0.8295999765396118;0.9398880004882812;-0.7787500023841858;-28.503124237060547;42.71312713623047
1673;0.0;0.0;0.0;0.19227199256420135;0.7280960083007812;0.8627839684486389;0.0;0.0;0.0
1675;0.0;0.0;0.0;0.1727519929409027;0.6265919804573059;0.8344799876213074;0.0;0.0;0.0
1677;0.0;0.0;0.0;0.1844639927148819;0.6773439645767212;0.8510719537734985;0.0;0.0;0.0
1679;0.0861319974064827;0.8293559551239014;0.7324879765510559;0.32891198992729187;0.6968640089035034;0.8588799834251404;3.911250114440918;-18.143123626708984;52.72312545776367
1682;0.0;0.0;0.0;0.28596800565719604;0.7241919636726379;0.8705919981002808;0.0;0.0;0.0
1684;0.0;0.0;0.0;0.2820639908313751;0.6461119651794434;0.8305760025978088;0.0;0.0;0.0
1686;0.0;0.0;0.0;0.2235039919614792;0.610975980758667;0.8061760067939758;0.0;0.0;0.0
1688;0.14151999354362488;0.7847039699554443;0.7100399732589722;0.19617599248886108;0.610975980758667;0.8705919981002808;16.23124885559082;2.0868749618530273;58.39312744140625
1690;0.0;0.0;0.0;0.17665599286556244;0.5836479663848877;0.8949919939041138;0.0;0.0;0.0
1692;0.0;0.0;0.0;0.1844639927148819;0.5797439813613892;0.9193919897079468;0.0;0.0;0.0
1694;0.0;0.0;0.0;0.12590399384498596;0.5602239966392517;0.9359839558601379;0.0;0.0;0.0
1696;0.05319199711084366;0.713699996471405;0.7849479913711548;0.13761599361896515;0.5719360113143921;0.9564799666404724;25.331249237060547;19.796875;62.173126220703125
1699;0.0;0.0;0.0;0.1298079937696457;0.5797439813613892;0.9877119660377502;0.0;0.0;0.0
1701;0.0;0.0;0.0;0.1180959939956665;0.5914559960365295;0.9711199998855591;0.0;0.0;0.0
1703;0.0;0.0;0.0;0.12590399384498596;0.5719360113143921;1.0160160064697266;0.0;0.0;0.0
1705;-0.0058559998869895935;0.7102839946746826;0.8710799813270569;0.09564799815416336;0.5485119819641113;1.0326080322265625;23.791248321533203;32.396873474121094;64.83312225341797
1707;0.0;0.0;0.0;0.05270399898290634;0.4899519979953766;1.044319987297058;0.0;0.0;0.0
1709;0.0;0.0;0.0;0.09564799815416336;0.5328959822654724;1.0726239681243896;0.0;0.0;0.0
1711;0.0;0.0;0.0;0.04879999905824661;0.4899519979953766;1.0970239639282227;0.0;0.0;0.0
1713;-0.05050799995660782;0.6287879943847656;0.9332999587059021;0.037087999284267426;0.41577598452568054;1.1009279489517212;22.32124900817871;38.69687271118164;67.703125
1716;0.0;0.0;0.0;-0.02147199958562851;0.43139198422431946;1.1380159854888916;0.0;0.0;0.0
1718;0.0;0.0;0.0;-0.08003199845552444;0.3845439851284027;1.1663199663162231;0.0;0.0;0.0
1720;0.0;0.0;0.0;-0.07222399860620499;0.3728320002555847;1.1946239471435547;0.0;0.0;0.0
1722;-0.17250800132751465;0.5472919940948486;1.024067997932434;-0.11126399785280228;0.411871999502182;1.2102400064468384;20.151248931884766;34.916873931884766;72.6731185913086
1724;0.0;0.0;0.0;-0.11907199770212173;0.4079679846763611;1.2229279279708862;0.0;0.0;0.0
1726;0.0;0.0;0.0;-0.13859200477600098;0.41967999935150146;1.2434239387512207;0.0;0.0;0.0
1728;0.0;0.0;0.0;-0.15323199331760406;0.38844799995422363;1.2512320280075073;0.0;0.0;0.0
1730;-0.2571759819984436;0.5355799794197083;1.1141040325164795;-0.1454239934682846;0.38844799995422363;1.2795360088348389;12.311249732971191;25.046875;75.61312103271484
1733;0.0;0.0;0.0;-0.19617599248886108;0.32598400115966797;1.2063360214233398;0.0;0.0;0.0
1735;0.0;0.0;0.0;-0.20788799226284027;0.29475200176239014;1.1780319213867188;0.0;0.0;0.0
1737;0.0;0.0;0.0;-0.25863999128341675;0.24399998784065247;1.1819360256195068;0.0;0.0;0.0
1739;-0.3276920020580292;0.4147999882698059;1.0660359859466553;-0.20398399233818054;0.1542080044746399;1.1253279447555542;2.861250162124634;8.106874465942383;81.77312469482422
1741;0.0;0.0;0.0;-0.23521599173545837;0.0878399983048439;1.1419199705123901;0.0;0.0;0.0
1743;0.0;0.0;0.0;-0.1571359932422638;0.05270399898290634;1.1253279447555542;0.0;0.0;0.0
1745;0.0;0.0;0.0;-0.2000799924135208;-0.02147199958562851;1.0804319381713867;0.0;0.0;0.0
1747;-0.305976003408432;0.18080399930477142;0.9830759763717651;-0.1542080044746399;-0.01756799966096878;1.1009279489517212;2.651250123977661;-8.7631254196167;87.23312377929688
1750;0.0;0.0;0.0;-0.18055999279022217;-0.05660799890756607;1.0648159980773926;0.0;0.0;0.0
1752;0.0;0.0;0.0;-0.16884799301624298;-0.08393599838018417;1.0521279573440552;0.0;0.0;0.0
1754;0.0;0.0;0.0;-0.18055999279022217;-0.11907199770212173;1.019919991493225;0.0;0.0;0.0
1756;-0.2903600037097931;0.035868000239133835;0.9179279804229736;-0.1571359932422638;-0.20495998859405518;1.0043039321899414;5.101250171661377;-19.263124465942383;90.59312438964844
1758;0.0;0.0;0.0;-0.13859200477600098;-0.21276798844337463;0.9555040001869202;0.0;0.0;0.0
1760;0.0;0.0;0.0;-0.08003199845552444;-0.2791360020637512;0.9389119744300842;0.0;0.0;0.0
1762;0.0;0.0;0.0;-0.05270399898290634;-0.33769598603248596;0.9389119744300842;0.0;0.0;0.0
1764;-0.22179599106311798;-0.152988001704216;0.8247199654579163;-0.040991999208927155;-0.37673598527908325;0.9184159636497498;7.06125020980835;-29.27312469482422;92.90312194824219
1767;0.0;0.0;0.0;-0.013663999736309052;-0.411871999502182;0.9262239933013916;0.0;0.0;0.0
1769;0.0;0.0;0.0;-0.02537599951028824;-0.4782399833202362;0.9145119786262512;0.0;0.0;0.0
1771;0.0;0.0;0.0;0.013663999736309052;-0.47433599829673767;0.9311040043830872;0.0;0.0;0.0
1773;-0.14054399728775024;-0.3071959912776947;0.8073959946632385;-0.029279999434947968;-0.411871999502182;0.9711199998855591;6.991250038146973;-20.103124618530273;93.3231201171875
1775;0.0;0.0;0.0;0.0058559998869895935;-0.5914559960365295;0.8823039531707764;0.0;0.0;0.0
1777;0.0;0.0;0.0;-0.044895999133586884;-0.5992639660835266;0.9428159594535828;0.0;0.0;0.0
1779;0.0;0.0;0.0;-0.013663999736309052;-0.6344000101089478;0.9877119660377502;0.0;0.0;0.0
1781;-0.15079200267791748;-0.46408799290657043;0.8271600008010864;-0.037087999284267426;-0.6617279648780823;0.9838079810142517;1.7412500381469727;-1.203125;91.15312194824219
1784;0.0;0.0;0.0;-0.05660799890756607;-0.7202879786491394;0.9955199956893921;0.0;0.0;0.0
1786;0.0;0.0;0.0;-0.06831999868154526;-0.7554239630699158;1.019919991493225;0.0;0.0;0.0
1788;0.0;0.0;0.0;-0.07612799853086472;-0.798367977142334;1.0404160022735596;0.0;0.0;0.0
1790;-0.19275999069213867;-0.6180520057678223;0.8801079988479614;-0.12297599762678146;-0.8335039615631104;1.0482239723205566;-2.3187499046325684;12.936874389648438;88.49312591552734
1792;0.0;0.0;0.0;-0.1268799901008606;-0.8686400055885315;1.044319987297058;0.0;0.0;0.0
1794;0.0;0.0;0.0;-0.09955199807882309;-0.9428159594535828;1.0404160022735596;0.0;0.0;0.0
1796;0.0;0.0;0.0;-0.11126399785280228;-0.9974719882011414;1.0482239723205566;0.0;0.0;0.0
1798;-0.23399598896503448;-0.8127639889717102;0.9237839579582214;-0.0878399983048439;-1.083359956741333;1.0765279531478882;-3.9287500381469727;12.376874923706055;87.86312103271484
1801;0.0;0.0;0.0;-0.10735999792814255;-1.1965759992599487;1.0970239639282227;0.0;0.0;0.0
1803;0.0;0.0;0.0;-0.07222399860620499;-1.2473279237747192;1.0970239639282227;0.0;0.0;0.0
1805;0.0;0.0;0.0;-0.09174399822950363;-1.3644479513168335;1.1048319339752197;0.0;0.0;0.0
1807;-0.21227999031543732;-1.1311839818954468;0.9669719934463501;-0.08003199845552444;-1.465951919555664;1.1819360256195068;-6.448750019073486;10.346874237060547;82.26312255859375
1809;0.0;0.0;0.0;-0.05270399898290634;-1.50108802318573;1.1946239471435547;0.0;0.0;0.0
1811;0.0;0.0;0.0;-0.06441599875688553;-1.5401279926300049;1.2473279237747192;0.0;0.0;0.0
1813;0.0;0.0;0.0;-0.09564799815416336;-1.5596479177474976;1.2551360130310059;0.0;0.0;0.0
1816;-0.187391996383667;-1.382748007774353;1.101904034614563;-0.1268799901008606;-1.5596479177474976;1.2756320238113403;-14.708749771118164;24.97687530517578;68.12312316894531
1818;0.0;0.0;0.0;-0.1268799901008606;-1.5635520219802856;1.32150399684906;0.0;0.0;0.0
1820;0.0;0.0;0.0;-0.19617599248886108;-1.5908799171447754;1.3654239177703857;0.0;0.0;0.0
1822;0.0;0.0;0.0;-0.2000799924135208;-1.5947840213775635;1.3576159477233887;0.0;0.0;0.0
1824;-0.30158400535583496;-1.440087914466858;1.2075560092926025;-0.20398399233818054;-1.6103999614715576;1.3654239177703857;-26.258750915527344;36.8068733215332;51.18312454223633
1826;0.0;0.0;0.0;-0.20398399233818054;-1.6182079315185547;1.4103199243545532;0.0;0.0;0.0
1828;0.0;0.0;0.0;-0.21959999203681946;-1.6650559902191162;1.3937280178070068;0.0;0.0;0.0
1830;0.0;0.0;0.0;-0.23131199181079865;-1.645535945892334;1.4025119543075562;0.0;0.0;0.0
1833;-0.3501400053501129;-1.5071879625320435;1.2585519552230835;-0.23131199181079865;-1.6689599752426147;1.4064159393310547;-30.03875160217285;33.93687438964844;36.27312469482422
1835;0.0;0.0;0.0;-0.24692799150943756;-1.6728639602661133;1.4230079650878906;0.0;0.0;0.0
1837;0.0;0.0;0.0;-0.2664479911327362;-1.653343915939331;1.4220319986343384;0.0;0.0;0.0
1839;0.0;0.0;0.0;-0.29767999053001404;-1.645535945892334;1.4220319986343384;0.0;0.0;0.0
1841;-0.3752720057964325;-1.5206079483032227;1.2807559967041016;-0.2937760055065155;-1.6806719303131104;1.3937280178070068;-23.248750686645508;18.25687599182129;24.373125076293945
1843;0.0;0.0;0.0;-0.25863999128341675;-1.6572480201721191;1.3986079692840576;0.0;0.0;0.0
1845;0.0;0.0;0.0;-0.25863999128341675;-1.6572480201721191;1.3742079734802246;0.0;0.0;0.0
1847;0.0;0.0;0.0;-0.24302399158477783;-1.6572480201721191;1.3654239177703857;0.0;0.0;0.0
1850;-0.3742959797382355;-1.5247559547424316;1.2436679601669312;-0.2000799924135208;-1.696287989616394;1.3576159477233887;-13.728750228881836;-10.233125686645508;14.923125267028809
1852;0.0;0.0;0.0;-0.1727519929409027;-1.688480019569397;1.2844159603118896;0.0;0.0;0.0
1854;0.0;0.0;0.0;-0.15030398964881897;-1.696287989616394;1.2444000244140625;0.0;0.0;0.0
1856;0.0;0.0;0.0;-0.09955199807882309;-1.6845759153366089;1.1790080070495605;0.0;0.0;0.0
1858;-0.26742398738861084;-1.5589159727096558;1.1158119440078735;-0.0878399983048439;-1.6767679452896118;1.1877919435501099;-5.818749904632568;-34.103126525878906;4.703125
1860;0.0;0.0;0.0;-0.06441599875688553;-1.6806719303131104;1.1058080196380615;0.0;0.0;0.0
1862;0.0;0.0;0.0;-0.037087999284267426;-1.6767679452896118;1.073599934577942;0.0;0.0;0.0
1864;0.0;0.0;0.0;0.013663999736309052;-1.637727975845337;1.0531039237976074;0.0;0.0;0.0
1867;-0.14420399069786072;-1.520851969718933;0.9528200030326843;0.0331839993596077;-1.5908799171447754;1.0374879837036133;0.6212499737739563;-40.1931266784668;-7.966875076293945
1869;0.0;0.0;0.0;0.05660799890756607;-1.547935962677002;0.9633119702339172;0.0;0.0;0.0
1871;0.0;0.0;0.0;0.09857599437236786;-1.5167039632797241;0.9799039959907532;0.0;0.0;0.0
1873;0.0;0.0;0.0;0.10247999429702759;-1.4698560237884521;0.9633119702339172;0.0;0.0;0.0
1875;-0.03440399840474129;-1.3822599649429321;0.848143994808197;0.11028799414634705;-1.4308159351348877;0.9311040043830872;4.751250267028809;-30.81312370300293;-20.70687484741211
1877;0.0;0.0;0.0;0.09174399822950363;-1.3761600255966187;0.9262239933013916;0.0;0.0;0.0
1879;0.0;0.0;0.0;0.11419199407100677;-1.3449280261993408;0.9223200082778931;0.0;0.0;0.0
1881;0.0;0.0;0.0;0.08393599838018417;-1.3176000118255615;0.9467200040817261;0.0;0.0;0.0
1884;-0.027327999472618103;-1.2202439308166504;0.806663990020752;0.05270399898290634;-1.2824640274047852;0.9223200082778931;5.941249847412109;-10.863125801086426;-31.06687355041504
1886;0.0;0.0;0.0;0.05270399898290634;-1.2121919393539429;0.9467200040817261;0.0;0.0;0.0
1888;0.0;0.0;0.0;0.04879999905824661;-1.2121919393539429;0.9223200082778931;0.0;0.0;0.0
1890;0.0;0.0;0.0;0.0605119988322258;-1.1419199705123901;0.9672159552574158;0.0;0.0;0.0
1892;-0.05636399984359741;-1.0596920251846313;0.826915979385376;0.06831999868154526;-1.1302080154418945;0.9877119660377502;5.521250247955322;10.20687484741211;-40.166873931884766
1894;0.0;0.0;0.0;0.02537599951028824;-1.1145919561386108;1.036512017250061;0.0;0.0;0.0
1896;0.0;0.0;0.0;-0.01756799966096878;-1.0989760160446167;1.044319987297058;0.0;0.0;0.0
1898;0.0;0.0;0.0;-0.037087999284267426;-1.0716480016708374;1.0892159938812256;0.0;0.0;0.0
1901;-0.12077999860048294;-0.9508680105209351;0.9264679551124573;-0.06441599875688553;-1.036512017250061;1.1214239597320557;3.6312501430511475;27.216875076293945;-47.37687301635742
1903;0.0;0.0;0.0;-0.09174399822950363;-1.0287039279937744;1.1672959327697754;0.0;0.0;0.0
1905;0.0;0.0;0.0;-0.115167997777462;-1.0287039279937744;1.1956000328063965;0.0;0.0;0.0
1907;0.0;0.0;0.0;-0.1454239934682846;-0.985759973526001;1.256111979484558;0.0;0.0;0.0
1909;-0.23936399817466736;-0.8759599924087524;1.0599359273910522;-0.15030398964881897;-0.9896639585494995;1.2444000244140625;-2.3187499046325684;35.61687469482422;-55.70687484741211
1911;0.0;0.0;0.0;-0.16884799301624298;-0.962336003780365;1.2844159603118896;0.0;0.0;0.0
1913;0.0;0.0;0.0;-0.17665599286556244;-0.9350079894065857;1.297104001045227;0.0;0.0;0.0
1915;0.0;0.0;0.0;-0.1727519929409027;-0.8998720049858093;1.3088159561157227;0.0;0.0;0.0
1918;-0.3037799894809723;-0.7905600070953369;1.1614400148391724;-0.19617599248886108;-0.8491199612617493;1.3332159519195557;-10.928750038146973;32.18687438964844;-64.9468765258789
1920;0.0;0.0;0.0;-0.2117919921875;-0.8647359609603882;1.3166239261627197;0.0;0.0;0.0
1922;0.0;0.0;0.0;-0.2117919921875;-0.7944639921188354;1.3537119626998901;0.0;0.0;0.0
1924;0.0;0.0;0.0;-0.24302399158477783;-0.7124800086021423;1.3654239177703857;0.0;0.0;0.0
1926;-0.34013599157333374;-0.6466000080108643;1.2209759950637817;-0.23131199181079865;-0.685151994228363;1.3820159435272217;-18.278751373291016;19.93687629699707;-72.9268798828125
1928;0.0;0.0;0.0;-0.2235039919614792;-0.6812480092048645;1.3859199285507202;0.0;0.0;0.0
1930;0.0;0.0;0.0;-0.19227199256420135;-0.6304959654808044;1.3898239135742188;0.0;0.0;0.0
1932;0.0;0.0;0.0;-0.19617599248886108;-0.5758399963378906;1.3498079776763916;0.0;0.0;0.0
1935;-0.33013200759887695;-0.49068400263786316;1.2329319715499878;-0.21959999203681946;-0.5485119819641113;1.345903992652893;-25.978750228881836;5.516875267028809;-78.1768798828125
1937;0.0;0.0;0.0;-0.26254400610923767;-0.5446079969406128;1.287343978881836;0.0;0.0;0.0
1939;0.0;0.0;0.0;-0.21959999203681946;-0.536799967288971;1.2961280345916748;0.0;0.0;0.0
1941;0.0;0.0;0.0;-0.18055999279022217;-0.5563200116157532;1.2961280345916748;0.0;0.0;0.0
1943;-0.32842400670051575;-0.39893999695777893;1.1633919477462769;-0.14932799339294434;-0.536799967288971;1.3166239261627197;-28.778751373291016;-12.123125076293945;-79.99687957763672
1945;0.0;0.0;0.0;-0.14640000462532043;-0.4782399833202362;1.3039360046386719;0.0;0.0;0.0
1947;0.0;0.0;0.0;-0.10735999792814255;-0.4665279984474182;1.2961280345916748;0.0;0.0;0.0
1949;0.0;0.0;0.0;-0.09564799815416336;-0.411871999502182;1.3000320196151733;0.0;0.0;0.0
1952;-0.24180398881435394;-0.31549200415611267;1.1687599420547485;-0.10345599800348282;-0.41967999935150146;1.3000320196151733;-31.228750228881836;-17.373125076293945;-82.23687744140625
1954;0.0;0.0;0.0;-0.12297599762678146;-0.43139198422431946;1.2648959159851074;0.0;0.0;0.0
1956;0.0;0.0;0.0;-0.10735999792814255;-0.36502400040626526;1.3010079860687256;0.0;0.0;0.0
1958;0.0;0.0;0.0;-0.1424959897994995;-0.32207998633384705;1.2444000244140625;0.0;0.0;0.0
1960;-0.24643999338150024;-0.22643199563026428;1.140455961227417;-0.13859200477600098;-0.3181760013103485;1.231711983680725;-35.7087516784668;-16.74312400817871;-84.05687713623047
1962;0.0;0.0;0.0;-0.1424959897994995;-0.3025600016117096;1.207311987876892;0.0;0.0;0.0
1964;0.0;0.0;0.0;-0.115167997777462;-0.26742398738861084;1.2112159729003906;0.0;0.0;0.0
1966;0.0;0.0;0.0;-0.10735999792814255;-0.2752319872379303;1.1868159770965576;0.0;0.0;0.0
1969;-0.24424399435520172;-0.1420079916715622;1.0687199831008911;-0.07612799853086472;-0.24009600281715393;1.158511996269226;-33.258750915527344;-20.173124313354492;-85.10688018798828
1971;0.0;0.0;0.0;-0.08003199845552444;-0.24009600281715393;1.1536319255828857;0.0;0.0;0.0
1973;0.0;0.0;0.0;-0.04879999905824661;-0.2596159875392914;1.1136159896850586;0.0;0.0;0.0
1975;0.0;0.0;0.0;-0.0605119988322258;-0.2205759882926941;1.1214239597320557;0.0;0.0;0.0
1977;-0.18861199915409088;-0.10979999601840973;1.016503930091858;-0.05270399898290634;-0.24009600281715393;1.1175199747085571;-24.438751220703125;-25.213125228881836;-84.40687561035156
1979;0.0;0.0;0.0;-0.0331839993596077;-0.24399998784065247;1.1253279447555542;0.0;0.0;0.0
1981;0.0;0.0;0.0;-0.02147199958562851;-0.20495998859405518;1.1136159896850586;0.0;0.0;0.0
1984;0.0;0.0;0.0;-0.044895999133586884;-0.19324800372123718;1.0648159980773926;0.0;0.0;0.0
1986;-0.158843994140625;-0.06124399974942207;0.9730719923973083;-0.04879999905824661;-0.1424959897994995;1.0648159980773926;-14.708749771118164;-26.3331241607666;-83.70687866210938
1988;0.0;0.0;0.0;-0.01756799966096878;-0.15030398964881897;1.0452959537506104;0.0;0.0;0.0
1990;0.0;0.0;0.0;-0.02147199958562851;-0.13468798995018005;1.073599934577942;0.0;0.0;0.0
1992;0.0;0.0;0.0;0.0331839993596077;-0.115167997777462;1.0823839902877808;0.0;0.0;0.0
1994;-0.12590399384498596;-0.006587999872863293;0.9413520097732544;-0.013663999736309052;-0.06441599875688553;1.1058080196380615;-3.5087499618530273;-20.663124084472656;-82.72687530517578
1996;0.0;0.0;0.0;0.01756799966096878;-0.04879999905824661;1.1302080154418945;0.0;0.0;0.0
1998;0.0;0.0;0.0;-0.013663999736309052;0.044895999133586884;1.1428959369659424;0.0;0.0;0.0
2001;0.0;0.0;0.0;-0.02537599951028824;0.13468798995018005;1.1428959369659424;0.0;0.0;0.0
2003;-0.13249199092388153;0.17128799855709076;1.0003999471664429;-0.044895999133586884;0.16201600432395935;1.150704026222229;6.291250228881836;-9.183125495910645;-82.0268783569336
2005;0.0;0.0;0.0;-0.06441599875688553;0.20105600357055664;1.175104022026062;0.0;0.0;0.0
2007;0.0;0.0;0.0;-0.06831999868154526;0.25571200251579285;1.1633919477462769;0.0;0.0;0.0
2009;0.0;0.0;0.0;-0.04879999905824661;0.30646398663520813;1.1790080070495605;0.0;0.0;0.0
2011;-0.18592800199985504;0.3711239993572235;1.0255320072174072;-0.044895999133586884;0.26742398738861084;1.1546080112457275;13.221250534057617;-10.583125114440918;-78.1768798828125
2013;0.0;0.0;0.0;-0.06441599875688553;0.33769598603248596;1.1916959285736084;0.0;0.0;0.0
2015;0.0;0.0;0.0;-0.08003199845552444;0.4509119987487793;1.1790080070495605;0.0;0.0;0.0
2018;0.0;0.0;0.0;-0.05270399898290634;0.4001599848270416;1.1546080112457275;0.0;0.0;0.0
2020;-0.1803160011768341;0.5187439918518066;1.0348039865493774;-0.07612799853086472;0.48214399814605713;1.1633919477462769;19.171249389648438;-18.213125228881836;-71.10688018798828
2022;0.0;0.0;0.0;-0.05660799890756607;0.41577598452568054;1.1624159812927246;0.0;0.0;0.0
2024;0.0;0.0;0.0;-0.01756799966096878;0.4782399833202362;1.1497279405593872;0.0;0.0;0.0
2026;0.0;0.0;0.0;-0.01756799966096878;0.4782399833202362;1.1458239555358887;0.0;0.0;0.0
2028;-0.14322799444198608;0.5958479642868042;1.0135760307312012;0.009759999811649323;0.5602239966392517;1.1292319297790527;20.78125;-25.703125;-68.0268783569336
2030;0.0;0.0;0.0;-0.0058559998869895935;0.521183967590332;1.0570080280303955;0.0;0.0;0.0
2032;0.0;0.0;0.0;0.037087999284267426;0.4274879992008209;0.9955199956893921;0.0;0.0;0.0
2035;0.0;0.0;0.0;0.013663999736309052;0.5758399963378906;1.0726239681243896;0.0;0.0;0.0
2037;-0.09345199912786484;0.6563599705696106;0.9293959736824036;0.08003199845552444;0.6383039951324463;1.0521279573440552;21.971248626708984;-32.63312530517578;-64.80687713623047
2039;0.0;0.0;0.0;0.09564799815416336;0.6890559792518616;1.036512017250061;0.0;0.0;0.0
2041;0.0;0.0;0.0;0.0878399983048439;0.6773439645767212;0.9799039959907532;0.0;0.0;0.0
2043;0.0;0.0;0.0;0.08393599838018417;0.7241919636726379;0.9672159552574158;0.0;0.0;0.0
2045;-0.028060000389814377;0.8308199644088745;0.8747400045394897;0.09857599437236786;0.7671359777450562;0.9672159552574158;21.901248931884766;-37.673126220703125;-59.34687423706055
2047;0.0;0.0;0.0;0.16884799301624298;0.7788479924201965;0.9428159594535828;0.0;0.0;0.0
2049;0.0;0.0;0.0;0.20788799226284027;0.7866559624671936;0.9311040043830872;0.0;0.0;0.0
2052;0.0;0.0;0.0;0.18836799263954163;0.7827519774436951;0.8988959789276123;0.0;0.0;0.0
2054;0.06661199778318405;0.9252479672431946;0.8005639910697937;0.2117919921875;0.8061760067939758;0.8940159678459167;18.19124984741211;-33.1931266784668;-53.606876373291016
2056;0.0;0.0;0.0;0.21959999203681946;0.8256959915161133;0.8735199570655823;0.0;0.0;0.0
2058;0.0;0.0;0.0;0.2235039919614792;0.7944639921188354;0.8862079977989197;0.0;0.0;0.0
2060;0.0;0.0;0.0;0.2117919921875;0.8022719621658325;0.8657119870185852;0.0;0.0;0.0
2062;0.1088239997625351;0.9269559979438782;0.7556679844856262;0.25863999128341675;0.774944007396698;0.9106079936027527;15.391249656677246;-16.81312370300293;-46.676876068115234
2064;0.0;0.0;0.0;0.23521599173545837;0.7710399627685547;0.9184159636497498;0.0;0.0;0.0
2066;0.0;0.0;0.0;0.2117919921875;0.8022719621658325;0.9223200082778931;0.0;0.0;0.0
2069;0.0;0.0;0.0;0.23521599173545837;0.7554239630699158;0.9350079894065857;0.0;0.0;0.0
2071;0.11955999583005905;0.9076799750328064;0.7988559603691101;0.21959999203681946;0.7944639921188354;0.9750239849090576;12.171250343322754;4.396874904632568;-42.756874084472656
2073;0.0;0.0;0.0;0.2235039919614792;0.8022719621658325;1.0082080364227295;0.0;0.0;0.0
2075;0.0;0.0;0.0;0.1844639927148819;0.8647359609603882;1.060912013053894;0.0;0.0;0.0
2077;0.0;0.0;0.0;0.13371199369430542;0.8842560052871704;1.0765279531478882;0.0;0.0;0.0
2079;0.05172799900174141;0.9781959652900696;0.9137799739837646;0.09564799815416336;0.8842560052871704;1.0970239639282227;7.271250247955322;25.046875;-40.236873626708984
2081;0.0;0.0;0.0;0.05660799890756607;0.9154880046844482;1.1009279489517212;0.0;0.0;0.0
2083;0.0;0.0;0.0;0.05660799890756607;0.9193919897079468;1.1292319297790527;0.0;0.0;0.0
2086;0.0;0.0;0.0;0.0058559998869895935;0.9311040043830872;1.134112000465393;0.0;0.0;0.0
2088;-0.07881199568510056;1.0540800094604492;0.9918599724769592;0.01756799966096878;0.9271999597549438;1.1214239597320557;3.5612499713897705;25.18687629699707;-34.56687545776367
2090;0.0;0.0;0.0;0.013663999736309052;0.9154880046844482;1.1497279405593872;0.0;0.0;0.0
2092;0.0;0.0;0.0;0.0058559998869895935;0.895967960357666;1.1497279405593872;0.0;0.0;0.0
2094;0.0;0.0;0.0;0.04879999905824661;0.9037759900093079;1.1380159854888916;0.0;0.0;0.0
2096;-0.0936959981918335;1.04066002368927;1.006011962890625;0.040991999208927155;0.9037759900093079;1.1292319297790527;2.651250123977661;9.996874809265137;-27.146873474121094
2098;0.0;0.0;0.0;0.05660799890756607;0.8803519606590271;1.1253279447555542;0.0;0.0;0.0
2100;0.0;0.0;0.0;0.044895999133586884;0.8842560052871704;1.0970239639282227;0.0;0.0;0.0
2103;0.0;0.0;0.0;0.07222399860620499;0.8764479756355286;1.0648159980773926;0.0;0.0;0.0
2105;-0.056120000779628754;1.0169919729232788;0.9672159552574158;0.0605119988322258;0.8998720049858093;1.0687199831008911;3.28125;-0.8531250357627869;-20.4268741607666
2107;0.0;0.0;0.0;0.0878399983048439;0.9037759900093079;1.0277279615402222;0.0;0.0;0.0
2109;0.0;0.0;0.0;0.11419199407100677;0.8998720049858093;1.0043039321899414;0.0;0.0;0.0
2111;0.0;0.0;0.0;0.1298079937696457;0.9467200040817261;0.9838079810142517;0.0;0.0;0.0
2113;-0.003903999924659729;1.0426119565963745;0.8749839663505554;0.13761599361896515;0.9193919897079468;0.9633119702339172;5.731250286102295;-7.083125114440918;-12.656875610351562
2115;0.0;0.0;0.0;0.14932799339294434;0.9193919897079468;0.9311040043830872;0.0;0.0;0.0
2117;0.0;0.0;0.0;0.19227199256420135;0.9271999597549438;0.8862079977989197;0.0;0.0;0.0
2120;0.0;0.0;0.0;0.2117919921875;0.8998720049858093;0.8696159720420837;0.0;0.0;0.0
2122;0.07124799489974976;1.0418800115585327;0.7786039710044861;0.2235039919614792;0.8803519606590271;0.8618080019950867;10.491250038146973;-5.543125152587891;-3.1368749141693115
2124;0.0;0.0;0.0;0.2508319914340973;0.8491199612617493;0.8500959873199463;0.0;0.0;0.0
2126;0.0;0.0;0.0;0.2391199916601181;0.8295999765396118;0.8374080061912537;0.0;0.0;0.0
2128;0.0;0.0;0.0;0.2508319914340973;0.8022719621658325;0.8461920022964478;0.0;0.0;0.0
2130;0.11663199961185455;0.9567239880561829;0.7215079665184021;0.2508319914340973;0.7944639921188354;0.8374080061912537;16.371248245239258;7.336874961853027;5.053124904632568
2132;0.0;0.0;0.0;0.26254400610923767;0.8022719621658325;0.8217920064926147;0.0;0.0;0.0
2134;0.0;0.0;0.0;0.2664479911327362;0.7671359777450562;0.8374080061912537;0.0;0.0;0.0
2137;0.0;0.0;0.0;0.22740799188613892;0.8100799918174744;0.8413119912147522;0.0;0.0;0.0
2139;0.12029200047254562;0.9393999576568604;0.716871976852417;0.2117919921875;0.8217920064926147;0.8735199570655823;21.971248626708984;26.586875915527344;11.563124656677246
2141;0.0;0.0;0.0;0.20788799226284027;0.8256959915161133;0.8618080019950867;0.0;0.0;0.0
2143;0.0;0.0;0.0;0.16494399309158325;0.8452159762382507;0.8657119870185852;0.0;0.0;0.0
2145;0.0;0.0;0.0;0.1844639927148819;0.87254399061203;0.8901119828224182;0.0;0.0;0.0
2147;0.05709599703550339;0.9686799645423889;0.7559120059013367;0.13761599361896515;0.8217920064926147;0.9350079894065857;29.951250076293945;42.61687469482422;20.313125610351562
2149;0.0;0.0;0.0;0.12590399384498596;0.8413119912147522;0.9428159594535828;0.0;0.0;0.0
2152;0.0;0.0;0.0;0.10638399422168732;0.8217920064926147;0.9838079810142517;0.0;0.0;0.0
2154;0.0;0.0;0.0;0.07612799853086472;0.8256959915161133;0.9838079810142517;0.0;0.0;0.0
2156;-0.0287919994443655;0.9511119723320007;0.8400920033454895;0.04879999905824661;0.8022719621658325;1.0277279615402222;37.721248626708984;52.27687454223633;30.743125915527344
2158;0.0;0.0;0.0;0.02147199958562851;0.8100799918174744;1.0482239723205566;0.0;0.0;0.0
2160;0.0;0.0;0.0;0.044895999133586884;0.7710399627685547;1.0931199789047241;0.0;0.0;0.0
2162;0.0;0.0;0.0;-0.01756799966096878;0.7671359777450562;1.1009279489517212;0.0;0.0;0.0
2164;-0.0907679945230484;0.9069479703903198;0.9474520087242126;-0.009759999811649323;0.7437120079994202;1.1253279447555542;42.62125015258789;55.986873626708984;39.56312561035156
2167;0.0;0.0;0.0;-0.029279999434947968;0.7515199780464172;1.1741279363632202;0.0;0.0;0.0
2168;0.0;0.0;0.0;-0.05270399898290634;0.6929599642753601;1.1575360298156738;0.0;0.0;0.0
2171;0.0;0.0;0.0;-0.0331839993596077;0.6890559792518616;1.1741279363632202;0.0;0.0;0.0
2173;-0.17250800132751465;0.8781560063362122;1.0570080280303955;-0.14932799339294434;0.9154880046844482;1.3000320196151733;42.48125076293945;53.046875;45.30312728881836
2175;0.0;0.0;0.0;-0.11126399785280228;0.7554239630699158;1.23854398727417;0.0;0.0;0.0
2177;0.0;0.0;0.0;-0.115167997777462;0.7827519774436951;1.2434239387512207;0.0;0.0;0.0
2179;0.0;0.0;0.0;-0.09955199807882309;0.7515199780464172;1.2717279195785522;0.0;0.0;0.0
2181;-0.24399998784065247;0.9057279825210571;1.123863935470581;-0.13859200477600098;0.6968640089035034;1.2268320322036743;34.64125061035156;38.97687530517578;50.55312728881836
2184;0.0;0.0;0.0;-0.1571359932422638;0.7437120079994202;1.2346400022506714;0.0;0.0;0.0
2186;0.0;0.0;0.0;-0.10735999792814255;0.7437120079994202;1.2063360214233398;0.0;0.0;0.0
2188;0.0;0.0;0.0;-0.06441599875688553;0.6812480092048645;1.1819360256195068;0.0;0.0;0.0
2190;-0.22301599383354187;0.8488759994506836;1.089460015296936;-0.06831999868154526;0.7046719789505005;1.2268320322036743;23.861249923706055;27.00687599182129;56.083126068115234
2192;0.0;0.0;0.0;-0.02537599951028824;0.6695359945297241;1.1907199621200562;0.0;0.0;0.0
2194;0.0;0.0;0.0;-0.05270399898290634;0.6773439645767212;1.2024319171905518;0.0;0.0;0.0
2196;0.0;0.0;0.0;-0.07222399860620499;0.6539199948310852;1.1819360256195068;0.0;0.0;0.0
2198;-0.17445999383926392;0.7969039678573608;1.0606679916381836;-0.07612799853086472;0.6383039951324463;1.1536319255828857;14.481249809265137;19.376874923706055;59.86312484741211
2200;0.0;0.0;0.0;-0.08393599838018417;0.6265919804573059;1.1536319255828857;0.0;0.0;0.0
2203;0.0;0.0;0.0;-0.10345599800348282;0.5953599810600281;1.10971200466156;0.0;0.0;0.0
2205;0.0;0.0;0.0;-0.09564799815416336;0.5055679678916931;1.0560319423675537;0.0;0.0;0.0
2207;-0.21130399405956268;0.6944239735603333;0.9757559895515442;-0.05660799890756607;0.45871999859809875;1.085312008857727;5.101250171661377;8.666874885559082;65.39311981201172
2209;0.0;0.0;0.0;-0.01756799966096878;0.41967999935150146;1.0482239723205566;0.0;0.0;0.0
2211;0.0;0.0;0.0;0.0331839993596077;0.3337920010089874;1.036512017250061;0.0;0.0;0.0
2213;0.0;0.0;0.0;-0.009759999811649323;0.3337920010089874;1.0570080280303955;0.0;0.0;0.0
2215;-0.11492399871349335;0.4928799867630005;0.9186599850654602;0.013663999736309052;0.2635200023651123;1.036512017250061;-2.8787500858306885;9.086874961853027;70.36312103271484
2218;0.0;0.0;0.0;-0.029279999434947968;0.2752319872379303;1.0648159980773926;0.0;0.0;0.0
2220;0.0;0.0;0.0;-0.013663999736309052;0.2518079876899719;1.060912013053894;0.0;0.0;0.0
2222;0.0;0.0;0.0;-0.0878399983048439;0.20495998859405518;1.0570080280303955;0.0;0.0;0.0
2224;-0.16713999211788177;0.3921079933643341;0.9301279783248901;-0.12297599762678146;0.22838398814201355;1.0726239681243896;-9.108750343322754;24.626874923706055;70.64311981201172
2226;0.0;0.0;0.0;-0.09174399822950363;0.19324800372123718;1.0862879753112793;0.0;0.0;0.0
2228;0.0;0.0;0.0;-0.13468798995018005;0.21667200326919556;1.0579839944839478;0.0;0.0;0.0
2230;0.0;0.0;0.0;-0.13468798995018005;0.15811198949813843;1.0287039279937744;0.0;0.0;0.0
2232;-0.25058799982070923;0.3281799852848053;0.941107988357544;-0.14932799339294434;0.13468798995018005;1.0452959537506104;-13.168749809265137;23.716875076293945;74.21311950683594
2235;0.0;0.0;0.0;-0.13371199369430542;0.13078400492668152;0.9964959621429443;0.0;0.0;0.0
2237;0.0;0.0;0.0;-0.14640000462532043;0.07222399860620499;0.9847840070724487;0.0;0.0;0.0
2239;0.0;0.0;0.0;-0.09174399822950363;0.029279999434947968;0.9964959621429443;0.0;0.0;0.0
2241;-0.2513200044631958;0.2076440006494522;0.8666880130767822;-0.0878399983048439;0.037087999284267426;0.9808799624443054;-9.87874984741211;8.526874542236328;80.93312072753906
2243;0.0;0.0;0.0;-0.05660799890756607;-0.02537599951028824;0.9681919813156128;0.0;0.0;0.0
2245;0.0;0.0;0.0;-0.06831999868154526;-0.10345599800348282;0.9359839558601379;0.0;0.0;0.0
2247;0.0;0.0;0.0;-0.05270399898290634;-0.10345599800348282;0.9603840112686157;0.0;0.0;0.0
2249;-0.19910399615764618;0.06026799976825714;0.8171559572219849;-0.06441599875688553;-0.1698240041732788;0.9320799708366394;-4.908750057220459;3.8368749618530273;85.5531234741211
2252;0.0;0.0;0.0;-0.05270399898290634;-0.20105600357055664;0.9115839600563049;0.0;0.0;0.0
2254;0.0;0.0;0.0;-0.04879999905824661;-0.17763200402259827;0.9476959705352783;0.0;0.0;0.0
2256;0.0;0.0;0.0;-0.06831999868154526;-0.22838398814201355;0.9115839600563049;0.0;0.0;0.0
2258;-0.18129199743270874;-0.07075999677181244;0.7844600081443787;-0.06441599875688553;-0.29865598678588867;0.9320799708366394;-1.6887500286102295;11.466875076293945;87.23312377929688
2260;0.0;0.0;0.0;-0.037087999284267426;-0.31036800146102905;0.9467200040817261;0.0;0.0;0.0
2262;0.0;0.0;0.0;-0.06441599875688553;-0.3416000008583069;0.9711199998855591;0.0;0.0;0.0
2264;0.0;0.0;0.0;-0.05660799890756607;-0.3845439851284027;0.9633119702339172;0.0;0.0;0.0
2266;-0.18885599076747894;-0.20666798949241638;0.8410679697990417;-0.09955199807882309;-0.3962559998035431;1.0082080364227295;-0.07874999940395355;25.466875076293945;88.0731201171875
2269;0.0;0.0;0.0;-0.09174399822950363;-0.3728320002555847;1.0570080280303955;0.0;0.0;0.0
2271;0.0;0.0;0.0;-0.16884799301624298;-0.36111998558044434;1.0765279531478882;0.0;0.0;0.0
2273;0.0;0.0;0.0;-0.1727519929409027;-0.44310399889945984;1.0726239681243896;0.0;0.0;0.0
2275;-0.264739990234375;-0.26962000131607056;0.9332999587059021;-0.1727519929409027;-0.45871999859809875;1.10971200466156;-3.9287500381469727;37.78687286376953;86.60311889648438
2277;0.0;0.0;0.0;-0.20398399233818054;-0.4509119987487793;1.1009279489517212;0.0;0.0;0.0
2279;0.0;0.0;0.0;-0.2000799924135208;-0.5446079969406128;1.0804319381713867;0.0;0.0;0.0
2281;0.0;0.0;0.0;-0.19617599248886108;-0.610975980758667;1.1009279489517212;0.0;0.0;0.0
2283;-0.3125639855861664;-0.41113999485969543;0.9672159552574158;-0.16103999316692352;-0.6734399795532227;1.1292319297790527;-9.738750457763672;33.236873626708984;87.37312316894531
2286;0.0;0.0;0.0;-0.14640000462532043;-0.7788479924201965;1.1497279405593872;0.0;0.0;0.0
2288;0.0;0.0;0.0;-0.1454239934682846;-0.8178879618644714;1.1575360298156738;0.0;0.0;0.0
2290;0.0;0.0;0.0;-0.18836799263954163;-0.8608319759368896;1.1946239471435547;0.0;0.0;0.0
2292;-0.28474798798561096;-0.6853960156440735;1.0218719244003296;-0.1844639927148819;-0.9311040043830872;1.1907199621200562;-13.098750114440918;34.076873779296875;86.53311920166016
2294;0.0;0.0;0.0;-0.20788799226284027;-1.0247999429702759;1.1946239471435547;0.0;0.0;0.0
2296;0.0;0.0;0.0;-0.1727519929409027;-1.0872639417648315;1.2717279195785522;0.0;0.0;0.0
2298;0.0;0.0;0.0;-0.21959999203681946;-1.1184959411621094;1.2756320238113403;0.0;0.0;0.0
2300;-0.31500399112701416;-0.9181720018386841;1.1145919561386108;-0.22740799188613892;-1.1419199705123901;1.2922239303588867;-17.998750686645508;36.31687545776367;79.81312561035156
2303;0.0;0.0;0.0;-0.2391199916601181;-1.1965759992599487;1.3156479597091675;0.0;0.0;0.0
2305;0.0;0.0;0.0;-0.2235039919614792;-1.2434239387512207;1.3244320154190063;0.0;0.0;0.0
2307;0.0;0.0;0.0;-0.23521599173545837;-1.2590399980545044;1.3322399854660034;0.0;0.0;0.0
2309;-0.342087984085083;-1.09580397605896;1.1843760013580322;-0.2235039919614792;-1.3058879375457764;1.352735996246338;-24.92875099182129;33.65687561035156;71.13312530517578
2311;0.0;0.0;0.0;-0.20398399233818054;-1.309791922569275;1.3371199369430542;0.0;0.0;0.0
2313;0.0;0.0;0.0;-0.2117919921875;-1.3293119668960571;1.370303988456726;0.0;0.0;0.0
2315;0.0;0.0;0.0;-0.21959999203681946;-1.3332159519195557;1.3371199369430542;0.0;0.0;0.0
2317;-0.3411119878292084;-1.1943799257278442;1.2104840278625488;-0.20788799226284027;-1.3917759656906128;1.3332159519195557;-28.42875099182129;25.326875686645508;62.103126525878906
2320;0.0;0.0;0.0;-0.2117919921875;-1.3839679956436157;1.3371199369430542;0.0;0.0;0.0
2322;0.0;0.0;0.0;-0.18836799263954163;-1.4854719638824463;1.3371199369430542;0.0;0.0;0.0
2324;0.0;0.0;0.0;-0.18055999279022217;-1.5284159183502197;1.3127199411392212;0.0;0.0;0.0
2326;-0.3152479827404022;-1.331995964050293;1.1873040199279785;-0.1727519929409027;-1.555743932723999;1.3049119710922241;-25.8387508392334;14.266874313354492;54.68312454223633
2328;0.0;0.0;0.0;-0.18055999279022217;-1.5908799171447754;1.3293119668960571;0.0;0.0;0.0
2330;0.0;0.0;0.0;-0.1571359932422638;-1.6416319608688354;1.3293119668960571;0.0;0.0;0.0
2332;0.0;0.0;0.0;-0.1268799901008606;-1.637727975845337;1.3615199327468872;0.0;0.0;0.0
2334;-0.27327999472618103;-1.4857159852981567;1.1948679685592651;-0.15030398964881897;-1.653343915939331;1.3410239219665527;-18.348751068115234;10.416874885559082;45.163124084472656
2337;0.0;0.0;0.0;-0.16884799301624298;-1.637727975845337;1.3820159435272217;0.0;0.0;0.0
2339;0.0;0.0;0.0;-0.1571359932422638;-1.6299200057983398;1.3986079692840576;0.0;0.0;0.0
2341;0.0;0.0;0.0;-0.16884799301624298;-1.6338239908218384;1.4142240285873413;0.0;0.0;0.0
2343;-0.2971920073032379;-1.4974279403686523;1.2548919916152954;-0.20398399233818054;-1.6143039464950562;1.3986079692840576;-12.678750038146973;12.026874542236328;32.143123626708984
2345;0.0;0.0;0.0;-0.2235039919614792;-1.6103999614715576;1.4025119543075562;0.0;0.0;0.0
2347;0.0;0.0;0.0;-0.21569599211215973;-1.6221119165420532;1.3937280178070068;0.0;0.0;0.0
2349;0.0;0.0;0.0;-0.22740799188613892;-1.6143039464950562;1.3742079734802246;0.0;0.0;0.0
2351;-0.3398919999599457;-1.4793720245361328;1.266603946685791;-0.23521599173545837;-1.598688006401062;1.3937280178070068;-8.478750228881836;3.7668750286102295;18.84312629699707
2354;0.0;0.0;0.0;-0.21569599211215973;-1.5791679620742798;1.3693280220031738;0.0;0.0;0.0
2356;0.0;0.0;0.0;-0.2508319914340973;-1.5830719470977783;1.3615199327468872;0.0;0.0;0.0
2358;0.0;0.0;0.0;-0.20788799226284027;-1.5674560070037842;1.3049119710922241;0.0;0.0;0.0
2360;-0.34574800729751587;-1.4391119480133057;1.2195119857788086;-0.20788799226284027;-1.5245119333267212;1.3127199411392212;-2.3887500762939453;-13.733125686645508;5.263124942779541
2362;0.0;0.0;0.0;-0.1571359932422638;-1.4893759489059448;1.297104001045227;0.0;0.0;0.0
2364;0.0;0.0;0.0;-0.13468798995018005;-1.4776639938354492;1.2766079902648926;0.0;0.0;0.0
2366;0.0;0.0;0.0;-0.11907199770212173;-1.4308159351348877;1.2278079986572266;0.0;0.0;0.0
2368;-0.26449599862098694;-1.334191918373108;1.1248400211334229;-0.08393599838018417;-1.4073920249938965;1.175104022026062;2.791249990463257;-32.21312713623047;-8.38687515258789
2371;0.0;0.0;0.0;-0.04879999905824661;-1.368351936340332;1.1712000370025635;0.0;0.0;0.0
2373;0.0;0.0;0.0;-0.04879999905824661;-1.3371199369430542;1.126304030418396;0.0;0.0;0.0
2375;0.0;0.0;0.0;-0.02537599951028824;-1.3058879375457764;1.1145919561386108;0.0;0.0;0.0
2377;-0.16421200335025787;-1.2051160335540771;1.0152839422225952;-0.02147199958562851;-1.278559923171997;1.101904034614563;3.911250114440918;-37.46312713623047;-20.4268741607666
2379;0.0;0.0;0.0;-0.02147199958562851;-1.2356159687042236;1.0901919603347778;0.0;0.0;0.0
2381;0.0;0.0;0.0;0.013663999736309052;-1.180959939956665;1.0413919687271118;0.0;0.0;0.0
2383;0.0;0.0;0.0;0.029279999434947968;-1.1536319255828857;1.0208959579467773;0.0;0.0;0.0
2385;-0.11394799500703812;-1.051151990890503;0.9215880036354065;0.044895999133586884;-1.1145919561386108;1.0091840028762817;3.0012500286102295;-28.853124618530273;-30.646873474121094
2388;0.0;0.0;0.0;0.037087999284267426;-1.0599359273910522;1.0091840028762817;0.0;0.0;0.0
2390;0.0;0.0;0.0;0.040991999208927155;-1.0052800178527832;0.9886879920959473;0.0;0.0;0.0
2392;0.0;0.0;0.0;0.037087999284267426;-1.0326080322265625;1.0003999471664429;0.0;0.0;0.0
2394;-0.08808399736881256;-0.9091439843177795;0.8788880109786987;0.01756799966096878;-0.9584319591522217;1.0413919687271118;2.9312500953674316;-14.713125228881836;-37.646873474121094
2396;0.0;0.0;0.0;0.02537599951028824;-0.9115839600563049;1.036512017250061;0.0;0.0;0.0
2398;0.0;0.0;0.0;0.009759999811649323;-0.8998720049858093;1.0687199831008911;0.0;0.0;0.0
2400;0.0;0.0;0.0;-0.0019519999623298645;-0.8920639753341675;1.0726239681243896;0.0;0.0;0.0
2402;-0.11565599590539932;-0.7649399638175964;0.9271999597549438;-0.040991999208927155;-0.8335039615631104;1.0570080280303955;1.7412500381469727;1.8768750429153442;-44.43687438964844
2405;0.0;0.0;0.0;-0.05270399898290634;-0.8139839768409729;1.0970239639282227;0.0;0.0;0.0
2407;0.0;0.0;0.0;-0.06441599875688553;-0.7671359777450562;1.0970239639282227;0.0;0.0;0.0
2409;0.0;0.0;0.0;-0.07222399860620499;-0.7593280076980591;1.1458239555358887;0.0;0.0;0.0
