Timestamp(ms);LG-Accel x(g);LG-Accel y(g);LG-Accel z(g);HG-Accel x(g);HG-Accel y(g);HG-Accel z(g);Gyro x(dps);Gyro y(dps);Gyro z(dps)
98;0.0;0.0;0.0;0.24399998784065247;0.0;1.1204479932785034;0.0;0.0;0.0
101;0.0;0.0;0.0;0.2518079876899719;-0.031231999397277832;1.124351978302002;0.0;0.0;0.0
102;0.0;0.0;0.0;0.23228800296783447;-0.023423999547958374;1.107759952545166;0.0;0.0;0.0
105;0.0;0.0;0.0;0.236191987991333;-0.023423999547958374;1.099951982498169;0.0;0.0;0.0
107;0.0;0.0;0.0;0.22448000311851501;-0.04684799909591675;1.1116639375686646;0.0;0.0;0.0
109;0.0;0.0;0.0;0.22838398814201355;-0.04879999905824661;1.1048319339752197;0.0;0.0;0.0
111;0.0;0.0;0.0;0.2479040026664734;-0.05660799890756607;1.1048319339752197;0.0;0.0;0.0
113;0.0;0.0;0.0;0.2479040026664734;-0.029279999434947968;1.1136159896850586;0.0;0.0;0.0
115;0.12151199579238892;0.09223199635744095;0.9799039959907532;0.23228800296783447;-0.029279999434947968;1.1136159896850586;0.0;0.0;0.0
117;0.0;0.0;0.0;0.22448000311851501;-0.05270399898290634;1.10971200466156;0.0;0.0;0.0
119;0.0;0.0;0.0;0.2205759882926941;-0.044895999133586884;1.1136159896850586;0.0;0.0;0.0
122;0.0;0.0;0.0;0.19324800372123718;-0.029279999434947968;1.1214239597320557;0.0;0.0;0.0
124;0.09882000088691711;0.0878399983048439;0.9808799624443054;0.21276798844337463;-0.040991999208927155;1.1136159896850586;0.0;0.0;0.0
126;0.0;0.0;0.0;0.21276798844337463;-0.04879999905824661;1.1087360382080078;0.0;0.0;0.0
128;0.0;0.0;0.0;0.19324800372123718;-0.044895999133586884;1.1048319339752197;0.0;0.0;0.0
130;0.0;0.0;0.0;0.22448000311851501;-0.044895999133586884;1.1292319297790527;0.0;0.0;0.0
132;0.09125600010156631;0.08661999553442001;0.9862479567527771;0.22448000311851501;-0.044895999133586884;1.1214239597320557;0.0;0.0;0.0
134;0.0;0.0;0.0;0.21276798844337463;-0.037087999284267426;1.1214239597320557;0.0;0.0;0.0
137;0.0;0.0;0.0;0.22448000311851501;-0.06831999868154526;1.1214239597320557;0.0;0.0;0.0
139;0.0;0.0;0.0;0.21276798844337463;-0.044895999133586884;1.1331360340118408;0.0;0.0;0.0
141;0.0907679945230484;0.08906000107526779;0.9977160096168518;0.19324800372123718;-0.04879999905824661;1.1292319297790527;0.0;0.0;0.0
143;0.0;0.0;0.0;0.2205759882926941;-0.037087999284267426;1.1292319297790527;0.0;0.0;0.0
145;0.0;0.0;0.0;0.21276798844337463;-0.037087999284267426;1.1253279447555542;0.0;0.0;0.0
147;0.0;0.0;0.0;0.21667200326919556;-0.037087999284267426;1.1214239597320557;0.0;0.0;0.0
149;0.10467600077390671;0.09686800092458725;1.0033279657363892;0.24399998784065247;-0.02147199958562851;1.10971200466156;0.0;0.0;0.0
151;0.0;0.0;0.0;0.2479040026664734;-0.0019519999623298645;1.1253279447555542;0.0;0.0;0.0
154;0.0;0.0;0.0;0.23228800296783447;-0.040991999208927155;1.10971200466156;0.0;0.0;0.0
156;0.0;0.0;0.0;0.2518079876899719;-0.029279999434947968;1.0892159938812256;0.0;0.0;0.0
158;0.12761199474334717;0.10272400081157684;0.9877119660377502;0.2518079876899719;-0.040991999208927155;1.1175199747085571;-8.640625;-0.5600000023841858;7.24500036239624
160;0.0;0.0;0.0;0.2518079876899719;-0.02537599951028824;1.1419199705123901;0.0;0.0;0.0
162;0.0;0.0;0.0;0.24399998784065247;-0.040991999208927155;1.10971200466156;0.0;0.0;0.0
164;0.0;0.0;0.0;0.27132800221443176;-0.037087999284267426;1.1136159896850586;0.0;0.0;0.0
166;0.13395600020885468;0.10613999515771866;0.9850279688835144;0.2518079876899719;-0.02537599951028824;1.1136159896850586;-12.840624809265137;0.14000000059604645;8.71500015258789
169;0.0;0.0;0.0;0.24399998784065247;-0.0331839993596077;1.0931199789047241;0.0;0.0;0.0
171;0.0;0.0;0.0;0.2635200023651123;-0.02147199958562851;1.1009279489517212;0.0;0.0;0.0
173;0.0;0.0;0.0;0.20495998859405518;-0.0331839993596077;1.1380159854888916;0.0;0.0;0.0
175;0.12077999860048294;0.09418399631977081;0.9747799634933472;0.20495998859405518;-0.044895999133586884;1.10971200466156;-17.740625381469727;2.0299999713897705;10.045000076293945
177;0.0;0.0;0.0;0.24692799150943756;-0.0605119988322258;1.0892159938812256;0.0;0.0;0.0
179;0.0;0.0;0.0;0.23521599173545837;-0.06441599875688553;1.0892159938812256;0.0;0.0;0.0
181;0.0;0.0;0.0;0.2508319914340973;-0.08003199845552444;1.060912013053894;0.0;0.0;0.0
183;0.11687599867582321;0.06758800148963928;0.9515999555587769;0.24692799150943756;-0.08393599838018417;1.0814080238342285;-22.780624389648438;4.829999923706055;8.364999771118164
186;0.0;0.0;0.0;0.27425599098205566;-0.09564799815416336;1.0521279573440552;0.0;0.0;0.0
188;0.0;0.0;0.0;0.2235039919614792;-0.09955199807882309;1.0326080322265625;0.0;0.0;0.0
190;0.0;0.0;0.0;0.26254400610923767;-0.09955199807882309;1.0404160022735596;0.0;0.0;0.0
192;0.13053999841213226;0.03903999924659729;0.9120720028877258;0.2664479911327362;-0.10345599800348282;0.9916160106658936;-25.580625534057617;9.800000190734863;8.505000114440918
194;0.0;0.0;0.0;0.236191987991333;-0.09564799815416336;0.9955199956893921;0.0;0.0;0.0
196;0.0;0.0;0.0;0.2479040026664734;-0.0878399983048439;0.9994239807128906;0.0;0.0;0.0
198;0.0;0.0;0.0;0.22838398814201355;-0.09955199807882309;0.9877119660377502;0.0;0.0;0.0
200;0.1105320006608963;0.03513599932193756;0.8771799802780151;0.20495998859405518;-0.08003199845552444;1.0082080364227295;-26.910625457763672;17.850000381469727;7.385000228881836
203;0.0;0.0;0.0;0.2088640034198761;-0.06441599875688553;1.036512017250061;0.0;0.0;0.0
205;0.0;0.0;0.0;0.24009600281715393;-0.07612799853086472;1.0482239723205566;0.0;0.0;0.0
207;0.0;0.0;0.0;0.20105600357055664;-0.0605119988322258;1.0814080238342285;0.0;0.0;0.0
209;0.10491999983787537;0.07173600047826767;0.9149999618530273;0.23228800296783447;-0.05270399898290634;1.0648159980773926;-28.870624542236328;25.899999618530273;5.49500036239624
211;0.0;0.0;0.0;0.21667200326919556;-0.009759999811649323;1.0804319381713867;0.0;0.0;0.0
213;0.0;0.0;0.0;0.24399998784065247;-0.029279999434947968;1.1253279447555542;0.0;0.0;0.0
215;0.0;0.0;0.0;0.236191987991333;-0.040991999208927155;1.1292319297790527;0.0;0.0;0.0
217;0.11370399594306946;0.10272400081157684;0.9703879952430725;0.24009600281715393;-0.013663999736309052;1.1048319339752197;-33.350624084472656;32.970001220703125;5.005000114440918
219;0.0;0.0;0.0;0.24399998784065247;-0.029279999434947968;1.10971200466156;0.0;0.0;0.0
222;0.0;0.0;0.0;0.24399998784065247;-0.04879999905824661;1.10971200466156;0.0;0.0;0.0
224;0.0;0.0;0.0;0.21667200326919556;-0.0331839993596077;1.1819360256195068;0.0;0.0;0.0
226;0.12029200047254562;0.10223599523305893;1.006011962890625;0.22838398814201355;-0.02537599951028824;1.1780319213867188;-38.670623779296875;38.56999969482422;8.015000343322754
228;0.0;0.0;0.0;0.2088640034198761;-0.040991999208927155;1.1536319255828857;0.0;0.0;0.0
230;0.0;0.0;0.0;0.21667200326919556;-0.0331839993596077;1.1458239555358887;0.0;0.0;0.0
232;0.0;0.0;0.0;0.17763200402259827;-0.044895999133586884;1.1946239471435547;0.0;0.0;0.0
234;0.0773480013012886;0.09662400186061859;1.038219928741455;0.1698240041732788;-0.029279999434947968;1.2063360214233398;-42.73062515258789;40.459999084472656;12.565000534057617
237;0.0;0.0;0.0;0.13859200477600098;-0.044895999133586884;1.1985279321670532;0.0;0.0;0.0
239;0.0;0.0;0.0;0.12297599762678146;-0.029279999434947968;1.2063360214233398;0.0;0.0;0.0
241;0.0;0.0;0.0;0.10735999792814255;-0.044895999133586884;1.2307360172271729;0.0;0.0;0.0
243;0.00951599981635809;0.08247199654579163;1.0760400295257568;0.07710400223731995;-0.06831999868154526;1.2151199579238892;-43.850624084472656;35.90999984741211;17.395000457763672
245;0.0;0.0;0.0;0.10052800178527832;-0.07612799853086472;1.2307360172271729;0.0;0.0;0.0
247;0.0;0.0;0.0;0.06929600238800049;-0.10735999792814255;1.2268320322036743;0.0;0.0;0.0
249;0.0;0.0;0.0;0.07710400223731995;-0.09174399822950363;1.2434239387512207;0.0;0.0;0.0
251;-0.04050400108098984;0.04172400012612343;1.1050759553909302;0.08881600201129913;-0.13859200477600098;1.2307360172271729;-41.260623931884766;24.639999389648438;22.71500015258789
254;0.0;0.0;0.0;0.09955199807882309;-0.11126399785280228;1.2395199537277222;0.0;0.0;0.0
256;0.0;0.0;0.0;0.03806399926543236;-0.13468798995018005;1.2307360172271729;0.0;0.0;0.0
258;0.0;0.0;0.0;0.057583998888731;-0.1542080044746399;1.2229279279708862;0.0;0.0;0.0
260;-0.0663679987192154;-0.007563999854028225;1.0967799425125122;0.03806399926543236;-0.14640000462532043;1.2063360214233398;-36.71062469482422;13.09000015258789;26.985000610351562
262;0.0;0.0;0.0;0.0058559998869895935;-0.11126399785280228;1.1985279321670532;0.0;0.0;0.0
264;0.0;0.0;0.0;0.044895999133586884;-0.1698240041732788;1.1985279321670532;0.0;0.0;0.0
266;0.0;0.0;0.0;0.013663999736309052;-0.1698240041732788;1.1780319213867188;0.0;0.0;0.0
268;-0.08832799643278122;-0.03635599836707115;1.0618879795074463;0.013663999736309052;-0.1698240041732788;1.1780319213867188;-33.770626068115234;4.829999923706055;27.405000686645508
271;0.0;0.0;0.0;0.02537599951028824;-0.18934398889541626;1.1497279405593872;0.0;0.0;0.0
273;0.0;0.0;0.0;0.013663999736309052;-0.18934398889541626;1.1536319255828857;0.0;0.0;0.0
275;0.0;0.0;0.0;0.029279999434947968;-0.16591998934745789;1.1214239597320557;0.0;0.0;0.0
277;-0.09711199998855591;-0.04123599827289581;1.0160160064697266;0.029279999434947968;-0.16591998934745789;1.1175199747085571;-34.4006233215332;-0.3499999940395355;23.204999923706055
279;0.0;0.0;0.0;0.05270399898290634;-0.18544000387191772;1.1048319339752197;0.0;0.0;0.0
281;0.0;0.0;0.0;0.05270399898290634;-0.15811198949813843;1.1048319339752197;0.0;0.0;0.0
283;0.0;0.0;0.0;0.05660799890756607;-0.18544000387191772;1.10971200466156;0.0;0.0;0.0
285;-0.0773480013012886;-0.025619998574256897;0.9838079810142517;0.0605119988322258;-0.16201600432395935;1.1214239597320557;-38.670623779296875;-2.7300000190734863;17.67500114440918
288;0.0;0.0;0.0;0.07222399860620499;-0.1424959897994995;1.10971200466156;0.0;0.0;0.0
290;0.0;0.0;0.0;0.06441599875688553;-0.15030398964881897;1.1214239597320557;0.0;0.0;0.0
292;0.0;0.0;0.0;0.07222399860620499;-0.15030398964881897;1.1253279447555542;0.0;0.0;0.0
294;-0.049775999039411545;-0.0012199999764561653;0.9935680031776428;0.06441599875688553;-0.115167997777462;1.1214239597320557;-47.490623474121094;-3.0799999237060547;13.475000381469727
296;0.0;0.0;0.0;0.07320000231266022;-0.1268799901008606;1.1292319297790527;0.0;0.0;0.0
298;0.0;0.0;0.0;0.08100800216197968;-0.11907199770212173;1.1253279447555542;0.0;0.0;0.0
300;0.0;0.0;0.0;0.06929600238800049;-0.15030398964881897;1.1136159896850586;0.0;0.0;0.0
302;-0.0348920002579689;0.003415999934077263;1.0003999471664429;0.09662400186061859;-0.16201600432395935;1.1136159896850586;-60.72062683105469;-0.3499999940395355;10.744999885559082
305;0.0;0.0;0.0;0.0849120020866394;-0.1542080044746399;1.10971200466156;0.0;0.0;0.0
307;0.0;0.0;0.0;0.08881600201129913;-0.19715198874473572;1.0765279531478882;0.0;0.0;0.0
309;0.0;0.0;0.0;0.0849120020866394;-0.2088640034198761;1.0648159980773926;0.0;0.0;0.0
311;-0.044652000069618225;-0.04001599922776222;0.9545279741287231;0.045871999114751816;-0.21667200326919556;1.0482239723205566;-71.92062377929688;6.159999847412109;6.685000419616699
313;0.0;0.0;0.0;0.06831999868154526;-0.22838398814201355;1.044319987297058;0.0;0.0;0.0
315;0.0;0.0;0.0;0.02537599951028824;-0.2205759882926941;1.0082080364227295;0.0;0.0;0.0
317;0.0;0.0;0.0;0.01756799966096878;-0.24009600281715393;1.0277279615402222;0.0;0.0;0.0
319;-0.07954400032758713;-0.0983319953083992;0.9030439853668213;0.013663999736309052;-0.25571200251579285;1.0326080322265625;-76.890625;13.230000495910645;1.0149999856948853
322;0.0;0.0;0.0;0.01756799966096878;-0.2479040026664734;1.036512017250061;0.0;0.0;0.0
324;0.0;0.0;0.0;0.0058559998869895935;-0.25571200251579285;1.036512017250061;0.0;0.0;0.0
326;0.0;0.0;0.0;0.02147199958562851;-0.24399998784065247;1.0931199789047241;0.0;0.0;0.0
328;-0.11150799691677094;-0.11297199875116348;0.9206119775772095;0.0058559998869895935;-0.21667200326919556;1.1009279489517212;-77.45062255859375;18.829999923706055;-5.144999980926514
330;0.0;0.0;0.0;-0.020495999604463577;-0.22838398814201355;1.1048319339752197;0.0;0.0;0.0
332;0.0;0.0;0.0;-0.01659199967980385;-0.2205759882926941;1.134112000465393;0.0;0.0;0.0
334;0.0;0.0;0.0;-0.01268799975514412;-0.24009600281715393;1.158511996269226;0.0;0.0;0.0
336;-0.12175599485635757;-0.08979199826717377;1.0008879899978638;-0.00878399983048439;-0.2088640034198761;1.1702239513397217;-76.96062469482422;22.75;-9.414999961853027
339;0.0;0.0;0.0;-0.024399999529123306;-0.20495998859405518;1.1819360256195068;0.0;0.0;0.0
341;0.0;0.0;0.0;-0.04391999915242195;-0.22448000311851501;1.2063360214233398;0.0;0.0;0.0
343;0.0;0.0;0.0;-0.01659199967980385;-0.3337920010089874;1.2307360172271729;0.0;0.0;0.0
345;-0.14591199159622192;-0.12614800035953522;1.0657919645309448;-0.020495999604463577;-0.31036800146102905;1.2063360214233398;-74.1606216430664;24.010000228881836;-11.444999694824219
347;0.0;0.0;0.0;-0.11907199770212173;-0.2518079876899719;1.2024319171905518;0.0;0.0;0.0
349;0.0;0.0;0.0;-0.13468798995018005;-0.2205759882926941;1.1702239513397217;0.0;0.0;0.0
351;0.0;0.0;0.0;-0.1268799901008606;-0.30646398663520813;1.1819360256195068;0.0;0.0;0.0
353;-0.2454639971256256;-0.12443999946117401;1.0657919645309448;-0.15323199331760406;-0.2791360020637512;1.2756320238113403;-62.680625915527344;21.0;-15.225000381469727
356;0.0;0.0;0.0;-0.14640000462532043;-0.15811198949813843;1.3322399854660034;0.0;0.0;0.0
358;0.0;0.0;0.0;-0.08393599838018417;-0.2908479869365692;1.3039360046386719;0.0;0.0;0.0
360;0.0;0.0;0.0;-0.040991999208927155;-0.15030398964881897;1.311743974685669;0.0;0.0;0.0
362;-0.20325200259685516;-0.07685999572277069;1.1675399541854858;-0.0019519999623298645;-0.2479040026664734;1.2512320280075073;-40.00062561035156;8.539999961853027;-18.934999465942383
364;0.0;0.0;0.0;-0.08686399459838867;-0.2205759882926941;1.2678239345550537;0.0;0.0;0.0
366;0.0;0.0;0.0;-0.07515199482440948;-0.17372798919677734;1.287343978881836;0.0;0.0;0.0
368;0.0;0.0;0.0;-0.05953599885106087;-0.1815359890460968;1.3039360046386719;0.0;0.0;0.0
370;-0.1949559897184372;-0.0634399950504303;1.156559944152832;-0.14932799339294434;-0.1542080044746399;1.3000320196151733;-30.760623931884766;3.990000009536743;-17.2549991607666
373;0.0;0.0;0.0;-0.1298079937696457;-0.17372798919677734;1.2834399938583374;0.0;0.0;0.0
375;0.0;0.0;0.0;-0.17958399653434753;-0.20105600357055664;1.2795360088348389;0.0;0.0;0.0
377;0.0;0.0;0.0;-0.230335995554924;-0.18934398889541626;1.2922239303588867;0.0;0.0;0.0
379;-0.29109200835227966;-0.03879600018262863;1.1675399541854858;-0.2147199958562851;-0.14640000462532043;1.3078399896621704;-23.830625534057617;-2.0299999713897705;-21.735000610351562
381;0.0;0.0;0.0;-0.1571359932422638;-0.13078400492668152;1.3449280261993408;0.0;0.0;0.0
383;0.0;0.0;0.0;-0.1844639927148819;-0.1268799901008606;1.3078399896621704;0.0;0.0;0.0
385;0.0;0.0;0.0;-0.16494399309158325;-0.0878399983048439;1.311743974685669;0.0;0.0;0.0
387;-0.29182398319244385;0.009271999821066856;1.181447982788086;-0.1424959897994995;-0.09174399822950363;1.3244320154190063;-16.34062385559082;-14.770000457763672;-32.025001525878906
390;0.0;0.0;0.0;-0.15323199331760406;-0.037087999284267426;1.3732320070266724;0.0;0.0;0.0
392;0.0;0.0;0.0;-0.12199999392032623;-0.040991999208927155;1.401535987854004;0.0;0.0;0.0
394;0.0;0.0;0.0;-0.0605119988322258;0.013663999736309052;1.3976320028305054;0.0;0.0;0.0
396;-0.2315559983253479;0.10540799796581268;1.2409839630126953;-0.05270399898290634;0.01756799966096878;1.3888479471206665;-15.710624694824219;-24.71000099182129;-40.70500183105469
398;0.0;0.0;0.0;-0.05660799890756607;0.0058559998869895935;1.3566399812698364;0.0;0.0;0.0
400;0.0;0.0;0.0;-0.02147199958562851;0.0605119988322258;1.3488320112228394;0.0;0.0;0.0
402;0.0;0.0;0.0;-0.013663999736309052;0.07222399860620499;1.3449280261993408;0.0;0.0;0.0
404;-0.15323199331760406;0.18544000387191772;1.2273199558258057;-0.02147199958562851;0.07612799853086472;1.3400479555130005;-19.7706241607666;-32.40999984741211;-44.345001220703125
407;0.0;0.0;0.0;-0.02147199958562851;0.1268799901008606;1.3244320154190063;0.0;0.0;0.0
409;0.0;0.0;0.0;0.0019519999623298645;0.11907199770212173;1.336143970489502;0.0;0.0;0.0
411;0.0;0.0;0.0;0.009759999811649323;0.09174399822950363;1.2961280345916748;0.0;0.0;0.0
413;-0.1268799901008606;0.23668000102043152;1.1880359649658203;0.02147199958562851;0.11126399785280228;1.3000320196151733;-20.400625228881836;-36.119998931884766;-49.80500030517578
415;0.0;0.0;0.0;0.10638399422168732;0.115167997777462;1.2922239303588867;0.0;0.0;0.0
417;0.0;0.0;0.0;0.13761599361896515;0.13859200477600098;1.2756320238113403;0.0;0.0;0.0
419;0.0;0.0;0.0;0.1844639927148819;0.16201600432395935;1.2473279237747192;0.0;0.0;0.0
421;0.006099999882280827;0.27254799008369446;1.1436280012130737;0.20398399233818054;0.15811198949813843;1.2434239387512207;-19.630624771118164;-37.65999984741211;-54.564998626708984
424;0.0;0.0;0.0;0.22740799188613892;0.1698240041732788;1.2551360130310059;0.0;0.0;0.0
426;0.0;0.0;0.0;0.2820639908313751;0.18934398889541626;1.2639199495315552;0.0;0.0;0.0
428;0.0;0.0;0.0;0.2898719906806946;0.21667200326919556;1.2512320280075073;0.0;0.0;0.0
430;0.1449359953403473;0.32256799936294556;1.1282559633255005;0.3211039900779724;0.2088640034198761;1.2473279237747192;-17.740625381469727;-30.100000381469727;-52.53499984741211
432;0.0;0.0;0.0;0.3757599890232086;0.2205759882926941;1.2229279279708862;0.0;0.0;0.0
434;0.0;0.0;0.0;0.37966400384902954;0.21276798844337463;1.2268320322036743;0.0;0.0;0.0
436;0.0;0.0;0.0;0.3757599890232086;0.20495998859405518;1.2346400022506714;0.0;0.0;0.0
438;0.25571200251579285;0.3450160026550293;1.097267985343933;0.4304159879684448;0.22448000311851501;1.2229279279708862;-14.80062484741211;-19.389999389648438;-41.685001373291016
441;0.0;0.0;0.0;0.4694559872150421;0.1424959897994995;1.2063360214233398;0.0;0.0;0.0
443;0.0;0.0;0.0;0.4304159879684448;0.2752319872379303;1.1946239471435547;0.0;0.0;0.0
445;0.0;0.0;0.0;0.4421280026435852;0.20495998859405518;1.1497279405593872;0.0;0.0;0.0
447;0.32037198543548584;0.33257198333740234;1.0550559759140015;0.43432000279426575;0.19715198874473572;1.1702239513397217;-10.670624732971191;-8.119999885559082;-27.125
449;0.0;0.0;0.0;0.4684799909591675;0.15811198949813843;1.1497279405593872;0.0;0.0;0.0
451;0.0;0.0;0.0;0.4411519765853882;0.16201600432395935;1.1497279405593872;0.0;0.0;0.0
453;0.0;0.0;0.0;0.4567679762840271;0.22448000311851501;1.1985279321670532;0.0;0.0;0.0
455;0.35819199681282043;0.3181760013103485;1.0279719829559326;0.5036159753799438;0.23228800296783447;1.1663199663162231;-0.10062500089406967;0.7699999809265137;-9.765000343322754
458;0.0;0.0;0.0;0.5153279900550842;0.15811198949813843;1.1624159812927246;0.0;0.0;0.0
460;0.0;0.0;0.0;0.5465599894523621;-0.01756799966096878;1.1253279447555542;0.0;0.0;0.0
462;0.0;0.0;0.0;0.39137598872184753;0.17763200402259827;1.1497279405593872;0.0;0.0;0.0
464;0.3862519860267639;0.26791200041770935;1.0379760265350342;0.5426560044288635;0.18934398889541626;1.2307360172271729;11.09937572479248;10.010000228881836;10.1850004196167
466;0.0;0.0;0.0;0.5084959864616394;0.18934398889541626;1.2307360172271729;0.0;0.0;0.0
468;0.0;0.0;0.0;0.4577440023422241;0.17372798919677734;1.2795360088348389;0.0;0.0;0.0
470;0.0;0.0;0.0;0.5319200158119202;0.1424959897994995;1.2590399980545044;0.0;0.0;0.0
472;0.38210397958755493;0.29865598678588867;1.1184959411621094;0.48897600173950195;0.18934398889541626;1.3000320196151733;20.969375610351562;20.020000457763672;27.755001068115234
475;0.0;0.0;0.0;0.4304159879684448;0.1268799901008606;1.311743974685669;0.0;0.0;0.0
477;0.0;0.0;0.0;0.4655520021915436;0.09564799815416336;1.3205280303955078;0.0;0.0;0.0
479;0.0;0.0;0.0;0.44603198766708374;0.06831999868154526;1.3244320154190063;0.0;0.0;0.0
481;0.3281799852848053;0.22838398814201355;1.1894999742507935;0.40699198842048645;0.037087999284267426;1.3449280261993408;21.529375076293945;23.8700008392334;49.525001525878906
483;0.0;0.0;0.0;0.42553597688674927;-0.009759999811649323;1.3488320112228394;0.0;0.0;0.0
485;0.0;0.0;0.0;0.4411519765853882;-0.029279999434947968;1.3322399854660034;0.0;0.0;0.0
487;0.0;0.0;0.0;0.4138239920139313;-0.05660799890756607;1.3449280261993408;0.0;0.0;0.0
489;0.29572799801826477;0.11443600058555603;1.2138999700546265;0.42553597688674927;-0.08393599838018417;1.360543966293335;19.849374771118164;22.540000915527344;61.14500045776367
492;0.0;0.0;0.0;0.42553597688674927;-0.1268799901008606;1.3283360004425049;0.0;0.0;0.0
494;0.0;0.0;0.0;0.4147999882698059;-0.15030398964881897;1.3166239261627197;0.0;0.0;0.0
496;0.0;0.0;0.0;0.44896000623703003;-0.15811198949813843;1.3039360046386719;0.0;0.0;0.0
498;0.3067080080509186;0.0058559998869895935;1.20169997215271;0.4567679762840271;-0.19715198874473572;1.3039360046386719;17.74937629699707;20.020000457763672;65.90499877929688
500;0.0;0.0;0.0;0.4450559914112091;-0.19715198874473572;1.3244320154190063;0.0;0.0;0.0
502;0.0;0.0;0.0;0.4684799909591675;-0.22838398814201355;1.3039360046386719;0.0;0.0;0.0
504;0.0;0.0;0.0;0.47628799080848694;-0.2088640034198761;1.287343978881836;0.0;0.0;0.0
506;0.35404399037361145;-0.07783599942922592;1.1677839756011963;0.48799997568130493;-0.25571200251579285;1.2922239303588867;16.139375686645508;17.71000099182129;64.92499542236328
509;0.0;0.0;0.0;0.5153279900550842;-0.24399998784065247;1.2590399980545044;0.0;0.0;0.0
511;0.0;0.0;0.0;0.5348479747772217;-0.25571200251579285;1.2639199495315552;0.0;0.0;0.0
513;0.0;0.0;0.0;0.5465599894523621;-0.26742398738861084;1.2512320280075073;0.0;0.0;0.0
515;0.41626399755477905;-0.11687599867582321;1.132159948348999;0.562175989151001;-0.24399998784065247;1.2639199495315552;16.06937599182129;15.260000228881836;60.584999084472656
517;0.0;0.0;0.0;0.5660799741744995;-0.2479040026664734;1.2512320280075073;0.0;0.0;0.0
519;0.0;0.0;0.0;0.5777919888496399;-0.2635200023651123;1.2473279237747192;0.0;0.0;0.0
521;0.0;0.0;0.0;0.5895040035247803;-0.2752319872379303;1.2307360172271729;0.0;0.0;0.0
524;0.4753119945526123;-0.11760799586772919;1.1050759553909302;0.6324479579925537;-0.26742398738861084;1.2229279279708862;19.49937629699707;13.579999923706055;53.79500198364258
526;0.0;0.0;0.0;0.636352002620697;-0.23228800296783447;1.2229279279708862;0.0;0.0;0.0
528;0.0;0.0;0.0;0.6285439729690552;-0.24009600281715393;1.2024319171905518;0.0;0.0;0.0
530;0.0;0.0;0.0;0.6588000059127808;-0.2518079876899719;1.1819360256195068;0.0;0.0;0.0
532;0.5131319761276245;-0.10833600163459778;1.070915937423706;0.6470879912376404;-0.23228800296783447;1.1702239513397217;23.76937484741211;12.739999771118164;45.744998931884766
534;0.0;0.0;0.0;0.6480640172958374;-0.25571200251579285;1.1575360298156738;0.0;0.0;0.0
536;0.0;0.0;0.0;0.6246399879455566;-0.24009600281715393;1.1175199747085571;0.0;0.0;0.0
538;0.0;0.0;0.0;0.6207360029220581;-0.25571200251579285;1.0765279531478882;0.0;0.0;0.0
541;0.5148400068283081;-0.1088239997625351;1.006011962890625;0.636352002620697;-0.24399998784065247;1.0648159980773926;29.01937484741211;13.720000267028809;37.20500183105469
543;0.0;0.0;0.0;0.6129279732704163;-0.23228800296783447;1.0687199831008911;0.0;0.0;0.0
545;0.0;0.0;0.0;0.6012159585952759;-0.2479040026664734;1.0687199831008911;0.0;0.0;0.0
547;0.0;0.0;0.0;0.6051200032234192;-0.22448000311851501;1.0160160064697266;0.0;0.0;0.0
549;0.49410000443458557;-0.10662800073623657;0.9264679551124573;0.5895040035247803;-0.22448000311851501;0.9994239807128906;34.61937713623047;17.43000030517578;27.475000381469727
551;0.0;0.0;0.0;0.6012159585952759;-0.22838398814201355;0.9838079810142517;0.0;0.0;0.0
553;0.0;0.0;0.0;0.5934079885482788;-0.19324800372123718;0.9838079810142517;0.0;0.0;0.0
555;0.0;0.0;0.0;0.6168320178985596;-0.20495998859405518;0.9916160106658936;0.0;0.0;0.0
558;0.4828760027885437;-0.0680759996175766;0.8647359609603882;0.5856000185012817;-0.15030398964881897;0.9750239849090576;39.44937515258789;23.59000015258789;17.815000534057617
560;0.0;0.0;0.0;0.6012159585952759;-0.1698240041732788;0.9799039959907532;0.0;0.0;0.0
562;0.0;0.0;0.0;0.5856000185012817;-0.11126399785280228;0.9750239849090576;0.0;0.0;0.0
564;0.0;0.0;0.0;0.6129279732704163;-0.12297599762678146;0.9594079852104187;0.0;0.0;0.0
566;0.47555598616600037;0.0019519999623298645;0.8374080061912537;0.5856000185012817;-0.11907199770212173;0.9506239891052246;41.479373931884766;30.309999465942383;10.885000228881836
568;0.0;0.0;0.0;0.5660799741744995;-0.0878399983048439;0.9506239891052246;0.0;0.0;0.0
570;0.0;0.0;0.0;0.5777919888496399;-0.06831999868154526;0.9467200040817261;0.0;0.0;0.0
572;0.0;0.0;0.0;0.6051200032234192;-0.07612799853086472;0.9271999597549438;0.0;0.0;0.0
575;0.45993998646736145;0.05563199892640114;0.8222799897193909;0.5738880038261414;-0.05660799890756607;0.9555040001869202;41.05937576293945;35.209999084472656;7.735000133514404
577;0.0;0.0;0.0;0.5426560044288635;-0.07222399860620499;0.9389119744300842;0.0;0.0;0.0
579;0.0;0.0;0.0;0.5465599894523621;-0.02537599951028824;0.9311040043830872;0.0;0.0;0.0
581;0.0;0.0;0.0;0.5426560044288635;-0.05660799890756607;0.9145119786262512;0.0;0.0;0.0
583;0.43505197763442993;0.09052399545907974;0.8110559582710266;0.5192319750785828;-0.02147199958562851;0.8979200124740601;38.889373779296875;37.029998779296875;8.4350004196167
585;0.0;0.0;0.0;0.5387519598007202;-0.02537599951028824;0.9350079894065857;0.0;0.0;0.0
587;0.0;0.0;0.0;0.5153279900550842;-0.0331839993596077;0.9184159636497498;0.0;0.0;0.0
589;0.0;0.0;0.0;0.5192319750785828;-0.0331839993596077;0.9145119786262512;0.0;0.0;0.0
592;0.4021120071411133;0.11101999878883362;0.7861679792404175;0.4958080053329468;-0.01756799966096878;0.8940159678459167;35.80937576293945;35.70000076293945;11.235000610351562
594;0.0;0.0;0.0;0.48019200563430786;-0.01756799966096878;0.8823039531707764;0.0;0.0;0.0
596;0.0;0.0;0.0;0.4958080053329468;0.009759999811649323;0.8940159678459167;0.0;0.0;0.0
598;0.0;0.0;0.0;0.472383975982666;-0.0058559998869895935;0.8783999681472778;0.0;0.0;0.0
600;0.3606320023536682;0.12346399575471878;0.765671968460083;0.4567679762840271;0.009759999811649323;0.8783999681472778;32.37937545776367;31.780000686645508;14.875
602;0.0;0.0;0.0;0.460671991109848;-0.0019519999623298645;0.8823039531707764;0.0;0.0;0.0
604;0.0;0.0;0.0;0.44896000623703003;0.0019519999623298645;0.8940159678459167;0.0;0.0;0.0
606;0.0;0.0;0.0;0.4147999882698059;0.02537599951028824;0.8823039531707764;0.0;0.0;0.0
609;0.31915199756622314;0.14469200372695923;0.7544479966163635;0.4030880033969879;0.044895999133586884;0.8657119870185852;27.339374542236328;26.31999969482422;19.28499984741211
611;0.0;0.0;0.0;0.4294399917125702;0.0331839993596077;0.8657119870185852;0.0;0.0;0.0
613;0.0;0.0;0.0;0.4177280068397522;0.0605119988322258;0.8940159678459167;0.0;0.0;0.0
615;0.0;0.0;0.0;0.4147999882698059;0.05270399898290634;0.8862079977989197;0.0;0.0;0.0
617;0.3008520007133484;0.17372798919677734;0.7585960030555725;0.41870400309562683;0.02537599951028824;0.8735199570655823;19.149375915527344;19.809999465942383;23.975000381469727
619;0.0;0.0;0.0;0.399183988571167;0.07612799853086472;0.9184159636497498;0.0;0.0;0.0
621;0.0;0.0;0.0;0.4411519765853882;0.05660799890756607;0.8940159678459167;0.0;0.0;0.0
623;0.0;0.0;0.0;0.4684799909591675;0.06441599875688553;0.9106079936027527;0.0;0.0;0.0
626;0.3169559836387634;0.18958799540996552;0.7715280055999756;0.4567679762840271;0.037087999284267426;0.9184159636497498;8.089375495910645;12.460000038146973;28.875
628;0.0;0.0;0.0;0.48799997568130493;0.0605119988322258;0.9311040043830872;0.0;0.0;0.0
630;0.0;0.0;0.0;0.5075199604034424;0.0331839993596077;0.9184159636497498;0.0;0.0;0.0
632;0.0;0.0;0.0;0.5270400047302246;0.013663999736309052;0.9633119702339172;0.0;0.0;0.0
634;0.36917200684547424;0.17445999383926392;0.7966600060462952;0.5075199604034424;0.0019519999623298645;0.9184159636497498;-2.4806249141693115;5.25;34.125
636;0.0;0.0;0.0;0.5270400047302246;0.0058559998869895935;0.9506239891052246;0.0;0.0;0.0
638;0.0;0.0;0.0;0.5543680191040039;-0.0058559998869895935;0.9389119744300842;0.0;0.0;0.0
640;0.0;0.0;0.0;0.5309439897537231;-0.04879999905824661;0.9633119702339172;0.0;0.0;0.0
643;0.4147999882698059;0.1180959939956665;0.8181319832801819;0.5465599894523621;-0.0878399983048439;0.9594079852104187;-10.460624694824219;-2.450000047683716;39.935001373291016
645;0.0;0.0;0.0;0.5543680191040039;-0.09955199807882309;0.9389119744300842;0.0;0.0;0.0
647;0.0;0.0;0.0;0.562175989151001;-0.11126399785280228;0.9067040085792542;0.0;0.0;0.0
649;0.0;0.0;0.0;0.5270400047302246;-0.13468798995018005;0.9389119744300842;0.0;0.0;0.0
651;0.4257799983024597;0.02391199953854084;0.8110559582710266;0.5465599894523621;-0.1698240041732788;0.9223200082778931;-14.380624771118164;-8.75;43.64500045776367
653;0.0;0.0;0.0;0.5465599894523621;-0.19324800372123718;0.9515999555587769;0.0;0.0;0.0
655;0.0;0.0;0.0;0.5504639744758606;-0.18544000387191772;0.9311040043830872;0.0;0.0;0.0
657;0.0;0.0;0.0;0.5582720041275024;-0.21667200326919556;0.9145119786262512;0.0;0.0;0.0
660;0.43553999066352844;-0.060999996960163116;0.7956839799880981;0.569983959197998;-0.2088640034198761;0.9106079936027527;-15.500624656677246;-13.09000015258789;44.064998626708984
662;0.0;0.0;0.0;0.5856000185012817;-0.22838398814201355;0.8901119828224182;0.0;0.0;0.0
664;0.0;0.0;0.0;0.6012159585952759;-0.26742398738861084;0.9067040085792542;0.0;0.0;0.0
666;0.0;0.0;0.0;0.6012159585952759;-0.24009600281715393;0.8940159678459167;0.0;0.0;0.0
668;0.4782399833202362;-0.12151199579238892;0.7681120038032532;0.6129279732704163;-0.3142719864845276;0.8823039531707764;-16.410625457763672;-12.319999694824219;41.26499938964844
670;0.0;0.0;0.0;0.6207360029220581;-0.29865598678588867;0.8208159804344177;0.0;0.0;0.0
672;0.0;0.0;0.0;0.6402559876441956;-0.33769598603248596;0.8012959957122803;0.0;0.0;0.0
674;0.0;0.0;0.0;0.6509919762611389;-0.3572160005569458;0.7681120038032532;0.0;0.0;0.0
677;0.5097159743309021;-0.19349199533462524;0.6785640120506287;0.659775972366333;-0.3533119857311249;0.7524960041046143;-15.360624313354492;-5.670000076293945;37.275001525878906
679;0.0;0.0;0.0;0.6822239756584167;-0.3572160005569458;0.7524960041046143;0.0;0.0;0.0
681;0.0;0.0;0.0;0.6978399753570557;-0.3806400001049042;0.7446879744529724;0.0;0.0;0.0
683;0.0;0.0;0.0;0.6978399753570557;-0.3533119857311249;0.7925119996070862;0.0;0.0;0.0
685;0.5680319666862488;-0.2327760010957718;0.6383039951324463;0.6978399753570557;-0.39235198497772217;0.7437120079994202;-12.630624771118164;8.399999618530273;31.114999771118164
687;0.0;0.0;0.0;0.6900320053100586;-0.39235198497772217;0.7729920148849487;0.0;0.0;0.0
689;0.0;0.0;0.0;0.636352002620697;-0.39235198497772217;0.7729920148849487;0.0;0.0;0.0
691;0.0;0.0;0.0;0.659775972366333;-0.3962559998035431;0.7681120038032532;0.0;0.0;0.0
694;0.5365560054779053;-0.2525399923324585;0.6480640172958374;0.6246399879455566;-0.3728320002555847;0.7973920106887817;-11.160624504089355;27.3700008392334;23.975000381469727
696;0.0;0.0;0.0;0.5856000185012817;-0.3337920010089874;0.8208159804344177;0.0;0.0;0.0
698;0.0;0.0;0.0;0.6246399879455566;-0.4001599848270416;0.8130080103874207;0.0;0.0;0.0
700;0.0;0.0;0.0;0.5856000185012817;-0.3728320002555847;0.8901119828224182;0.0;0.0;0.0
702;0.47213998436927795;-0.2176479995250702;0.7212640047073364;0.5543680191040039;-0.3025600016117096;0.9223200082778931;-8.15062427520752;37.869998931884766;18.30500030517578
704;0.0;0.0;0.0;0.562175989151001;-0.33769598603248596;0.9506239891052246;0.0;0.0;0.0
706;0.0;0.0;0.0;0.5192319750785828;-0.3416000008583069;0.9711199998855591;0.0;0.0;0.0
709;0.0;0.0;0.0;0.5348479747772217;-0.3689279854297638;0.9750239849090576;0.0;0.0;0.0
711;0.4230960011482239;-0.20032399892807007;0.8344799876213074;0.5192319750785828;-0.3416000008583069;0.9994239807128906;-7.380625247955322;40.599998474121094;16.975000381469727
713;0.0;0.0;0.0;0.4840959906578064;-0.3337920010089874;1.0521279573440552;0.0;0.0;0.0
715;0.0;0.0;0.0;0.5153279900550842;-0.34940800070762634;1.0570080280303955;0.0;0.0;0.0
717;0.0;0.0;0.0;0.5075199604034424;-0.36111998558044434;1.0687199831008911;0.0;0.0;0.0
719;0.37380799651145935;-0.2176479995250702;0.9218319654464722;0.460671991109848;-0.36502400040626526;1.0765279531478882;-9.410624504089355;37.59000015258789;20.755001068115234
721;0.0;0.0;0.0;0.4030880033969879;-0.3962559998035431;1.0814080238342285;0.0;0.0;0.0
723;0.0;0.0;0.0;0.35624000430107117;-0.43139198422431946;1.0804319381713867;0.0;0.0;0.0
726;0.0;0.0;0.0;0.35233598947525024;-0.43139198422431946;1.0687199831008911;0.0;0.0;0.0
728;0.2601040005683899;-0.2913359999656677;0.9423279762268066;0.3211039900779724;-0.47043198347091675;1.0687199831008911;-13.960624694824219;30.8700008392334;25.934999465942383
730;0.0;0.0;0.0;0.3328160047531128;-0.4938559830188751;1.0814080238342285;0.0;0.0;0.0
732;0.0;0.0;0.0;0.3211039900779724;-0.5055679678916931;1.0970239639282227;0.0;0.0;0.0
734;0.0;0.0;0.0;0.32891198992729187;-0.521183967590332;1.1175199747085571;0.0;0.0;0.0
736;0.20032399892807007;-0.38478800654411316;0.9686799645423889;0.2664479911327362;-0.5602239966392517;1.1253279447555542;-16.410625457763672;20.020000457763672;29.505001068115234
738;0.0;0.0;0.0;0.25863999128341675;-0.5680319666862488;1.1458239555358887;0.0;0.0;0.0
740;0.0;0.0;0.0;0.2508319914340973;-0.5641279816627502;1.1497279405593872;0.0;0.0;0.0
743;0.0;0.0;0.0;0.24692799150943756;-0.6148799657821655;1.1292319297790527;0.0;0.0;0.0
745;0.14640000462532043;-0.44529998302459717;1.0113799571990967;0.2508319914340973;-0.5992639660835266;1.1419199705123901;-17.110624313354492;10.359999656677246;31.114999771118164
747;0.0;0.0;0.0;0.2547360062599182;-0.6344000101089478;1.1575360298156738;0.0;0.0;0.0
749;0.0;0.0;0.0;0.2235039919614792;-0.6187840104103088;1.1624159812927246;0.0;0.0;0.0
751;0.0;0.0;0.0;0.2508319914340973;-0.6265919804573059;1.1380159854888916;0.0;0.0;0.0
753;0.12346399575471878;-0.4926359951496124;1.0216280221939087;0.24692799150943756;-0.6383039951324463;1.1458239555358887;-15.710624694824219;0.07000000029802322;30.69499969482422
755;0.0;0.0;0.0;0.26254400610923767;-0.6461119651794434;1.1380159854888916;0.0;0.0;0.0
757;0.0;0.0;0.0;0.27425599098205566;-0.6500160098075867;1.1458239555358887;0.0;0.0;0.0
760;0.0;0.0;0.0;0.27035200595855713;-0.6539199948310852;1.1253279447555542;0.0;0.0;0.0
762;0.1495719999074936;-0.5297240018844604;1.0160160064697266;0.3054879903793335;-0.6734399795532227;1.134112000465393;-13.190625190734863;-7.559999942779541;28.524999618530273
764;0.0;0.0;0.0;0.3054879903793335;-0.6617279648780823;1.1048319339752197;0.0;0.0;0.0
766;0.0;0.0;0.0;0.3093920052051544;-0.708575963973999;1.1009279489517212;0.0;0.0;0.0
768;0.0;0.0;0.0;0.3054879903793335;-0.7163839936256409;1.0765279531478882;0.0;0.0;0.0
770;0.18958799540996552;-0.5809639692306519;0.9689239859580994;0.33671998977661133;-0.7359039783477783;1.060912013053894;-10.74062442779541;-10.430000305175781;25.094999313354492
772;0.0;0.0;0.0;0.3172000050544739;-0.7476159930229187;1.0648159980773926;0.0;0.0;0.0
774;0.0;0.0;0.0;0.31329599022865295;-0.7710399627685547;1.0570080280303955;0.0;0.0;0.0
777;0.0;0.0;0.0;0.3328160047531128;-0.7788479924201965;1.0521279573440552;0.0;0.0;0.0
779;0.20617999136447906;-0.6336680054664612;0.933788001537323;0.3445279896259308;-0.7827519774436951;1.0648159980773926;-6.6806254386901855;-10.850000381469727;19.565000534057617
781;0.0;0.0;0.0;0.3484320044517517;-0.798367977142334;1.0648159980773926;0.0;0.0;0.0
783;0.0;0.0;0.0;0.3211039900779724;-0.7944639921188354;1.0804319381713867;0.0;0.0;0.0
785;0.0;0.0;0.0;0.31329599022865295;-0.8256959915161133;1.0726239681243896;0.0;0.0;0.0
787;0.2176479995250702;-0.6678279638290405;0.9408639669418335;0.3445279896259308;-0.8295999765396118;1.060912013053894;-3.7406249046325684;-9.029999732971191;11.654999732971191
790;0.0;0.0;0.0;0.35233598947525024;-0.8413119912147522;1.0326080322265625;0.0;0.0;0.0
791;0.0;0.0;0.0;0.32500800490379333;-0.8139839768409729;1.0726239681243896;0.0;0.0;0.0
794;0.0;0.0;0.0;0.2820639908313751;-0.8374080061912537;1.0648159980773926;0.0;0.0;0.0
796;0.18861199915409088;-0.7041839957237244;0.9298839569091797;0.2781600058078766;-0.8569279909133911;1.0482239723205566;-2.4106249809265137;-3.1500000953674316;0.3850000202655792
798;0.0;0.0;0.0;0.30158400535583496;-0.8842560052871704;1.0570080280303955;0.0;0.0;0.0
800;0.0;0.0;0.0;0.2664479911327362;-0.8686400055885315;1.085312008857727;0.0;0.0;0.0
802;0.0;0.0;0.0;0.21569599211215973;-0.87254399061203;1.0931199789047241;0.0;0.0;0.0
804;0.1227319985628128;-0.7307800054550171;0.9396439790725708;0.2117919921875;-0.8920639753341675;1.0804319381713867;-0.940625011920929;3.569999933242798;-14.3149995803833
806;0.0;0.0;0.0;0.2000799924135208;-0.8491199612617493;1.0931199789047241;0.0;0.0;0.0
808;0.0;0.0;0.0;0.19227199256420135;-0.8569279909133911;1.1331360340118408;0.0;0.0;0.0
811;0.0;0.0;0.0;0.1844639927148819;-0.8256959915161133;1.1458239555358887;0.0;0.0;0.0
813;0.06929600238800049;-0.7212640047073364;0.9982039928436279;0.17665599286556244;-0.8374080061912537;1.1624159812927246;0.8793750405311584;6.019999980926514;-29.575000762939453
815;0.0;0.0;0.0;0.14151999354362488;-0.8100799918174744;1.1741279363632202;0.0;0.0;0.0
817;0.0;0.0;0.0;0.14932799339294434;-0.7944639921188354;1.2063360214233398;0.0;0.0;0.0
819;0.0;0.0;0.0;0.12199999392032623;-0.8295999765396118;1.1907199621200562;0.0;0.0;0.0
821;0.027327999472618103;-0.6895439624786377;1.0533479452133179;0.1180959939956665;-0.8139839768409729;1.2190239429473877;1.7893749475479126;3.640000104904175;-41.19499969482422
823;0.0;0.0;0.0;0.09564799815416336;-0.8178879618644714;1.2190239429473877;0.0;0.0;0.0
825;0.0;0.0;0.0;0.0878399983048439;-0.8061760067939758;1.2190239429473877;0.0;0.0;0.0
828;0.0;0.0;0.0;0.09467199444770813;-0.8061760067939758;1.2268320322036743;0.0;0.0;0.0
830;-0.02659599855542183;-0.6756359934806824;1.0794559717178345;0.06831999868154526;-0.8178879618644714;1.2063360214233398;1.9293749332427979;-2.0299999713897705;-50.224998474121094
832;0.0;0.0;0.0;0.07222399860620499;-0.8217920064926147;1.2024319171905518;0.0;0.0;0.0
834;0.0;0.0;0.0;0.0605119988322258;-0.7827519774436951;1.2268320322036743;0.0;0.0;0.0
836;0.0;0.0;0.0;0.040991999208927155;-0.7944639921188354;1.2102400064468384;0.0;0.0;0.0
838;-0.06783200055360794;-0.6673399806022644;1.0748199224472046;0.0605119988322258;-0.7788479924201965;1.1907199621200562;2.41937518119812;-8.260000228881836;-57.435001373291016
840;0.0;0.0;0.0;0.009759999811649323;-0.7671359777450562;1.1702239513397217;0.0;0.0;0.0
842;0.0;0.0;0.0;0.037087999284267426;-0.7827519774436951;1.1663199663162231;0.0;0.0;0.0
845;0.0;0.0;0.0;0.02147199958562851;-0.7593280076980591;1.1497279405593872;0.0;0.0;0.0
847;-0.10272400081157684;-0.6451359987258911;1.0404160022735596;0.013663999736309052;-0.774944007396698;1.1575360298156738;3.189375162124634;-12.8100004196167;-63.875
849;0.0;0.0;0.0;0.01756799966096878;-0.7671359777450562;1.1536319255828857;0.0;0.0;0.0
851;0.0;0.0;0.0;0.0019519999623298645;-0.7632319927215576;1.1419199705123901;0.0;0.0;0.0
853;0.0;0.0;0.0;-0.01756799966096878;-0.7554239630699158;1.1702239513397217;0.0;0.0;0.0
855;-0.12663599848747253;-0.6185399889945984;1.0189440250396729;-0.02147199958562851;-0.7241919636726379;1.1175199747085571;3.3293750286102295;-15.260000228881836;-68.91500091552734
857;0.0;0.0;0.0;-0.044895999133586884;-0.7280960083007812;1.1536319255828857;0.0;0.0;0.0
859;0.0;0.0;0.0;-0.0331839993596077;-0.7319999933242798;1.1536319255828857;0.0;0.0;0.0
862;0.0;0.0;0.0;-0.037087999284267426;-0.700767993927002;1.1458239555358887;0.0;0.0;0.0
864;-0.16713999211788177;-0.5799880027770996;1.0157719850540161;-0.0605119988322258;-0.7046719789505005;1.1419199705123901;3.3293750286102295;-16.309999465942383;-71.43500518798828
866;0.0;0.0;0.0;-0.115167997777462;-0.6656320095062256;1.158511996269226;0.0;0.0;0.0
868;0.0;0.0;0.0;-0.08003199845552444;-0.6734399795532227;1.1624159812927246;0.0;0.0;0.0
870;0.0;0.0;0.0;-0.10345599800348282;-0.6539199948310852;1.1663199663162231;0.0;0.0;0.0
872;-0.21423199772834778;-0.533627986907959;1.0208959579467773;-0.10735999792814255;-0.6539199948310852;1.1497279405593872;2.559375047683716;-17.989999771118164;-73.18500518798828
874;0.0;0.0;0.0;-0.13468798995018005;-0.6422079801559448;1.1497279405593872;0.0;0.0;0.0
876;0.0;0.0;0.0;-0.13078400492668152;-0.6226879954338074;1.1253279447555542;0.0;0.0;0.0
879;0.0;0.0;0.0;-0.15030398964881897;-0.6265919804573059;1.1497279405593872;0.0;0.0;0.0
881;-0.2508319914340973;-0.4967840015888214;1.0057679414749146;-0.14640000462532043;-0.6070719957351685;1.1214239597320557;0.6693750023841858;-21.0;-75.14500427246094
883;0.0;0.0;0.0;-0.1424959897994995;-0.6070719957351685;1.1214239597320557;0.0;0.0;0.0
885;0.0;0.0;0.0;-0.18055999279022217;-0.587552011013031;1.134112000465393;0.0;0.0;0.0
887;0.0;0.0;0.0;-0.17665599286556244;-0.5719360113143921;1.1214239597320557;0.0;0.0;0.0
889;-0.27840399742126465;-0.45530399680137634;0.9979599714279175;-0.18836799263954163;-0.5758399963378906;1.1253279447555542;-3.1806249618530273;-24.219999313354492;-76.68500518798828
892;0.0;0.0;0.0;-0.1727519929409027;-0.5563200116157532;1.1419199705123901;0.0;0.0;0.0
894;0.0;0.0;0.0;-0.19227199256420135;-0.536799967288971;1.1380159854888916;0.0;0.0;0.0
896;0.0;0.0;0.0;-0.19617599248886108;-0.5602239966392517;1.1419199705123901;0.0;0.0;0.0
898;-0.3037799894809723;-0.42138800024986267;1.0113799571990967;-0.18836799263954163;-0.5641279816627502;1.1380159854888916;-8.850625038146973;-27.649999618530273;-77.03500366210938
900;0.0;0.0;0.0;-0.21569599211215973;-0.5328959822654724;1.1458239555358887;0.0;0.0;0.0
902;0.0;0.0;0.0;-0.2235039919614792;-0.5524159669876099;1.1214239597320557;0.0;0.0;0.0
904;0.0;0.0;0.0;-0.2117919921875;-0.536799967288971;1.10971200466156;0.0;0.0;0.0
906;-0.3201279938220978;-0.4079679846763611;0.9955199956893921;-0.19617599248886108;-0.5641279816627502;1.0892159938812256;-13.05062484741211;-31.56999969482422;-76.68500518798828
909;0.0;0.0;0.0;-0.21569599211215973;-0.5407040119171143;1.0931199789047241;0.0;0.0;0.0
910;0.0;0.0;0.0;-0.19617599248886108;-0.5407040119171143;1.1048319339752197;0.0;0.0;0.0
913;0.0;0.0;0.0;-0.18836799263954163;-0.5758399963378906;1.0804319381713867;0.0;0.0;0.0
915;-0.32378798723220825;-0.40748000144958496;0.9620919823646545;-0.2000799924135208;-0.536799967288971;1.1009279489517212;-14.310625076293945;-33.599998474121094;-77.94500732421875
917;0.0;0.0;0.0;-0.1844639927148819;-0.5328959822654724;1.0892159938812256;0.0;0.0;0.0
919;0.0;0.0;0.0;-0.19617599248886108;-0.521183967590332;1.085312008857727;0.0;0.0;0.0
921;0.0;0.0;0.0;-0.21569599211215973;-0.5016639828681946;1.0970239639282227;0.0;0.0;0.0
923;-0.31451600790023804;-0.38942399621009827;0.9586759805679321;-0.1727519929409027;-0.513375997543335;1.0687199831008911;-13.470624923706055;-33.31999969482422;-80.39500427246094
926;0.0;0.0;0.0;-0.16884799301624298;-0.4938559830188751;1.0726239681243896;0.0;0.0;0.0
928;0.0;0.0;0.0;-0.21569599211215973;-0.4782399833202362;1.1136159896850586;0.0;0.0;0.0
930;0.0;0.0;0.0;-0.2235039919614792;-0.4899519979953766;1.1136159896850586;0.0;0.0;0.0
932;-0.32378798723220825;-0.34574800729751587;0.9794159531593323;-0.2117919921875;-0.4665279984474182;1.1331360340118408;-11.65062427520752;-31.780000686645508;-81.72500610351562
934;0.0;0.0;0.0;-0.2117919921875;-0.4274879992008209;1.1575360298156738;0.0;0.0;0.0
936;0.0;0.0;0.0;-0.22740799188613892;-0.41967999935150146;1.1536319255828857;0.0;0.0;0.0
938;0.0;0.0;0.0;-0.2235039919614792;-0.39235198497772217;1.1458239555358887;0.0;0.0;0.0
940;-0.3484320044517517;-0.29011598229408264;1.0330959558486938;-0.24692799150943756;-0.3806400001049042;1.1985279321670532;-10.600625038146973;-31.71000099182129;-81.16500091552734
942;0.0;0.0;0.0;-0.23521599173545837;-0.3728320002555847;1.2190239429473877;0.0;0.0;0.0
945;0.0;0.0;0.0;-0.2820639908313751;-0.37673598527908325;1.1907199621200562;0.0;0.0;0.0
947;0.0;0.0;0.0;-0.2547360062599182;-0.3845439851284027;1.2151199579238892;0.0;0.0;0.0
949;-0.38381198048591614;-0.2547360062599182;1.0660359859466553;-0.2820639908313751;-0.3845439851284027;1.2063360214233398;-9.690625190734863;-33.67000198364258;-79.20500183105469
951;0.0;0.0;0.0;-0.30158400535583496;-0.34940800070762634;1.1946239471435547;0.0;0.0;0.0
953;0.0;0.0;0.0;-0.2937760055065155;-0.3728320002555847;1.2346400022506714;0.0;0.0;0.0
955;0.0;0.0;0.0;-0.2820639908313751;-0.36502400040626526;1.2229279279708862;0.0;0.0;0.0
957;-0.4172399938106537;-0.2286279946565628;1.085312008857727;-0.2937760055065155;-0.34940800070762634;1.2024319171905518;-7.590625286102295;-37.45000076293945;-76.61500549316406
960;0.0;0.0;0.0;-0.30158400535583496;-0.3455039858818054;1.2102400064468384;0.0;0.0;0.0
962;0.0;0.0;0.0;-0.30158400535583496;-0.32207998633384705;1.2024319171905518;0.0;0.0;0.0
964;0.0;0.0;0.0;-0.30158400535583496;-0.3298879861831665;1.1985279321670532;0.0;0.0;0.0
966;-0.4172399938106537;-0.2076440006494522;1.0731120109558105;-0.2898719906806946;-0.3416000008583069;1.1819360256195068;-5.350625038146973;-41.09000015258789;-73.2550048828125
968;0.0;0.0;0.0;-0.30158400535583496;-0.3142719864845276;1.1907199621200562;0.0;0.0;0.0
970;0.0;0.0;0.0;-0.2937760055065155;-0.3181760013103485;1.1741279363632202;0.0;0.0;0.0
972;0.0;0.0;0.0;-0.23521599173545837;-0.33769598603248596;1.1624159812927246;0.0;0.0;0.0
974;-0.3925960063934326;-0.1937360018491745;1.042855978012085;-0.25863999128341675;-0.32207998633384705;1.1575360298156738;-2.900624990463257;-43.400001525878906;-68.0050048828125
977;0.0;0.0;0.0;-0.23131199181079865;-0.29475200176239014;1.1741279363632202;0.0;0.0;0.0
979;0.0;0.0;0.0;-0.2391199916601181;-0.31036800146102905;1.1292319297790527;0.0;0.0;0.0
981;0.0;0.0;0.0;-0.19227199256420135;-0.31036800146102905;1.1575360298156738;0.0;0.0;0.0
983;-0.3411119878292084;-0.17470400035381317;1.0133320093154907;-0.21569599211215973;-0.32207998633384705;1.10971200466156;-1.7806251049041748;-43.400001525878906;-60.584999084472656
985;0.0;0.0;0.0;-0.1571359932422638;-0.3025600016117096;1.1292319297790527;0.0;0.0;0.0
987;0.0;0.0;0.0;-0.15323199331760406;-0.3142719864845276;1.0814080238342285;0.0;0.0;0.0
989;0.0;0.0;0.0;-0.14640000462532043;-0.31036800146102905;1.0726239681243896;0.0;0.0;0.0
991;-0.280599981546402;-0.16835999488830566;0.9659959673881531;-0.13859200477600098;-0.3025600016117096;1.0804319381713867;-1.2906250953674316;-39.970001220703125;-52.8849983215332
994;0.0;0.0;0.0;-0.1268799901008606;-0.32598400115966797;1.0648159980773926;0.0;0.0;0.0
996;0.0;0.0;0.0;-0.13761599361896515;-0.31036800146102905;1.060912013053894;0.0;0.0;0.0
998;0.0;0.0;0.0;-0.11907199770212173;-0.31036800146102905;1.0277279615402222;0.0;0.0;0.0
1000;-0.2496119886636734;-0.17323999106884003;0.921343982219696;-0.09955199807882309;-0.29865598678588867;1.0238239765167236;-0.030625000596046448;-33.95000076293945;-47.494998931884766
1002;0.0;0.0;0.0;-0.13859200477600098;-0.2869440019130707;1.036512017250061;0.0;0.0;0.0
1004;0.0;0.0;0.0;-0.10345599800348282;-0.32598400115966797;1.0238239765167236;0.0;0.0;0.0
1006;0.0;0.0;0.0;-0.10735999792814255;-0.32207998633384705;1.0648159980773926;0.0;0.0;0.0
1008;-0.23179998993873596;-0.17445999383926392;0.9064599871635437;-0.09564799815416336;-0.3181760013103485;1.0482239723205566;2.0693750381469727;-27.15999984741211;-43.71500015258789
1011;0.0;0.0;0.0;-0.08393599838018417;-0.3142719864845276;1.0287039279937744;0.0;0.0;0.0
1013;0.0;0.0;0.0;-0.09174399822950363;-0.3337920010089874;1.0160160064697266;0.0;0.0;0.0
1015;0.0;0.0;0.0;-0.08003199845552444;-0.3025600016117096;1.0521279573440552;0.0;0.0;0.0
1017;-0.21374399960041046;-0.17250800132751465;0.9147560000419617;-0.09564799815416336;-0.29865598678588867;1.0482239723205566;3.8893749713897705;-20.93000030517578;-39.724998474121094
1019;0.0;0.0;0.0;-0.06831999868154526;-0.3025600016117096;1.0648159980773926;0.0;0.0;0.0
1021;0.0;0.0;0.0;-0.07612799853086472;-0.29475200176239014;1.0482239723205566;0.0;0.0;0.0
1023;0.0;0.0;0.0;-0.08393599838018417;-0.2635200023651123;1.0765279531478882;0.0;0.0;0.0
1025;-0.19934800267219543;-0.1424959897994995;0.941107988357544;-0.07222399860620499;-0.27132800221443176;1.0931199789047241;4.029375076293945;-15.609999656677246;-36.01499938964844
1027;0.0;0.0;0.0;-0.07222399860620499;-0.23228800296783447;1.1253279447555542;0.0;0.0;0.0
1030;0.0;0.0;0.0;-0.06831999868154526;-0.2635200023651123;1.1009279489517212;0.0;0.0;0.0
1032;0.0;0.0;0.0;-0.08393599838018417;-0.2518079876899719;1.1136159896850586;0.0;0.0;0.0
1034;-0.1978839933872223;-0.12029200047254562;0.9877119660377502;-0.0878399983048439;-0.24399998784065247;1.1292319297790527;1.7893749475479126;-12.880000114440918;-33.775001525878906
1036;0.0;0.0;0.0;-0.08393599838018417;-0.26742398738861084;1.1575360298156738;0.0;0.0;0.0
1038;0.0;0.0;0.0;-0.09955199807882309;-0.27132800221443176;1.1624159812927246;0.0;0.0;0.0
1040;0.0;0.0;0.0;-0.09955199807882309;-0.27132800221443176;1.1985279321670532;0.0;0.0;0.0
1042;-0.21106000244617462;-0.13712799549102783;1.0362679958343506;-0.10735999792814255;-0.2791360020637512;1.1985279321670532;-1.2206250429153442;-13.720000267028809;-32.30500030517578
1045;0.0;0.0;0.0;-0.10345599800348282;-0.2596159875392914;1.1985279321670532;0.0;0.0;0.0
1047;0.0;0.0;0.0;-0.10735999792814255;-0.2908479869365692;1.2024319171905518;0.0;0.0;0.0
1049;0.0;0.0;0.0;-0.13078400492668152;-0.27132800221443176;1.2229279279708862;0.0;0.0;0.0
1051;-0.23204399645328522;-0.1512800008058548;1.0740879774093628;-0.115167997777462;-0.2791360020637512;1.2190239429473877;-3.6006250381469727;-18.200000762939453;-30.905000686645508
1053;0.0;0.0;0.0;-0.10735999792814255;-0.2869440019130707;1.1858400106430054;0.0;0.0;0.0
1055;0.0;0.0;0.0;-0.10345599800348282;-0.2869440019130707;1.1946239471435547;0.0;0.0;0.0
1057;0.0;0.0;0.0;-0.09955199807882309;-0.27132800221443176;1.1819360256195068;0.0;0.0;0.0
1059;-0.22935999929904938;-0.14737600088119507;1.0587159395217896;-0.08393599838018417;-0.27132800221443176;1.1780319213867188;-5.280625343322754;-24.989999771118164;-31.815000534057617
1062;0.0;0.0;0.0;-0.07612799853086472;-0.25571200251579285;1.1819360256195068;0.0;0.0;0.0
1064;0.0;0.0;0.0;-0.06441599875688553;-0.27132800221443176;1.1380159854888916;0.0;0.0;0.0
1066;0.0;0.0;0.0;-0.05660799890756607;-0.20495998859405518;1.1702239513397217;0.0;0.0;0.0
1068;-0.18983200192451477;-0.11272799968719482;1.0335839986801147;-0.05660799890756607;-0.22448000311851501;1.1497279405593872;-6.470625400543213;-29.81999969482422;-33.845001220703125
1070;0.0;0.0;0.0;-0.0878399983048439;-0.20495998859405518;1.1702239513397217;0.0;0.0;0.0
1072;0.0;0.0;0.0;-0.044895999133586884;-0.22448000311851501;1.1536319255828857;0.0;0.0;0.0
1074;0.0;0.0;0.0;-0.01756799966096878;-0.1815359890460968;1.1663199663162231;0.0;0.0;0.0
1076;-0.1617719978094101;-0.06831999868154526;1.0255320072174072;-0.02147199958562851;-0.17763200402259827;1.1214239597320557;-8.780624389648438;-30.940000534057617;-33.70500183105469
1079;0.0;0.0;0.0;-0.029279999434947968;-0.16201600432395935;1.1575360298156738;0.0;0.0;0.0
1081;0.0;0.0;0.0;-0.0019519999623298645;-0.13468798995018005;1.1214239597320557;0.0;0.0;0.0
1083;0.0;0.0;0.0;0.02537599951028824;-0.15811198949813843;1.0970239639282227;0.0;0.0;0.0
1085;-0.12248799949884415;-0.02903600037097931;0.9989359974861145;0.0331839993596077;-0.16201600432395935;1.1214239597320557;-10.670624732971191;-29.75;-30.975000381469727
1087;0.0;0.0;0.0;-0.0058559998869895935;-0.11907199770212173;1.1253279447555542;0.0;0.0;0.0
1089;0.0;0.0;0.0;0.0331839993596077;-0.13468798995018005;1.0931199789047241;0.0;0.0;0.0
1091;0.0;0.0;0.0;0.05660799890756607;-0.13859200477600098;1.1087360382080078;0.0;0.0;0.0
1093;-0.09125600010156631;-0.006587999872863293;0.97843998670578;0.044895999133586884;-0.1542080044746399;1.1214239597320557;-11.720624923706055;-25.969999313354492;-26.4950008392334
1096;0.0;0.0;0.0;0.029279999434947968;-0.1542080044746399;1.0970239639282227;0.0;0.0;0.0
1098;0.0;0.0;0.0;0.05270399898290634;-0.115167997777462;1.1009279489517212;0.0;0.0;0.0
1100;0.0;0.0;0.0;0.044895999133586884;-0.13468798995018005;1.1048319339752197;0.0;0.0;0.0
1102;-0.07441999763250351;-0.003903999924659729;0.9842959642410278;0.05270399898290634;-0.1268799901008606;1.1214239597320557;-11.790624618530273;-19.8799991607666;-21.94499969482422
1104;0.0;0.0;0.0;0.07222399860620499;-0.13859200477600098;1.1292319297790527;0.0;0.0;0.0
1106;0.0;0.0;0.0;0.0605119988322258;-0.13859200477600098;1.1458239555358887;0.0;0.0;0.0
1108;0.0;0.0;0.0;0.08003199845552444;-0.13078400492668152;1.1458239555358887;0.0;0.0;0.0
1110;-0.06709999591112137;0.007807999849319458;1.00381600856781;0.037087999284267426;-0.13468798995018005;1.1253279447555542;-11.020625114440918;-13.020000457763672;-18.514999389648438
1113;0.0;0.0;0.0;0.0019519999623298645;-0.11907199770212173;1.1575360298156738;0.0;0.0;0.0
1115;0.0;0.0;0.0;0.02147199958562851;-0.13859200477600098;1.1624159812927246;0.0;0.0;0.0
1117;0.0;0.0;0.0;-0.009759999811649323;-0.13078400492668152;1.1868159770965576;0.0;0.0;0.0
1119;-0.11004399508237839;0.00634399987757206;1.0452959537506104;-0.009759999811649323;-0.1424959897994995;1.1624159812927246;-9.48062515258789;-9.029999732971191;-16.135000228881836
1121;0.0;0.0;0.0;0.0019519999623298645;-0.11126399785280228;1.1907199621200562;0.0;0.0;0.0
1123;0.0;0.0;0.0;-0.02537599951028824;-0.09564799815416336;1.2229279279708862;0.0;0.0;0.0
1125;0.0;0.0;0.0;-0.0019519999623298645;-0.07612799853086472;1.2434239387512207;0.0;0.0;0.0
1127;-0.130295991897583;0.028060000389814377;1.079211950302124;-0.0019519999623298645;-0.09174399822950363;1.2190239429473877;-6.470625400543213;-9.869999885559082;-14.175000190734863
1130;0.0;0.0;0.0;-0.009759999811649323;-0.09564799815416336;1.2229279279708862;0.0;0.0;0.0
1132;0.0;0.0;0.0;-0.06441599875688553;-0.05660799890756607;1.2190239429473877;0.0;0.0;0.0
1134;0.0;0.0;0.0;-0.0058559998869895935;-0.040991999208927155;1.2024319171905518;0.0;0.0;0.0
1136;-0.13590799272060394;0.06954000145196915;1.0901919603347778;-0.02537599951028824;-0.0605119988322258;1.2151199579238892;-5.000625133514404;-12.390000343322754;-11.515000343322754
1138;0.0;0.0;0.0;-0.0058559998869895935;-0.04879999905824661;1.2063360214233398;0.0;0.0;0.0
1140;0.0;0.0;0.0;-0.01756799966096878;-0.037087999284267426;1.2190239429473877;0.0;0.0;0.0
1142;0.0;0.0;0.0;-0.0019519999623298645;-0.029279999434947968;1.2268320322036743;0.0;0.0;0.0
1144;-0.1239520013332367;0.09272000193595886;1.0884839296340942;-0.0019519999623298645;-0.0058559998869895935;1.2268320322036743;-5.840625286102295;-15.190000534057617;-9.904999732971191
1147;0.0;0.0;0.0;-0.009759999811649323;-0.02537599951028824;1.2229279279708862;0.0;0.0;0.0
1149;0.0;0.0;0.0;-0.01756799966096878;-0.009759999811649323;1.2356159687042236;0.0;0.0;0.0
1151;0.0;0.0;0.0;-0.0019519999623298645;-0.0019519999623298645;1.2346400022506714;0.0;0.0;0.0
1153;-0.11565599590539932;0.11711999773979187;1.1016600131988525;-0.009759999811649323;-0.01756799966096878;1.2395199537277222;-7.660624980926514;-17.219999313354492;-6.894999980926514
1155;0.0;0.0;0.0;0.0058559998869895935;0.009759999811649323;1.2551360130310059;0.0;0.0;0.0
1157;0.0;0.0;0.0;0.029279999434947968;-0.0019519999623298645;1.262943983078003;0.0;0.0;0.0
1159;0.0;0.0;0.0;0.02537599951028824;-0.009759999811649323;1.2512320280075073;0.0;0.0;0.0
1161;-0.11028799414634705;0.12931999564170837;1.107759952545166;-0.009759999811649323;-0.0019519999623298645;1.2346400022506714;-9.48062515258789;-19.46000099182129;-2.555000066757202
1164;0.0;0.0;0.0;0.02147199958562851;0.0058559998869895935;1.2229279279708862;0.0;0.0;0.0
1166;0.0;0.0;0.0;0.02147199958562851;-0.0019519999623298645;1.2268320322036743;0.0;0.0;0.0
1168;0.0;0.0;0.0;0.044895999133586884;-0.013663999736309052;1.2307360172271729;0.0;0.0;0.0
1170;-0.08661999553442001;0.12590399384498596;1.0877519845962524;0.05270399898290634;0.0058559998869895935;1.2024319171905518;-8.850625038146973;-21.21000099182129;2.3450000286102295
1172;0.0;0.0;0.0;0.07612799853086472;-0.037087999284267426;1.1780319213867188;0.0;0.0;0.0
1174;0.0;0.0;0.0;0.06441599875688553;-0.0019519999623298645;1.2112159729003906;0.0;0.0;0.0
1176;0.0;0.0;0.0;0.09467199444770813;0.013663999736309052;1.1663199663162231;0.0;0.0;0.0
1179;-0.04782399907708168;0.1210239976644516;1.0477359294891357;0.09564799815416336;-0.029279999434947968;1.1780319213867188;-5.630625247955322;-20.3700008392334;6.615000247955322
1181;0.0;0.0;0.0;0.09857599437236786;0.009759999811649323;1.1702239513397217;0.0;0.0;0.0
1183;0.0;0.0;0.0;0.1180959939956665;-0.0019519999623298645;1.158511996269226;0.0;0.0;0.0
1185;0.0;0.0;0.0;0.12199999392032623;-0.0058559998869895935;1.1292319297790527;0.0;0.0;0.0
1187;-0.010491999797523022;0.13395600020885468;1.0125999450683594;0.13371199369430542;0.0058559998869895935;1.1292319297790527;-1.5006250143051147;-16.170000076293945;10.954999923706055
1189;0.0;0.0;0.0;0.1727519929409027;0.013663999736309052;1.1331360340118408;0.0;0.0;0.0
1191;0.0;0.0;0.0;0.14932799339294434;0.0058559998869895935;1.1136159896850586;0.0;0.0;0.0
1193;0.0;0.0;0.0;0.1454239934682846;0.02537599951028824;1.1380159854888916;0.0;0.0;0.0
1195;0.02513200044631958;0.15567199885845184;1.0118680000305176;0.11028799414634705;0.0605119988322258;1.1624159812927246;2.489375114440918;-9.100000381469727;14.595000267028809
1198;0.0;0.0;0.0;0.15323199331760406;0.040991999208927155;1.1624159812927246;0.0;0.0;0.0
1200;0.0;0.0;0.0;0.1298079937696457;0.0878399983048439;1.1819360256195068;0.0;0.0;0.0
1202;0.0;0.0;0.0;0.14932799339294434;0.044895999133586884;1.1536319255828857;0.0;0.0;0.0
1204;0.023180000483989716;0.18714798986911774;1.0313879251480103;0.14151999354362488;0.06441599875688553;1.1663199663162231;3.9593751430511475;-2.5899999141693115;19.4950008392334
1206;0.0;0.0;0.0;0.1844639927148819;0.07222399860620499;1.1575360298156738;0.0;0.0;0.0
1208;0.0;0.0;0.0;0.15323199331760406;0.06441599875688553;1.1380159854888916;0.0;0.0;0.0
1210;0.0;0.0;0.0;0.16103999316692352;0.04879999905824661;1.1536319255828857;0.0;0.0;0.0
1212;0.04147999733686447;0.18934398889541626;1.0265079736709595;0.1844639927148819;0.0331839993596077;1.1214239597320557;4.099374771118164;2.6600000858306885;21.454999923706055
1215;0.0;0.0;0.0;0.15323199331760406;0.07222399860620499;1.1380159854888916;0.0;0.0;0.0
1217;0.0;0.0;0.0;0.17665599286556244;0.0331839993596077;1.1331360340118408;0.0;0.0;0.0
1219;0.0;0.0;0.0;0.1454239934682846;0.040991999208927155;1.1536319255828857;0.0;0.0;0.0
1221;0.04684799909591675;0.18592800199985504;1.0196759700775146;0.1727519929409027;0.07222399860620499;1.1819360256195068;6.059374809265137;7.0;22.364999771118164
1223;0.0;0.0;0.0;0.1844639927148819;0.05660799890756607;1.1663199663162231;0.0;0.0;0.0
1225;0.0;0.0;0.0;0.17665599286556244;0.09174399822950363;1.1907199621200562;0.0;0.0;0.0
1227;0.0;0.0;0.0;0.16494399309158325;0.10735999792814255;1.1819360256195068;0.0;0.0;0.0
1229;0.05392399802803993;0.21227999031543732;1.0467599630355835;0.17665599286556244;0.13078400492668152;1.1907199621200562;9.34937572479248;10.079999923706055;24.954999923706055
1232;0.0;0.0;0.0;0.19617599248886108;0.10345599800348282;1.1868159770965576;0.0;0.0;0.0
1234;0.0;0.0;0.0;0.1844639927148819;0.11126399785280228;1.1946239471435547;0.0;0.0;0.0
1236;0.0;0.0;0.0;0.18836799263954163;0.13468798995018005;1.2102400064468384;0.0;0.0;0.0
1238;0.06612399965524673;0.25693199038505554;1.0687199831008911;0.18836799263954163;0.1424959897994995;1.1985279321670532;11.729374885559082;10.850000381469727;28.875
1240;0.0;0.0;0.0;0.19227199256420135;0.13078400492668152;1.2063360214233398;0.0;0.0;0.0
1242;0.0;0.0;0.0;0.2117919921875;0.17372798919677734;1.1985279321670532;0.0;0.0;0.0
1244;0.0;0.0;0.0;0.18055999279022217;0.15030398964881897;1.2190239429473877;0.0;0.0;0.0
1246;0.07002799957990646;0.2845039963722229;1.073356032371521;0.17665599286556244;0.1698240041732788;1.2063360214233398;11.869375228881836;9.239999771118164;32.654998779296875
1249;0.0;0.0;0.0;0.2000799924135208;0.17372798919677734;1.2024319171905518;0.0;0.0;0.0
1251;0.0;0.0;0.0;0.21569599211215973;0.16591998934745789;1.1946239471435547;0.0;0.0;0.0
1253;0.0;0.0;0.0;0.20398399233818054;0.18544000387191772;1.2024319171905518;0.0;0.0;0.0
1255;0.08344800025224686;0.31036800146102905;1.0726239681243896;0.2235039919614792;0.20105600357055664;1.2268320322036743;10.119375228881836;6.929999828338623;35.38500213623047
1257;0.0;0.0;0.0;0.2117919921875;0.20105600357055664;1.2024319171905518;0.0;0.0;0.0
1259;0.0;0.0;0.0;0.24692799150943756;0.2205759882926941;1.2102400064468384;0.0;0.0;0.0
1261;0.0;0.0;0.0;0.2391199916601181;0.16201600432395935;1.1868159770965576;0.0;0.0;0.0
1263;0.11565599590539932;0.3306199908256531;1.0696959495544434;0.23521599173545837;0.2088640034198761;1.2024319171905518;6.899374961853027;4.690000057220459;38.255001068115234
1266;0.0;0.0;0.0;0.28596800565719604;0.20495998859405518;1.1907199621200562;0.0;0.0;0.0
1268;0.0;0.0;0.0;0.3093920052051544;0.21276798844337463;1.2063360214233398;0.0;0.0;0.0
1270;0.0;0.0;0.0;0.3328160047531128;0.22838398814201355;1.1907199621200562;0.0;0.0;0.0
1272;0.16250400245189667;0.342087984085083;1.0670119524002075;0.31329599022865295;0.21276798844337463;1.2102400064468384;3.4693751335144043;3.7100000381469727;42.03499984741211
1274;0.0;0.0;0.0;0.31329599022865295;0.22838398814201355;1.1985279321670532;0.0;0.0;0.0
1276;0.0;0.0;0.0;0.3328160047531128;0.18544000387191772;1.1946239471435547;0.0;0.0;0.0
1278;0.0;0.0;0.0;0.3640480041503906;0.2088640034198761;1.2024319171905518;0.0;0.0;0.0
1281;0.20959599316120148;0.3437959849834442;1.075551986694336;0.32891198992729187;0.2088640034198761;1.2268320322036743;0.4593750238418579;3.8499999046325684;46.44499969482422
1283;0.0;0.0;0.0;0.34062400460243225;0.18544000387191772;1.2063360214233398;0.0;0.0;0.0
1285;0.0;0.0;0.0;0.33671998977661133;0.18934398889541626;1.2024319171905518;0.0;0.0;0.0
1287;0.0;0.0;0.0;0.3835679888725281;0.18934398889541626;1.1907199621200562;0.0;0.0;0.0
1289;0.24985599517822266;0.32427600026130676;1.0682319402694702;0.3757599890232086;0.1542080044746399;1.1946239471435547;-0.6606249809265137;4.96999979019165;50.154998779296875
1291;0.0;0.0;0.0;0.39528000354766846;0.15811198949813843;1.1741279363632202;0.0;0.0;0.0
1293;0.0;0.0;0.0;0.4333440065383911;0.15811198949813843;1.1780319213867188;0.0;0.0;0.0
1295;0.0;0.0;0.0;0.43724799156188965;0.15811198949813843;1.1819360256195068;0.0;0.0;0.0
1298;0.2898719906806946;0.2898719906806946;1.0455399751663208;0.41870400309562683;0.16201600432395935;1.1536319255828857;1.4393749237060547;7.559999942779541;51.974998474121094
1300;0.0;0.0;0.0;0.4577440023422241;0.13859200477600098;1.1575360298156738;0.0;0.0;0.0
1302;0.0;0.0;0.0;0.4577440023422241;0.1424959897994995;1.1458239555358887;0.0;0.0;0.0
1304;0.0;0.0;0.0;0.4382239878177643;0.115167997777462;1.1624159812927246;0.0;0.0;0.0
1306;0.32207998633384705;0.27327999472618103;1.0321199893951416;0.4421280026435852;0.15030398964881897;1.134112000465393;5.009374618530273;12.180000305175781;51.69499969482422
1308;0.0;0.0;0.0;0.4538399875164032;0.11907199770212173;1.1575360298156738;0.0;0.0;0.0
1310;0.0;0.0;0.0;0.4772639870643616;0.12297599762678146;1.1575360298156738;0.0;0.0;0.0
1312;0.0;0.0;0.0;0.48507198691368103;0.1424959897994995;1.1419199705123901;0.0;0.0;0.0
1315;0.3491639792919159;0.2654719948768616;1.0189440250396729;0.48897600173950195;0.115167997777462;1.1419199705123901;8.159375190734863;17.71000099182129;49.314998626708984
1317;0.0;0.0;0.0;0.4684799909591675;0.1268799901008606;1.1780319213867188;0.0;0.0;0.0
1319;0.0;0.0;0.0;0.4684799909591675;0.11907199770212173;1.1497279405593872;0.0;0.0;0.0
1321;0.0;0.0;0.0;0.47628799080848694;0.1424959897994995;1.1624159812927246;0.0;0.0;0.0
1323;0.3694159984588623;0.2710839807987213;1.0294359922409058;0.5036159753799438;0.14640000462532043;1.158511996269226;11.029375076293945;22.260000228881836;46.584999084472656
1325;0.0;0.0;0.0;0.5075199604034424;0.13859200477600098;1.1624159812927246;0.0;0.0;0.0
1327;0.0;0.0;0.0;0.49190399050712585;0.16201600432395935;1.1819360256195068;0.0;0.0;0.0
1329;0.0;0.0;0.0;0.48799997568130493;0.13078400492668152;1.1780319213867188;0.0;0.0;0.0
1332;0.37161198258399963;0.27596399188041687;1.0455399751663208;0.4567679762840271;0.1542080044746399;1.1946239471435547;12.84937572479248;24.290000915527344;44.13500213623047
1334;0.0;0.0;0.0;0.5075199604034424;0.16591998934745789;1.1985279321670532;0.0;0.0;0.0
1336;0.0;0.0;0.0;0.46457600593566895;0.12297599762678146;1.1946239471435547;0.0;0.0;0.0
1338;0.0;0.0;0.0;0.4684799909591675;0.13468798995018005;1.1780319213867188;0.0;0.0;0.0
1340;0.3472119867801666;0.27083998918533325;1.0611560344696045;0.46457600593566895;0.10735999792814255;1.1868159770965576;14.249375343322754;22.1200008392334;41.334999084472656
1342;0.0;0.0;0.0;0.46457600593566895;0.10735999792814255;1.1946239471435547;0.0;0.0;0.0
1344;0.0;0.0;0.0;0.4567679762840271;0.12297599762678146;1.1819360256195068;0.0;0.0;0.0
1346;0.0;0.0;0.0;0.46457600593566895;0.13078400492668152;1.1868159770965576;0.0;0.0;0.0
1349;0.33550000190734863;0.25278398394584656;1.0560319423675537;0.4450559914112091;0.10345599800348282;1.1702239513397217;15.579375267028809;17.219999313354492;38.60499954223633
1351;0.0;0.0;0.0;0.46457600593566895;0.10345599800348282;1.1819360256195068;0.0;0.0;0.0
1353;0.0;0.0;0.0;0.4450559914112091;0.09955199807882309;1.1624159812927246;0.0;0.0;0.0
1355;0.0;0.0;0.0;0.42260798811912537;0.10345599800348282;1.1497279405593872;0.0;0.0;0.0
1357;0.33135199546813965;0.24887999892234802;1.0372439622879028;0.4567679762840271;0.13078400492668152;1.1458239555358887;17.74937629699707;12.460000038146973;37.064998626708984
1359;0.0;0.0;0.0;0.46457600593566895;0.13859200477600098;1.1497279405593872;0.0;0.0;0.0
1361;0.0;0.0;0.0;0.4333440065383911;0.14640000462532043;1.1419199705123901;0.0;0.0;0.0
1363;0.0;0.0;0.0;0.460671991109848;0.15030398964881897;1.134112000465393;0.0;0.0;0.0
1366;0.3411119878292084;0.264739990234375;1.013819932937622;0.460671991109848;0.13078400492668152;1.1253279447555542;19.779375076293945;9.3100004196167;37.974998474121094
1368;0.0;0.0;0.0;0.4958080053329468;0.11907199770212173;1.1253279447555542;0.0;0.0;0.0
1370;0.0;0.0;0.0;0.5114240050315857;0.13468798995018005;1.1175199747085571;0.0;0.0;0.0
1372;0.0;0.0;0.0;0.48799997568130493;0.1542080044746399;1.1380159854888916;0.0;0.0;0.0
1374;0.36209598183631897;0.26742398738861084;0.9928359985351562;0.4958080053329468;0.12297599762678146;1.1136159896850586;20.619375228881836;8.609999656677246;41.404998779296875
1376;0.0;0.0;0.0;0.5153279900550842;0.11126399785280228;1.1048319339752197;0.0;0.0;0.0
1378;0.0;0.0;0.0;0.5192319750785828;0.1424959897994995;1.1214239597320557;0.0;0.0;0.0
1380;0.0;0.0;0.0;0.5426560044288635;0.13859200477600098;1.10971200466156;0.0;0.0;0.0
1383;0.39430397748947144;0.26156800985336304;0.9835639595985413;0.5192319750785828;0.13078400492668152;1.10971200466156;20.4793758392334;10.010000228881836;47.21500015258789
1385;0.0;0.0;0.0;0.5660799741744995;0.11126399785280228;1.1214239597320557;0.0;0.0;0.0
1387;0.0;0.0;0.0;0.5426560044288635;0.10735999792814255;1.10971200466156;0.0;0.0;0.0
1389;0.0;0.0;0.0;0.5426560044288635;0.0605119988322258;1.1380159854888916;0.0;0.0;0.0
1391;0.41748398542404175;0.23204399645328522;0.998691976070404;0.5309439897537231;0.05270399898290634;1.1419199705123901;19.359375;12.949999809265137;54.494998931884766
1393;0.0;0.0;0.0;0.5270400047302246;0.08393599838018417;1.1624159812927246;0.0;0.0;0.0
1395;0.0;0.0;0.0;0.562175989151001;0.02537599951028824;1.1458239555358887;0.0;0.0;0.0
1397;0.0;0.0;0.0;0.5465599894523621;0.029279999434947968;1.1907199621200562;0.0;0.0;0.0
1400;0.42041200399398804;0.17836399376392365;1.0367560386657715;0.5387519598007202;0.009759999811649323;1.1780319213867188;17.049375534057617;15.470000267028809;61.845001220703125
1402;0.0;0.0;0.0;0.5036159753799438;0.013663999736309052;1.1907199621200562;0.0;0.0;0.0
1404;0.0;0.0;0.0;0.5465599894523621;-0.013663999736309052;1.2268320322036743;0.0;0.0;0.0
1406;0.0;0.0;0.0;0.5387519598007202;-0.02537599951028824;1.2395199537277222;0.0;0.0;0.0
1408;0.4228519797325134;0.11907199770212173;1.0843359231948853;0.5387519598007202;-0.0331839993596077;1.2307360172271729;14.739375114440918;14.90999984741211;66.60499572753906
1410;0.0;0.0;0.0;0.5387519598007202;-0.06441599875688553;1.2551360130310059;0.0;0.0;0.0
1412;0.0;0.0;0.0;0.5660799741744995;-0.06831999868154526;1.2473279237747192;0.0;0.0;0.0
1414;0.0;0.0;0.0;0.5348479747772217;-0.08393599838018417;1.2590399980545044;0.0;0.0;0.0
1417;0.4287079870700836;0.053679998964071274;1.1192280054092407;0.569983959197998;-0.13078400492668152;1.2590399980545044;13.829375267028809;10.710000038146973;66.46499633789062
1419;0.0;0.0;0.0;0.5660799741744995;-0.11126399785280228;1.2639199495315552;0.0;0.0;0.0
1421;0.0;0.0;0.0;0.5504639744758606;-0.1268799901008606;1.2590399980545044;0.0;0.0;0.0
1423;0.0;0.0;0.0;0.5660799741744995;-0.1542080044746399;1.2473279237747192;0.0;0.0;0.0
1425;0.4455440044403076;-0.007075999863445759;1.1211799383163452;0.5738880038261414;-0.16201600432395935;1.2307360172271729;15.299375534057617;4.480000019073486;61.35499954223633
1427;0.0;0.0;0.0;0.5895040035247803;-0.17763200402259827;1.2512320280075073;0.0;0.0;0.0
1429;0.0;0.0;0.0;0.5856000185012817;-0.17372798919677734;1.2551360130310059;0.0;0.0;0.0
1431;0.0;0.0;0.0;0.5934079885482788;-0.17763200402259827;1.2190239429473877;0.0;0.0;0.0
1434;0.47555598616600037;-0.035868000239133835;1.099463939666748;0.6246399879455566;-0.17372798919677734;1.2229279279708862;18.239376068115234;-1.6100000143051147;52.744998931884766
1436;0.0;0.0;0.0;0.6441599726676941;-0.17372798919677734;1.1819360256195068;0.0;0.0;0.0
1438;0.0;0.0;0.0;0.6402559876441956;-0.16201600432395935;1.1819360256195068;0.0;0.0;0.0
1440;0.0;0.0;0.0;0.6324479579925537;-0.15811198949813843;1.1624159812927246;0.0;0.0;0.0
1442;0.5165479779243469;-0.04318799823522568;1.0438319444656372;0.6480640172958374;-0.16201600432395935;1.1292319297790527;21.809375762939453;-5.599999904632568;42.45500183105469
1444;0.0;0.0;0.0;0.6861279606819153;-0.17372798919677734;1.1380159854888916;0.0;0.0;0.0
1446;0.0;0.0;0.0;0.6822239756584167;-0.14640000462532043;1.10971200466156;0.0;0.0;0.0
1449;0.0;0.0;0.0;0.6744160056114197;-0.14640000462532043;1.1175199747085571;0.0;0.0;0.0
1451;0.55485600233078;-0.027084000408649445;0.982587993144989;0.6744160056114197;-0.1698240041732788;1.0931199789047241;26.28937530517578;-6.090000152587891;32.165000915527344
1453;0.0;0.0;0.0;0.709551990032196;-0.115167997777462;1.0892159938812256;0.0;0.0;0.0
1455;0.0;0.0;0.0;0.6939359903335571;-0.13468798995018005;1.0521279573440552;0.0;0.0;0.0
1457;0.0;0.0;0.0;0.6666079759597778;-0.10345599800348282;1.0521279573440552;0.0;0.0;0.0
1459;0.5638839602470398;0.004879999905824661;0.9408639669418335;0.6822239756584167;-0.11126399785280228;1.0570080280303955;30.839374542236328;-4.550000190734863;22.9950008392334
1461;0.0;0.0;0.0;0.6792960166931152;-0.11907199770212173;1.0404160022735596;0.0;0.0;0.0
1463;0.0;0.0;0.0;0.7056480050086975;-0.07612799853086472;1.012112021446228;0.0;0.0;0.0
1466;0.0;0.0;0.0;0.6588000059127808;-0.10735999792814255;1.0277279615402222;0.0;0.0;0.0
1468;0.5511959791183472;0.03294000029563904;0.9035319685935974;0.6666079759597778;-0.07612799853086472;1.012112021446228;34.40937423706055;-3.0799999237060547;15.995000839233398
1470;0.0;0.0;0.0;0.6783199906349182;-0.06441599875688553;1.0043039321899414;0.0;0.0;0.0
1472;0.0;0.0;0.0;0.7017439603805542;-0.08003199845552444;0.9838079810142517;0.0;0.0;0.0
1474;0.0;0.0;0.0;0.6519680023193359;-0.08003199845552444;0.9916160106658936;0.0;0.0;0.0
1476;0.5541239976882935;0.05685199797153473;0.8610759973526001;0.6441599726676941;-0.09174399822950363;0.9594079852104187;36.71937561035156;-1.0499999523162842;11.654999732971191
1478;0.0;0.0;0.0;0.6900320053100586;-0.040991999208927155;0.9555040001869202;0.0;0.0;0.0
1480;0.0;0.0;0.0;0.6822239756584167;-0.05660799890756607;0.9271999597549438;0.0;0.0;0.0
1482;0.0;0.0;0.0;0.6900320053100586;-0.05660799890756607;0.9145119786262512;0.0;0.0;0.0
1485;0.5629079937934875;0.07588399946689606;0.8100799918174744;0.6666079759597778;-0.037087999284267426;0.9555040001869202;37.419376373291016;1.8899999856948853;9.135000228881836
1487;0.0;0.0;0.0;0.6900320053100586;-0.02147199958562851;0.9271999597549438;0.0;0.0;0.0
1489;0.0;0.0;0.0;0.6861279606819153;-0.02147199958562851;0.9184159636497498;0.0;0.0;0.0
1491;0.0;0.0;0.0;0.6705119609832764;0.009759999811649323;0.8901119828224182;0.0;0.0;0.0
1493;0.5607119798660278;0.11394799500703812;0.7881199717521667;0.6783199906349182;0.029279999434947968;0.9271999597549438;36.299373626708984;6.019999980926514;7.875
1495;0.0;0.0;0.0;0.659775972366333;-0.013663999736309052;0.9311040043830872;0.0;0.0;0.0
1497;0.0;0.0;0.0;0.6627039909362793;0.05270399898290634;0.9389119744300842;0.0;0.0;0.0
1500;0.0;0.0;0.0;0.6246399879455566;-0.013663999736309052;0.9223200082778931;0.0;0.0;0.0
1502;0.5370439887046814;0.14322799444198608;0.7981239557266235;0.6441599726676941;0.02147199958562851;0.9350079894065857;33.28937530517578;8.050000190734863;8.574999809265137
1504;0.0;0.0;0.0;0.6207360029220581;0.04879999905824661;0.9467200040817261;0.0;0.0;0.0
1506;0.0;0.0;0.0;0.6441599726676941;0.009759999811649323;0.8979200124740601;0.0;0.0;0.0
1508;0.0;0.0;0.0;0.6129279732704163;0.029279999434947968;0.9467200040817261;0.0;0.0;0.0
1510;0.5228919982910156;0.15640400350093842;0.8056879639625549;0.6324479579925537;-0.0058559998869895935;0.9145119786262512;30.06937599182129;7.0;11.585000038146973
1512;0.0;0.0;0.0;0.6519680023193359;0.040991999208927155;0.9262239933013916;0.0;0.0;0.0
1514;0.0;0.0;0.0;0.6285439729690552;0.013663999736309052;0.9223200082778931;0.0;0.0;0.0
1517;0.0;0.0;0.0;0.6480640172958374;-0.009759999811649323;0.9145119786262512;0.0;0.0;0.0
1519;0.5231360197067261;0.13517600297927856;0.7927559614181519;0.6627039909362793;-0.009759999811649323;0.9067040085792542;26.849374771118164;4.690000057220459;15.225000381469727
1521;0.0;0.0;0.0;0.6519680023193359;-0.009759999811649323;0.9145119786262512;0.0;0.0;0.0
1523;0.0;0.0;0.0;0.6519680023193359;-0.0058559998869895935;0.9311040043830872;0.0;0.0;0.0
1525;0.0;0.0;0.0;0.6441599726676941;0.009759999811649323;0.9262239933013916;0.0;0.0;0.0
1527;0.52947998046875;0.11541199684143066;0.7998319864273071;0.6744160056114197;-0.01756799966096878;0.9467200040817261;22.579376220703125;1.3300000429153442;17.7450008392334
1529;0.0;0.0;0.0;0.6558719873428345;-0.029279999434947968;0.9428159594535828;0.0;0.0;0.0
1531;0.0;0.0;0.0;0.659775972366333;-0.04879999905824661;0.9467200040817261;0.0;0.0;0.0
1534;0.0;0.0;0.0;0.6519680023193359;-0.044895999133586884;0.9184159636497498;0.0;0.0;0.0
1536;0.5421679615974426;0.08686399459838867;0.8142279982566833;0.6783199906349182;-0.09564799815416336;0.9428159594535828;15.299375534057617;-3.430000066757202;18.725000381469727
1538;0.0;0.0;0.0;0.6705119609832764;-0.09174399822950363;0.9223200082778931;0.0;0.0;0.0
1540;0.0;0.0;0.0;0.6705119609832764;-0.09955199807882309;0.9389119744300842;0.0;0.0;0.0
1542;0.0;0.0;0.0;0.7134559750556946;-0.13078400492668152;0.9067040085792542;0.0;0.0;0.0
1544;0.5682759881019592;0.015859998762607574;0.794219970703125;0.7290719747543335;-0.14640000462532043;0.8940159678459167;7.599374771118164;-7.490000247955322;18.024999618530273
1546;0.0;0.0;0.0;0.7173599600791931;-0.20105600357055664;0.8862079977989197;0.0;0.0;0.0
1548;0.0;0.0;0.0;0.7056480050086975;-0.19324800372123718;0.8979200124740601;0.0;0.0;0.0
1551;0.0;0.0;0.0;0.7290719747543335;-0.23228800296783447;0.8618080019950867;0.0;0.0;0.0
1553;0.607804000377655;-0.05319199711084366;0.7607919573783875;0.7290719747543335;-0.2088640034198761;0.8783999681472778;3.189375162124634;-8.75;14.945000648498535
1555;0.0;0.0;0.0;0.7681120038032532;-0.22838398814201355;0.8657119870185852;0.0;0.0;0.0
1557;0.0;0.0;0.0;0.7642079591751099;-0.24009600281715393;0.8500959873199463;0.0;0.0;0.0
1559;0.0;0.0;0.0;0.7681120038032532;-0.2596159875392914;0.8335039615631104;0.0;0.0;0.0
1561;0.6344000101089478;-0.10247999429702759;0.7290719747543335;0.7720159888267517;-0.21276798844337463;0.8413119912147522;2.41937518119812;-6.159999847412109;9.414999961853027
1563;0.0;0.0;0.0;0.7759199738502502;-0.26742398738861084;0.8335039615631104;0.0;0.0;0.0
1565;0.0;0.0;0.0;0.7681120038032532;-0.2518079876899719;0.8374080061912537;0.0;0.0;0.0
1568;0.0;0.0;0.0;0.748591959476471;-0.25571200251579285;0.8335039615631104;0.0;0.0;0.0
1570;0.6390359997749329;-0.12126799672842026;0.7156519889831543;0.7446879744529724;-0.2518079876899719;0.8452159762382507;2.349375009536743;-1.1200000047683716;1.7850000858306885
1572;0.0;0.0;0.0;0.7368800044059753;-0.2596159875392914;0.8579039573669434;0.0;0.0;0.0
1574;0.0;0.0;0.0;0.7368800044059753;-0.2596159875392914;0.8413119912147522;0.0;0.0;0.0
1576;0.0;0.0;0.0;0.6978399753570557;-0.24009600281715393;0.8735199570655823;0.0;0.0;0.0
1578;0.5990200042724609;-0.11272799968719482;0.7324879765510559;0.709551990032196;-0.21667200326919556;0.9027999639511108;1.3693749904632568;3.430000066757202;-6.194999694824219
1580;0.0;0.0;0.0;0.6441599726676941;-0.22448000311851501;0.8979200124740601;0.0;0.0;0.0
1582;0.0;0.0;0.0;0.6783199906349182;-0.2088640034198761;0.9271999597549438;0.0;0.0;0.0
1585;0.0;0.0;0.0;0.6480640172958374;-0.2088640034198761;0.9506239891052246;0.0;0.0;0.0
1587;0.5492439866065979;-0.08466799557209015;0.7908039689064026;0.6324479579925537;-0.19324800372123718;0.9594079852104187;-0.940625011920929;4.130000114440918;-11.164999961853027
1589;0.0;0.0;0.0;0.6822239756584167;-0.18544000387191772;0.9799039959907532;0.0;0.0;0.0
1591;0.0;0.0;0.0;0.6441599726676941;-0.19324800372123718;0.9633119702339172;0.0;0.0;0.0
1593;0.0;0.0;0.0;0.636352002620697;-0.22838398814201355;0.9467200040817261;0.0;0.0;0.0
1595;0.5272839665412903;-0.07417599856853485;0.8332599997520447;0.6480640172958374;-0.21276798844337463;0.9389119744300842;-4.300625324249268;0.8400000333786011;-10.604999542236328
1597;0.0;0.0;0.0;0.636352002620697;-0.24399998784065247;0.9711199998855591;0.0;0.0;0.0
1599;0.0;0.0;0.0;0.6588000059127808;-0.2596159875392914;0.9515999555587769;0.0;0.0;0.0
1602;0.0;0.0;0.0;0.6207360029220581;-0.2752319872379303;0.9799039959907532;0.0;0.0;0.0
1604;0.5260639786720276;-0.1256600022315979;0.8327719569206238;0.6519680023193359;-0.28303998708724976;0.9555040001869202;-6.540625095367432;-2.240000009536743;-7.244999885559082
1606;0.0;0.0;0.0;0.6168320178985596;-0.3142719864845276;0.9594079852104187;0.0;0.0;0.0
1608;0.0;0.0;0.0;0.6246399879455566;-0.3181760013103485;0.9711199998855591;0.0;0.0;0.0
1610;0.0;0.0;0.0;0.6636799573898315;-0.3142719864845276;0.9594079852104187;0.0;0.0;0.0
1612;0.5319200158119202;-0.18007199466228485;0.8291119933128357;0.6441599726676941;-0.32598400115966797;0.9672159552574158;-6.470625400543213;-2.799999952316284;-3.325000047683716
1614;0.0;0.0;0.0;0.6480640172958374;-0.3689279854297638;0.9467200040817261;0.0;0.0;0.0
1616;0.0;0.0;0.0;0.6480640172958374;-0.3572160005569458;0.9594079852104187;0.0;0.0;0.0
1619;0.0;0.0;0.0;0.6207360029220581;-0.3572160005569458;0.9555040001869202;0.0;0.0;0.0
1621;0.5138639807701111;-0.21276798844337463;0.8337479829788208;0.6324479579925537;-0.2869440019130707;0.9838079810142517;-4.860625267028809;-0.5600000023841858;1.8550000190734863
1623;0.0;0.0;0.0;0.6480640172958374;-0.40406399965286255;0.9223200082778931;0.0;0.0;0.0
1625;0.0;0.0;0.0;0.6324479579925537;-0.4626239836215973;0.9184159636497498;0.0;0.0;0.0
1627;0.0;0.0;0.0;0.6246399879455566;-0.41967999935150146;0.9350079894065857;0.0;0.0;0.0
1629;0.5228919982910156;-0.2793799936771393;0.8122760057449341;0.6207360029220581;-0.44310399889945984;0.9223200082778931;-3.6706249713897705;4.96999979019165;2.694999933242798
1631;0.0;0.0;0.0;0.636352002620697;-0.45481598377227783;0.9145119786262512;0.0;0.0;0.0
1633;0.0;0.0;0.0;0.6441599726676941;-0.5250880122184753;0.9027999639511108;0.0;0.0;0.0
1636;0.0;0.0;0.0;0.636352002620697;-0.5328959822654724;0.9145119786262512;0.0;0.0;0.0
1638;0.5172799825668335;-0.36746400594711304;0.7832399606704712;0.6441599726676941;-0.4899519979953766;0.9350079894065857;1.9993749856948853;14.84000015258789;0.5949999690055847
1640;0.0;0.0;0.0;0.6051200032234192;-0.513375997543335;0.9184159636497498;0.0;0.0;0.0
1642;0.0;0.0;0.0;0.5816959738731384;-0.49775999784469604;0.9428159594535828;0.0;0.0;0.0
1644;0.0;0.0;0.0;0.5426560044288635;-0.5016639828681946;0.9428159594535828;0.0;0.0;0.0
1646;0.4718959927558899;-0.3794199824333191;0.8169119954109192;0.562175989151001;-0.49775999784469604;0.9877119660377502;10.049375534057617;24.219999313354492;-1.9249999523162842
1649;0.0;0.0;0.0;0.5426560044288635;-0.45481598377227783;0.9916160106658936;0.0;0.0;0.0
1650;0.0;0.0;0.0;0.5231360197067261;-0.48604798316955566;0.9916160106658936;0.0;0.0;0.0
1653;0.0;0.0;0.0;0.5192319750785828;-0.4938559830188751;1.0033279657363892;0.0;0.0;0.0
1655;0.4101639986038208;-0.35745999217033386;0.87254399061203;0.5192319750785828;-0.4938559830188751;1.012112021446228;14.179375648498535;28.280000686645508;-5.634999752044678
1657;0.0;0.0;0.0;0.4997119903564453;-0.5055679678916931;0.9955199956893921;0.0;0.0;0.0
1659;0.0;0.0;0.0;0.4840959906578064;-0.5172799825668335;1.0082080364227295;0.0;0.0;0.0
1661;0.0;0.0;0.0;0.4840959906578064;-0.49775999784469604;1.019919991493225;0.0;0.0;0.0
1663;0.366487979888916;-0.3752720057964325;0.8818159699440002;0.4684799909591675;-0.513375997543335;1.012112021446228;14.6693754196167;28.139999389648438;-10.675000190734863
1665;0.0;0.0;0.0;0.45286399126052856;-0.5055679678916931;1.0277279615402222;0.0;0.0;0.0
1667;0.0;0.0;0.0;0.43724799156188965;-0.536799967288971;1.0326080322265625;0.0;0.0;0.0
1670;0.0;0.0;0.0;0.40699198842048645;-0.5328959822654724;1.0160160064697266;0.0;0.0;0.0
1672;0.3215920031070709;-0.39869600534439087;0.8913319706916809;0.42163199186325073;-0.5485119819641113;1.0238239765167236;12.359375;26.46000099182129;-16.344999313354492
1674;0.0;0.0;0.0;0.39528000354766846;-0.5485119819641113;1.012112021446228;0.0;0.0;0.0
1676;0.0;0.0;0.0;0.387472003698349;-0.5407040119171143;1.0326080322265625;0.0;0.0;0.0
1678;0.0;0.0;0.0;0.39528000354766846;-0.5407040119171143;1.036512017250061;0.0;0.0;0.0
1680;0.27303600311279297;-0.4106519818305969;0.8974319696426392;0.3718560039997101;-0.5328959822654724;1.0482239723205566;6.269374847412109;21.84000015258789;-23.135000228881836
1683;0.0;0.0;0.0;0.3640480041503906;-0.5719360113143921;1.0404160022735596;0.0;0.0;0.0
1685;0.0;0.0;0.0;0.3640480041503906;-0.5641279816627502;1.0287039279937744;0.0;0.0;0.0
1687;0.0;0.0;0.0;0.3757599890232086;-0.5758399963378906;1.012112021446228;0.0;0.0;0.0
1689;0.2437559962272644;-0.43675997853279114;0.8901119828224182;0.35624000430107117;-0.5836479663848877;0.9759999513626099;-2.9706249237060547;16.450000762939453;-31.184999465942383
1691;0.0;0.0;0.0;0.3445279896259308;-0.587552011013031;0.9711199998855591;0.0;0.0;0.0
1693;0.0;0.0;0.0;0.3172000050544739;-0.5992639660835266;0.9955199956893921;0.0;0.0;0.0
1695;0.0;0.0;0.0;0.29767999053001404;-0.6344000101089478;0.9789279699325562;0.0;0.0;0.0
1697;0.19885998964309692;-0.47970399260520935;0.8552199602127075;0.2781600058078766;-0.6265919804573059;0.9838079810142517;-12.280624389648438;14.069999694824219;-39.79499816894531
1700;0.0;0.0;0.0;0.2547360062599182;-0.6539199948310852;0.9955199956893921;0.0;0.0;0.0
1702;0.0;0.0;0.0;0.2508319914340973;-0.6226879954338074;0.9916160106658936;0.0;0.0;0.0
1704;0.0;0.0;0.0;0.25863999128341675;-0.6031680107116699;0.9955199956893921;0.0;0.0;0.0
1706;0.12590399384498596;-0.49410000443458557;0.8576599955558777;0.23131199181079865;-0.6148799657821655;1.019919991493225;-17.950624465942383;15.119999885559082;-46.30500030517578
1708;0.0;0.0;0.0;0.16884799301624298;-0.6148799657821655;1.0160160064697266;0.0;0.0;0.0
1710;0.0;0.0;0.0;0.18055999279022217;-0.6344000101089478;1.0082080364227295;0.0;0.0;0.0
1712;0.0;0.0;0.0;0.17665599286556244;-0.610975980758667;1.0238239765167236;0.0;0.0;0.0
1714;0.057339999824762344;-0.4777520000934601;0.8854759931564331;0.14932799339294434;-0.5953599810600281;1.0482239723205566;-18.580625534057617;16.8700008392334;-46.935001373291016
1717;0.0;0.0;0.0;0.1454239934682846;-0.6070719957351685;1.0404160022735596;0.0;0.0;0.0
1719;0.0;0.0;0.0;0.1180959939956665;-0.5758399963378906;1.0521279573440552;0.0;0.0;0.0
1721;0.0;0.0;0.0;0.12199999392032623;-0.5992639660835266;1.044319987297058;0.0;0.0;0.0
1723;0.020739998668432236;-0.46872398257255554;0.9198799729347229;0.14932799339294434;-0.6187840104103088;1.0570080280303955;-14.380624771118164;18.34000015258789;-40.28499984741211
1725;0.0;0.0;0.0;0.11419199407100677;-0.6031680107116699;1.0482239723205566;0.0;0.0;0.0
1727;0.0;0.0;0.0;0.13371199369430542;-0.6187840104103088;1.0570080280303955;0.0;0.0;0.0
1729;0.0;0.0;0.0;0.12199999392032623;-0.6422079801559448;1.0765279531478882;0.0;0.0;0.0
1731;-0.014883999712765217;-0.47970399260520935;0.9340319633483887;0.10735999792814255;-0.6070719957351685;1.0687199831008911;-8.920624732971191;20.020000457763672;-31.885000228881836
1734;0.0;0.0;0.0;0.06441599875688553;-0.6383039951324463;1.0726239681243896;0.0;0.0;0.0
1736;0.0;0.0;0.0;0.040991999208927155;-0.6265919804573059;1.0804319381713867;0.0;0.0;0.0
1738;0.0;0.0;0.0;0.04879999905824661;-0.6344000101089478;1.0931199789047241;0.0;0.0;0.0
1740;-0.06465999782085419;-0.4928799867630005;0.9576999545097351;0.02147199958562851;-0.6578239798545837;1.1009279489517212;-5.910624980926514;21.0;-26.774999618530273
1742;0.0;0.0;0.0;0.009759999811649323;-0.6383039951324463;1.1214239597320557;0.0;0.0;0.0
1744;0.0;0.0;0.0;0.009759999811649323;-0.6383039951324463;1.0970239639282227;0.0;0.0;0.0
1746;0.0;0.0;0.0;-0.01756799966096878;-0.6344000101089478;1.1214239597320557;0.0;0.0;0.0
1748;-0.10906799882650375;-0.5075199604034424;0.9945439696311951;-0.0019519999623298645;-0.6383039951324463;1.1458239555358887;-5.700625419616699;19.8799991607666;-25.094999313354492
1751;0.0;0.0;0.0;-0.0019519999623298645;-0.6695359945297241;1.1624159812927246;0.0;0.0;0.0
1753;0.0;0.0;0.0;-0.009759999811649323;-0.6383039951324463;1.1741279363632202;0.0;0.0;0.0
1755;0.0;0.0;0.0;-0.044895999133586884;-0.6617279648780823;1.1946239471435547;0.0;0.0;0.0
1757;-0.14518000185489655;-0.5167919993400574;1.044319987297058;-0.029279999434947968;-0.6461119651794434;1.1907199621200562;-7.590625286102295;16.100000381469727;-25.795000076293945
1759;0.0;0.0;0.0;-0.05660799890756607;-0.6578239798545837;1.1741279363632202;0.0;0.0;0.0
1761;0.0;0.0;0.0;-0.04879999905824661;-0.6968640089035034;1.2024319171905518;0.0;0.0;0.0
1763;0.0;0.0;0.0;-0.06441599875688553;-0.6812480092048645;1.1819360256195068;0.0;0.0;0.0
1765;-0.17323999106884003;-0.5397279858589172;1.0504199266433716;-0.06831999868154526;-0.685151994228363;1.1741279363632202;-10.600625038146973;10.850000381469727;-29.71500015258789
1768;0.0;0.0;0.0;-0.04879999905824661;-0.7241919636726379;1.1536319255828857;0.0;0.0;0.0
1770;0.0;0.0;0.0;-0.05270399898290634;-0.6929599642753601;1.1497279405593872;0.0;0.0;0.0
1772;0.0;0.0;0.0;-0.06441599875688553;-0.6929599642753601;1.1702239513397217;0.0;0.0;0.0
1774;-0.18104799091815948;-0.5670560002326965;1.030900001525879;-0.06441599875688553;-0.7046719789505005;1.1419199705123901;-12.49062442779541;7.699999809265137;-37.415000915527344
1776;0.0;0.0;0.0;-0.05660799890756607;-0.708575963973999;1.1624159812927246;0.0;0.0;0.0
1778;0.0;0.0;0.0;-0.07222399860620499;-0.7163839936256409;1.1458239555358887;0.0;0.0;0.0
1780;0.0;0.0;0.0;-0.09955199807882309;-0.6929599642753601;1.1575360298156738;0.0;0.0;0.0
1782;-0.20032399892807007;-0.5809639692306519;1.0260199308395386;-0.10735999792814255;-0.7202879786491394;1.1702239513397217;-11.930624961853027;7.699999809265137;-45.185001373291016
1785;0.0;0.0;0.0;-0.13078400492668152;-0.708575963973999;1.1741279363632202;0.0;0.0;0.0
1787;0.0;0.0;0.0;-0.13078400492668152;-0.7163839936256409;1.1907199621200562;0.0;0.0;0.0
1789;0.0;0.0;0.0;-0.14640000462532043;-0.6890559792518616;1.1946239471435547;0.0;0.0;0.0
1791;-0.2537599802017212;-0.5643720030784607;1.0582280158996582;-0.15030398964881897;-0.6773439645767212;1.2102400064468384;-8.360624313354492;7.139999866485596;-49.595001220703125
1793;0.0;0.0;0.0;-0.20398399233818054;-0.6812480092048645;1.1819360256195068;0.0;0.0;0.0
1795;0.0;0.0;0.0;-0.19227199256420135;-0.685151994228363;1.2190239429473877;0.0;0.0;0.0
1797;0.0;0.0;0.0;-0.1844639927148819;-0.6695359945297241;1.2346400022506714;0.0;0.0;0.0
1799;-0.3118319809436798;-0.5411919951438904;1.0914119482040405;-0.2117919921875;-0.685151994228363;1.2307360172271729;-4.860625267028809;3.7799999713897705;-50.92499923706055
1802;0.0;0.0;0.0;-0.20398399233818054;-0.6500160098075867;1.2551360130310059;0.0;0.0;0.0
1804;0.0;0.0;0.0;-0.23131199181079865;-0.6539199948310852;1.2512320280075073;0.0;0.0;0.0
1806;0.0;0.0;0.0;-0.2391199916601181;-0.6539199948310852;1.2678239345550537;0.0;0.0;0.0
1808;-0.3525799810886383;-0.5192319750785828;1.1204479932785034;-0.23521599173545837;-0.6617279648780823;1.2639199495315552;-4.930624961853027;-1.399999976158142;-50.85499954223633
1810;0.0;0.0;0.0;-0.24692799150943756;-0.6539199948310852;1.3000320196151733;0.0;0.0;0.0
1812;0.0;0.0;0.0;-0.28596800565719604;-0.610975980758667;1.2717279195785522;0.0;0.0;0.0
1814;0.0;0.0;0.0;-0.26254400610923767;-0.5953599810600281;1.2922239303588867;0.0;0.0;0.0
1816;-0.38259199261665344;-0.4921479821205139;1.1450920104980469;-0.2664479911327362;-0.6383039951324463;1.2678239345550537;-9.340624809265137;-8.819999694824219;-49.94499969482422
1819;0.0;0.0;0.0;-0.28596800565719604;-0.5719360113143921;1.2922239303588867;0.0;0.0;0.0
1821;0.0;0.0;0.0;-0.2781600058078766;-0.6031680107116699;1.2717279195785522;0.0;0.0;0.0
1823;0.0;0.0;0.0;-0.27425599098205566;-0.5524159669876099;1.2834399938583374;0.0;0.0;0.0
1825;-0.3908880054950714;-0.4550600051879883;1.1516799926757812;-0.2508319914340973;-0.5524159669876099;1.2756320238113403;-15.500624656677246;-18.059999465942383;-50.435001373291016
1827;0.0;0.0;0.0;-0.24692799150943756;-0.5719360113143921;1.2512320280075073;0.0;0.0;0.0
1829;0.0;0.0;0.0;-0.2391199916601181;-0.587552011013031;1.2795360088348389;0.0;0.0;0.0
1831;0.0;0.0;0.0;-0.2391199916601181;-0.5446079969406128;1.2717279195785522;0.0;0.0;0.0
1833;-0.3699039816856384;-0.43261200189590454;1.1411880254745483;-0.21569599211215973;-0.5524159669876099;1.2834399938583374;-20.96062469482422;-26.25;-52.8849983215332
1836;0.0;0.0;0.0;-0.24302399158477783;-0.5524159669876099;1.2473279237747192;0.0;0.0;0.0
1838;0.0;0.0;0.0;-0.20788799226284027;-0.5524159669876099;1.2717279195785522;0.0;0.0;0.0
1840;0.0;0.0;0.0;-0.2117919921875;-0.5719360113143921;1.2346400022506714;0.0;0.0;0.0
1842;-0.3467240035533905;-0.4206559956073761;1.1231319904327393;-0.2117919921875;-0.5407040119171143;1.2590399980545044;-23.48062515258789;-31.079999923706055;-55.82500076293945
1844;0.0;0.0;0.0;-0.2235039919614792;-0.5328959822654724;1.2307360172271729;0.0;0.0;0.0
1846;0.0;0.0;0.0;-0.21959999203681946;-0.5485119819641113;1.2473279237747192;0.0;0.0;0.0
1848;0.0;0.0;0.0;-0.24302399158477783;-0.5641279816627502;1.2346400022506714;0.0;0.0;0.0
1850;-0.3362320065498352;-0.4096759855747223;1.1045880317687988;-0.18836799263954163;-0.5407040119171143;1.2268320322036743;-22.850624084472656;-33.040000915527344;-58.904998779296875
1853;0.0;0.0;0.0;-0.20788799226284027;-0.5797439813613892;1.2190239429473877;0.0;0.0;0.0
1855;0.0;0.0;0.0;-0.21569599211215973;-0.5094720125198364;1.2395199537277222;0.0;0.0;0.0
1857;0.0;0.0;0.0;-0.20398399233818054;-0.5094720125198364;1.2307360172271729;0.0;0.0;0.0
1859;-0.32720398902893066;-0.3962559998035431;1.0843359231948853;-0.20788799226284027;-0.5016639828681946;1.2024319171905518;-20.05062484741211;-32.20000076293945;-62.05500030517578
1861;0.0;0.0;0.0;-0.2030079960823059;-0.5172799825668335;1.1780319213867188;0.0;0.0;0.0
1863;0.0;0.0;0.0;-0.18348799645900726;-0.4938559830188751;1.1780319213867188;0.0;0.0;0.0
1865;0.0;0.0;0.0;-0.16396799683570862;-0.5250880122184753;1.1419199705123901;0.0;0.0;0.0
1867;-0.31573599576950073;-0.38185998797416687;1.0435879230499268;-0.16396799683570862;-0.513375997543335;1.1419199705123901;-15.570624351501465;-29.889999389648438;-65.2750015258789
1870;0.0;0.0;0.0;-0.19519999623298645;-0.5172799825668335;1.1380159854888916;0.0;0.0;0.0
1872;0.0;0.0;0.0;-0.187391996383667;-0.4899519979953766;1.1536319255828857;0.0;0.0;0.0
1874;0.0;0.0;0.0;-0.14151999354362488;-0.4626239836215973;1.1380159854888916;0.0;0.0;0.0
1876;-0.301827996969223;-0.3537999987602234;1.0030839443206787;-0.17958399653434753;-0.47043198347091675;1.1253279447555542;-9.200624465942383;-25.1299991607666;-67.6550064086914
1878;0.0;0.0;0.0;-0.1727519929409027;-0.41967999935150146;1.1331360340118408;0.0;0.0;0.0
1880;0.0;0.0;0.0;-0.15323199331760406;-0.44310399889945984;1.1175199747085571;0.0;0.0;0.0
1882;0.0;0.0;0.0;-0.1844639927148819;-0.3689279854297638;1.1663199663162231;0.0;0.0;0.0
1884;-0.2942639887332916;-0.2886520028114319;1.0055240392684937;-0.1542080044746399;-0.40406399965286255;1.1214239597320557;-3.6006250381469727;-17.56999969482422;-68.98500061035156
1887;0.0;0.0;0.0;-0.2235039919614792;-0.37673598527908325;1.1575360298156738;0.0;0.0;0.0
1889;0.0;0.0;0.0;-0.2235039919614792;-0.34940800070762634;1.1497279405593872;0.0;0.0;0.0
1891;0.0;0.0;0.0;-0.2117919921875;-0.34940800070762634;1.1419199705123901;0.0;0.0;0.0
1893;-0.321835994720459;-0.23082399368286133;1.0194319486618042;-0.22740799188613892;-0.3416000008583069;1.1663199663162231;-0.030625000596046448;-10.359999656677246;-69.33500671386719
1895;0.0;0.0;0.0;-0.2235039919614792;-0.3455039858818054;1.1741279363632202;0.0;0.0;0.0
1897;0.0;0.0;0.0;-0.26254400610923767;-0.3298879861831665;1.2112159729003906;0.0;0.0;0.0
1899;0.0;0.0;0.0;-0.2820639908313751;-0.33769598603248596;1.1868159770965576;0.0;0.0;0.0
1901;-0.37722399830818176;-0.19446799159049988;1.0582280158996582;-0.2781600058078766;-0.3142719864845276;1.2268320322036743;1.509374976158142;-6.090000152587891;-69.05500030517578
1904;0.0;0.0;0.0;-0.28596800565719604;-0.2869440019130707;1.2063360214233398;0.0;0.0;0.0
1906;0.0;0.0;0.0;-0.2898719906806946;-0.3337920010089874;1.2229279279708862;0.0;0.0;0.0
1908;0.0;0.0;0.0;-0.32500800490379333;-0.27132800221443176;1.2551360130310059;0.0;0.0;0.0
1910;-0.4169960021972656;-0.16860400140285492;1.0965359210968018;-0.30158400535583496;-0.29865598678588867;1.2268320322036743;1.6493749618530273;-5.460000038146973;-66.95500183105469
1912;0.0;0.0;0.0;-0.30158400535583496;-0.2635200023651123;1.2512320280075073;0.0;0.0;0.0
1914;0.0;0.0;0.0;-0.31329599022865295;-0.2791360020637512;1.2551360130310059;0.0;0.0;0.0
1916;0.0;0.0;0.0;-0.32891198992729187;-0.24399998784065247;1.2678239345550537;0.0;0.0;0.0
1918;-0.4487159848213196;-0.13298000395298004;1.1328920125961304;-0.3211039900779724;-0.24009600281715393;1.2795360088348389;2.2093751430511475;-7.630000114440918;-62.82500076293945
1921;0.0;0.0;0.0;-0.3328160047531128;-0.24399998784065247;1.3000320196151733;0.0;0.0;0.0
1923;0.0;0.0;0.0;-0.35526400804519653;-0.2205759882926941;1.2961280345916748;0.0;0.0;0.0
1925;0.0;0.0;0.0;-0.33671998977661133;-0.24399998784065247;1.3000320196151733;0.0;0.0;0.0
1927;-0.45652398467063904;-0.09125600010156631;1.1638799905776978;-0.3396480083465576;-0.19715198874473572;1.3078399896621704;2.2093751430511475;-12.319999694824219;-57.78499984741211
1929;0.0;0.0;0.0;-0.3093920052051544;-0.18934398889541626;1.2717279195785522;0.0;0.0;0.0
1931;0.0;0.0;0.0;-0.3211039900779724;-0.18544000387191772;1.3000320196151733;0.0;0.0;0.0
1933;0.0;0.0;0.0;-0.31329599022865295;-0.19715198874473572;1.2961280345916748;0.0;0.0;0.0
1935;-0.4440799951553345;-0.06124399974942207;1.169003963470459;-0.2898719906806946;-0.19324800372123718;1.2756320238113403;1.2993749380111694;-19.110000610351562;-52.814998626708984
1938;0.0;0.0;0.0;-0.31329599022865295;-0.1815359890460968;1.2756320238113403;0.0;0.0;0.0
1940;0.0;0.0;0.0;-0.28596800565719604;-0.17763200402259827;1.2961280345916748;0.0;0.0;0.0
1942;0.0;0.0;0.0;-0.27035200595855713;-0.1542080044746399;1.2678239345550537;0.0;0.0;0.0
1944;-0.4089439809322357;-0.03684400022029877;1.1448479890823364;-0.25863999128341675;-0.17763200402259827;1.2190239429473877;-1.080625057220459;-26.46000099182129;-49.03499984741211
1946;0.0;0.0;0.0;-0.27035200595855713;-0.15030398964881897;1.2717279195785522;0.0;0.0;0.0
1948;0.0;0.0;0.0;-0.20788799226284027;-0.14640000462532043;1.23854398727417;0.0;0.0;0.0
1950;0.0;0.0;0.0;-0.23521599173545837;-0.1424959897994995;1.2268320322036743;0.0;0.0;0.0
1952;-0.3559959828853607;-0.018055999651551247;1.104099988937378;-0.2117919921875;-0.1268799901008606;1.2307360172271729;-4.160624980926514;-32.34000015258789;-46.375
1955;0.0;0.0;0.0;-0.19617599248886108;-0.11907199770212173;1.2112159729003906;0.0;0.0;0.0
1957;0.0;0.0;0.0;-0.17665599286556244;-0.1268799901008606;1.2112159729003906;0.0;0.0;0.0
1959;0.0;0.0;0.0;-0.16103999316692352;-0.115167997777462;1.1946239471435547;0.0;0.0;0.0
1961;-0.30158400535583496;0.003903999924659729;1.0787240266799927;-0.1571359932422638;-0.13468798995018005;1.2102400064468384;-7.940625190734863;-35.0;-44.415000915527344
1963;0.0;0.0;0.0;-0.1571359932422638;-0.0878399983048439;1.2151199579238892;0.0;0.0;0.0
1965;0.0;0.0;0.0;-0.1454239934682846;-0.09955199807882309;1.2063360214233398;0.0;0.0;0.0
1967;0.0;0.0;0.0;-0.13468798995018005;-0.09564799815416336;1.1780319213867188;0.0;0.0;0.0
1969;-0.26449599862098694;0.028547998517751694;1.070915937423706;-0.1268799901008606;-0.11907199770212173;1.1780319213867188;-12.420624732971191;-34.790000915527344;-42.314998626708984
1972;0.0;0.0;0.0;-0.10345599800348282;-0.02537599951028824;1.1907199621200562;0.0;0.0;0.0
1974;0.0;0.0;0.0;-0.12297599762678146;-0.08393599838018417;1.1868159770965576;0.0;0.0;0.0
1976;0.0;0.0;0.0;-0.115167997777462;-0.06831999868154526;1.1858400106430054;0.0;0.0;0.0
1978;-0.24180398881435394;0.05953599885106087;1.0616439580917358;-0.1268799901008606;-0.044895999133586884;1.2024319171905518;-16.200624465942383;-33.599998474121094;-41.19499969482422
1980;0.0;0.0;0.0;-0.09564799815416336;-0.08393599838018417;1.1741279363632202;0.0;0.0;0.0
1982;0.0;0.0;0.0;-0.115167997777462;-0.07612799853086472;1.1907199621200562;0.0;0.0;0.0
1984;0.0;0.0;0.0;-0.09955199807882309;-0.04879999905824661;1.2063360214233398;0.0;0.0;0.0
1986;-0.21862399578094482;0.07002799957990646;1.0574959516525269;-0.08393599838018417;-0.09174399822950363;1.1858400106430054;-17.950624465942383;-32.060001373291016;-40.07500076293945
1989;0.0;0.0;0.0;-0.06831999868154526;-0.009759999811649323;1.2307360172271729;0.0;0.0;0.0
1991;0.0;0.0;0.0;-0.11126399785280228;-0.02147199958562851;1.2102400064468384;0.0;0.0;0.0
1993;0.0;0.0;0.0;-0.09955199807882309;0.013663999736309052;1.2102400064468384;0.0;0.0;0.0
1995;-0.20739999413490295;0.1193159967660904;1.0809199810028076;-0.07612799853086472;0.013663999736309052;1.2229279279708862;-17.18062400817871;-29.540000915527344;-36.92499923706055
1997;0.0;0.0;0.0;-0.08393599838018417;0.0019519999623298645;1.2229279279708862;0.0;0.0;0.0
1999;0.0;0.0;0.0;-0.08393599838018417;0.0331839993596077;1.2190239429473877;0.0;0.0;0.0
2001;0.0;0.0;0.0;-0.0878399983048439;0.02537599951028824;1.2229279279708862;0.0;0.0;0.0
2003;-0.20032399892807007;0.15225599706172943;1.0843359231948853;-0.04879999905824661;0.029279999434947968;1.1907199621200562;-15.290624618530273;-27.649999618530273;-33.98500061035156
2006;0.0;0.0;0.0;-0.06441599875688553;0.02537599951028824;1.1985279321670532;0.0;0.0;0.0
2008;0.0;0.0;0.0;-0.06441599875688553;0.05660799890756607;1.2024319171905518;0.0;0.0;0.0
2010;0.0;0.0;0.0;-0.08003199845552444;0.029279999434947968;1.2268320322036743;0.0;0.0;0.0
2012;-0.18836799263954163;0.16738399863243103;1.081164002418518;-0.08003199845552444;0.037087999284267426;1.1946239471435547;-10.530624389648438;-25.760000228881836;-30.415000915527344
2014;0.0;0.0;0.0;-0.040991999208927155;0.06441599875688553;1.2268320322036743;0.0;0.0;0.0
2016;0.0;0.0;0.0;-0.05270399898290634;0.08003199845552444;1.2102400064468384;0.0;0.0;0.0
2018;0.0;0.0;0.0;-0.04879999905824661;0.08003199845552444;1.2307360172271729;0.0;0.0;0.0
2020;-0.16957999765872955;0.2088640034198761;1.0948280096054077;-0.040991999208927155;0.10735999792814255;1.2307360172271729;-4.090625286102295;-23.65999984741211;-23.41499900817871
2023;0.0;0.0;0.0;-0.02147199958562851;0.1268799901008606;1.2102400064468384;0.0;0.0;0.0
2025;0.0;0.0;0.0;-0.009759999811649323;0.13859200477600098;1.2307360172271729;0.0;0.0;0.0
2027;0.0;0.0;0.0;-0.009759999811649323;0.16201600432395935;1.2268320322036743;0.0;0.0;0.0
2029;-0.13663999736309052;0.27425599098205566;1.097756028175354;0.01756799966096878;0.17372798919677734;1.2346400022506714;-0.1706250011920929;-21.84000015258789;-14.524999618530273
2031;0.0;0.0;0.0;0.01756799966096878;0.1698240041732788;1.2268320322036743;0.0;0.0;0.0
2033;0.0;0.0;0.0;0.009759999811649323;0.19324800372123718;1.2307360172271729;0.0;0.0;0.0
2035;0.0;0.0;0.0;0.0331839993596077;0.21276798844337463;1.2590399980545044;0.0;0.0;0.0
2037;-0.09149999916553497;0.3189080059528351;1.1062959432601929;0.029279999434947968;0.21276798844337463;1.2346400022506714;-0.7306249737739563;-19.739999771118164;-5.00499963760376
2040;0.0;0.0;0.0;0.029279999434947968;0.19324800372123718;1.2229279279708862;0.0;0.0;0.0
2042;0.0;0.0;0.0;0.09174399822950363;0.2205759882926941;1.2512320280075073;0.0;0.0;0.0
2044;0.0;0.0;0.0;0.06441599875688553;0.20105600357055664;1.2512320280075073;0.0;0.0;0.0
2046;-0.06661199778318405;0.3369639813899994;1.1272799968719482;0.07612799853086472;0.22448000311851501;1.2717279195785522;-3.7406249046325684;-18.270000457763672;5.705000400543213
2048;0.0;0.0;0.0;0.07612799853086472;0.22448000311851501;1.2717279195785522;0.0;0.0;0.0
2050;0.0;0.0;0.0;0.07612799853086472;0.19324800372123718;1.2590399980545044;0.0;0.0;0.0
2052;0.0;0.0;0.0;0.0878399983048439;0.13859200477600098;1.2512320280075073;0.0;0.0;0.0
2054;-0.037331998348236084;0.32793599367141724;1.14655601978302;0.09467199444770813;0.17372798919677734;1.2961280345916748;-6.050625324249268;-18.40999984741211;16.135000228881836
2057;0.0;0.0;0.0;0.13761599361896515;0.2088640034198761;1.2834399938583374;0.0;0.0;0.0
2059;0.0;0.0;0.0;0.16103999316692352;0.20105600357055664;1.3000320196151733;0.0;0.0;0.0
2061;0.0;0.0;0.0;0.14151999354362488;0.19324800372123718;1.3000320196151733;0.0;0.0;0.0
2063;0.01659199967980385;0.3118319809436798;1.1592439413070679;0.14932799339294434;0.1815359890460968;1.2961280345916748;-5.210625171661377;-18.899999618530273;25.795000076293945
2065;0.0;0.0;0.0;0.1844639927148819;0.18934398889541626;1.2961280345916748;0.0;0.0;0.0
2067;0.0;0.0;0.0;0.17665599286556244;0.19715198874473572;1.2795360088348389;0.0;0.0;0.0
2069;0.0;0.0;0.0;0.21569599211215973;0.1698240041732788;1.2590399980545044;0.0;0.0;0.0
2072;0.07295599579811096;0.3042680025100708;1.1428959369659424;0.21569599211215973;0.18544000387191772;1.2678239345550537;-2.760624885559082;-18.270000457763672;33.07500076293945
2074;0.0;0.0;0.0;0.2508319914340973;0.17372798919677734;1.2678239345550537;0.0;0.0;0.0
2076;0.0;0.0;0.0;0.2508319914340973;0.16591998934745789;1.2346400022506714;0.0;0.0;0.0
2078;0.0;0.0;0.0;0.2781600058078766;0.1698240041732788;1.2717279195785522;0.0;0.0;0.0
2080;0.13419999182224274;0.2954840064048767;1.1365519762039185;0.27425599098205566;0.15811198949813843;1.287343978881836;0.6693750023841858;-14.90999984741211;36.224998474121094
2082;0.0;0.0;0.0;0.3054879903793335;0.1698240041732788;1.2922239303588867;0.0;0.0;0.0
2084;0.0;0.0;0.0;0.2820639908313751;0.16201600432395935;1.2756320238113403;0.0;0.0;0.0
2086;0.0;0.0;0.0;0.28596800565719604;0.15811198949813843;1.2678239345550537;0.0;0.0;0.0
2089;0.17470400035381317;0.3054879903793335;1.1536319255828857;0.3054879903793335;0.18544000387191772;1.2961280345916748;3.9593751430511475;-10.640000343322754;38.53499984741211
2091;0.0;0.0;0.0;0.3211039900779724;0.18544000387191772;1.2922239303588867;0.0;0.0;0.0
2093;0.0;0.0;0.0;0.31329599022865295;0.20495998859405518;1.3000320196151733;0.0;0.0;0.0
2095;0.0;0.0;0.0;0.32500800490379333;0.20105600357055664;1.2717279195785522;0.0;0.0;0.0
2097;0.18958799540996552;0.31793197989463806;1.1599760055541992;0.29767999053001404;0.19715198874473572;1.2678239345550537;7.319375038146973;-8.890000343322754;40.14500045776367
2099;0.0;0.0;0.0;0.33671998977661133;0.18544000387191772;1.2717279195785522;0.0;0.0;0.0
2101;0.0;0.0;0.0;0.29767999053001404;0.20105600357055664;1.2717279195785522;0.0;0.0;0.0
2103;0.0;0.0;0.0;0.3328160047531128;0.20105600357055664;1.2756320238113403;0.0;0.0;0.0
2106;0.21081599593162537;0.3286679983139038;1.1433839797973633;0.32891198992729187;0.20495998859405518;1.2678239345550537;11.589375495910645;-8.819999694824219;39.724998474121094
2108;0.0;0.0;0.0;0.34062400460243225;0.2205759882926941;1.2434239387512207;0.0;0.0;0.0
2110;0.0;0.0;0.0;0.3445279896259308;0.21667200326919556;1.2551360130310059;0.0;0.0;0.0
2112;0.0;0.0;0.0;0.33671998977661133;0.24399998784065247;1.2678239345550537;0.0;0.0;0.0
2114;0.22374799847602844;0.35062798857688904;1.1219120025634766;0.3640480041503906;0.236191987991333;1.2473279237747192;15.50937557220459;-9.3100004196167;38.53499984741211
2116;0.0;0.0;0.0;0.3601439893245697;0.24399998784065247;1.2190239429473877;0.0;0.0;0.0
2118;0.0;0.0;0.0;0.3640480041503906;0.2479040026664734;1.2063360214233398;0.0;0.0;0.0
2120;0.0;0.0;0.0;0.3757599890232086;0.24009600281715393;1.1946239471435547;0.0;0.0;0.0
2123;0.24253599345684052;0.3786879777908325;1.0872639417648315;0.36795198917388916;0.2752319872379303;1.1946239471435547;18.099374771118164;-10.079999923706055;37.904998779296875
2125;0.0;0.0;0.0;0.3601439893245697;0.2791360020637512;1.1780319213867188;0.0;0.0;0.0
2127;0.0;0.0;0.0;0.3835679888725281;0.2596159875392914;1.1663199663162231;0.0;0.0;0.0
2129;0.0;0.0;0.0;0.36795198917388916;0.2791360020637512;1.1819360256195068;0.0;0.0;0.0
2131;0.26034799218177795;0.40748000144958496;1.0545679330825806;0.387472003698349;0.3025600016117096;1.1702239513397217;19.42937469482422;-10.079999923706055;38.53499984741211
2133;0.0;0.0;0.0;0.399183988571167;0.3142719864845276;1.1624159812927246;0.0;0.0;0.0
2135;0.0;0.0;0.0;0.40991997718811035;0.29865598678588867;1.1702239513397217;0.0;0.0;0.0
2137;0.0;0.0;0.0;0.4147999882698059;0.3142719864845276;1.1536319255828857;0.0;0.0;0.0
2140;0.29280000925064087;0.4357839822769165;1.02675199508667;0.45286399126052856;0.33769598603248596;1.1536319255828857;20.689374923706055;-9.239999771118164;41.404998779296875
2142;0.0;0.0;0.0;0.45286399126052856;0.33769598603248596;1.1419199705123901;0.0;0.0;0.0
2144;0.0;0.0;0.0;0.4411519765853882;0.3533119857311249;1.1175199747085571;0.0;0.0;0.0
2146;0.0;0.0;0.0;0.46457600593566895;0.33769598603248596;1.1136159896850586;0.0;0.0;0.0
2148;0.34306398034095764;0.460671991109848;0.9886879920959473;0.4840959906578064;0.33769598603248596;1.1009279489517212;22.299375534057617;-6.440000057220459;46.165000915527344
2150;0.0;0.0;0.0;0.4958080053329468;0.3455039858818054;1.0648159980773926;0.0;0.0;0.0
2152;0.0;0.0;0.0;0.4997119903564453;0.33769598603248596;1.060912013053894;0.0;0.0;0.0
2154;0.0;0.0;0.0;0.5504639744758606;0.32207998633384705;1.0648159980773926;0.0;0.0;0.0
2157;0.3984519839286804;0.46921199560165405;0.9386679530143738;0.5231360197067261;0.33769598603248596;1.0521279573440552;23.839374542236328;-0.2800000011920929;50.64500045776367
2159;0.0;0.0;0.0;0.5465599894523621;0.36502400040626526;1.0521279573440552;0.0;0.0;0.0
2161;0.0;0.0;0.0;0.5504639744758606;0.3298879861831665;1.044319987297058;0.0;0.0;0.0
2163;0.0;0.0;0.0;0.5738880038261414;0.3455039858818054;1.0521279573440552;0.0;0.0;0.0
2165;0.4450559914112091;0.4777520000934601;0.9167079925537109;0.5856000185012817;0.3337920010089874;1.036512017250061;25.379375457763672;8.609999656677246;54.845001220703125
2167;0.0;0.0;0.0;0.6090239882469177;0.3416000008583069;1.036512017250061;0.0;0.0;0.0
2169;0.0;0.0;0.0;0.5973119735717773;0.36111998558044434;1.0277279615402222;0.0;0.0;0.0
2171;0.0;0.0;0.0;0.5973119735717773;0.34940800070762634;1.0043039321899414;0.0;0.0;0.0
2174;0.47506800293922424;0.4736039936542511;0.9018239974975586;0.6051200032234192;0.31036800146102905;1.0238239765167236;26.849374771118164;18.1299991607666;58.064998626708984
2176;0.0;0.0;0.0;0.5895040035247803;0.3416000008583069;0.9994239807128906;0.0;0.0;0.0
2178;0.0;0.0;0.0;0.5816959738731384;0.3455039858818054;0.9994239807128906;0.0;0.0;0.0
2180;0.0;0.0;0.0;0.5895040035247803;0.32207998633384705;1.0082080364227295;0.0;0.0;0.0
2182;0.4811680018901825;0.464819997549057;0.8888919949531555;0.6090239882469177;0.3298879861831665;0.9994239807128906;29.439374923706055;26.530000686645508;58.834999084472656
2184;0.0;0.0;0.0;0.6051200032234192;0.32207998633384705;1.019919991493225;0.0;0.0;0.0
2186;0.0;0.0;0.0;0.6012159585952759;0.32598400115966797;1.0326080322265625;0.0;0.0;0.0
2188;0.0;0.0;0.0;0.5856000185012817;0.33769598603248596;1.036512017250061;0.0;0.0;0.0
2191;0.472383975982666;0.46237999200820923;0.901091992855072;0.5934079885482788;0.34940800070762634;1.060912013053894;33.149375915527344;33.11000061035156;57.64500045776367
2193;0.0;0.0;0.0;0.5816959738731384;0.3298879861831665;1.0687199831008911;0.0;0.0;0.0
2195;0.0;0.0;0.0;0.5777919888496399;0.3455039858818054;1.0560319423675537;0.0;0.0;0.0
2197;0.0;0.0;0.0;0.5660799741744995;0.32598400115966797;1.0687199831008911;0.0;0.0;0.0
2199;0.45286399126052856;0.46530798077583313;0.9406200051307678;0.5387519598007202;0.32598400115966797;1.0970239639282227;34.40937423706055;36.68000030517578;56.45500183105469
2201;0.0;0.0;0.0;0.5387519598007202;0.3337920010089874;1.085312008857727;0.0;0.0;0.0
2203;0.0;0.0;0.0;0.5348479747772217;0.3416000008583069;1.1087360382080078;0.0;0.0;0.0
2205;0.0;0.0;0.0;0.5387519598007202;0.32598400115966797;1.10971200466156;0.0;0.0;0.0
2208;0.42163199186325073;0.4631119966506958;0.9696559906005859;0.5114240050315857;0.32207998633384705;1.0970239639282227;33.28937530517578;34.86000061035156;55.125
2210;0.0;0.0;0.0;0.5231360197067261;0.33769598603248596;1.1136159896850586;0.0;0.0;0.0
2212;0.0;0.0;0.0;0.5465599894523621;0.3142719864845276;1.1175199747085571;0.0;0.0;0.0
2214;0.0;0.0;0.0;0.5309439897537231;0.3416000008583069;1.1253279447555542;0.0;0.0;0.0
2216;0.4130919873714447;0.45652398467063904;0.985759973526001;0.5504639744758606;0.3181760013103485;1.1058080196380615;30.90937614440918;27.649999618530273;54.21500015258789
2218;0.0;0.0;0.0;0.5387519598007202;0.32207998633384705;1.1136159896850586;0.0;0.0;0.0
2220;0.0;0.0;0.0;0.5777919888496399;0.32207998633384705;1.1175199747085571;0.0;0.0;0.0
2222;0.0;0.0;0.0;0.5738880038261414;0.29865598678588867;1.1253279447555542;0.0;0.0;0.0
2225;0.4504239857196808;0.45408397912979126;0.9877119660377502;0.5777919888496399;0.29475200176239014;1.1253279447555542;27.059375762939453;19.040000915527344;53.8650016784668
2227;0.0;0.0;0.0;0.6012159585952759;0.3025600016117096;1.1331360340118408;0.0;0.0;0.0
2229;0.0;0.0;0.0;0.5895040035247803;0.3142719864845276;1.1009279489517212;0.0;0.0;0.0
2231;0.0;0.0;0.0;0.5856000185012817;0.29475200176239014;1.1458239555358887;0.0;0.0;0.0
2233;0.48799997568130493;0.43675997853279114;1.0001559257507324;0.6285439729690552;0.2752319872379303;1.1331360340118408;21.24937629699707;12.039999961853027;55.685001373291016
2235;0.0;0.0;0.0;0.636352002620697;0.2791360020637512;1.1419199705123901;0.0;0.0;0.0
2237;0.0;0.0;0.0;0.6324479579925537;0.2479040026664734;1.1380159854888916;0.0;0.0;0.0
2239;0.0;0.0;0.0;0.6402559876441956;0.24399998784065247;1.1419199705123901;0.0;0.0;0.0
2242;0.5187439918518066;0.38600799441337585;1.010159969329834;0.6285439729690552;0.22448000311851501;1.1331360340118408;14.109375;7.490000247955322;60.44499969482422
2244;0.0;0.0;0.0;0.6519680023193359;0.19715198874473572;1.1331360340118408;0.0;0.0;0.0
2246;0.0;0.0;0.0;0.6783199906349182;0.16591998934745789;1.1048319339752197;0.0;0.0;0.0
2248;0.0;0.0;0.0;0.6939359903335571;0.16591998934745789;1.1009279489517212;0.0;0.0;0.0
2250;0.5602239966392517;0.3125639855861664;0.9943000078201294;0.7017439603805542;0.15030398964881897;1.0970239639282227;9.559375762939453;5.110000133514404;65.76499938964844
2252;0.0;0.0;0.0;0.7173599600791931;0.09955199807882309;1.1009279489517212;0.0;0.0;0.0
2254;0.0;0.0;0.0;0.732975959777832;0.09955199807882309;1.0892159938812256;0.0;0.0;0.0
2256;0.0;0.0;0.0;0.7915359735488892;0.08003199845552444;1.0726239681243896;0.0;0.0;0.0
2259;0.6265919804573059;0.22716400027275085;0.9642879962921143;0.7759199738502502;0.05270399898290634;1.0804319381713867;10.539375305175781;6.369999885559082;69.8949966430664
2261;0.0;0.0;0.0;0.7642079591751099;0.037087999284267426;1.0726239681243896;0.0;0.0;0.0
2263;0.0;0.0;0.0;0.7720159888267517;0.009759999811649323;1.0648159980773926;0.0;0.0;0.0
2265;0.0;0.0;0.0;0.8266719579696655;-0.0058559998869895935;1.0726239681243896;0.0;0.0;0.0
2267;0.6627039909362793;0.152988001704216;0.937936007976532;0.8110559582710266;-0.009759999811649323;1.0521279573440552;17.67937469482422;11.899999618530273;71.71499633789062
2269;0.0;0.0;0.0;0.7837280035018921;-0.037087999284267426;1.036512017250061;0.0;0.0;0.0
2271;0.0;0.0;0.0;0.7876319885253906;-0.040991999208927155;1.0238239765167236;0.0;0.0;0.0
2274;0.0;0.0;0.0;0.7915359735488892;-0.037087999284267426;1.012112021446228;0.0;0.0;0.0
2276;0.6583119630813599;0.09442799538373947;0.9164639711380005;0.7603039741516113;-0.10345599800348282;0.9955199956893921;29.439374923706055;18.34000015258789;71.50499725341797
2278;0.0;0.0;0.0;0.7642079591751099;-0.04879999905824661;1.0160160064697266;0.0;0.0;0.0
2280;0.0;0.0;0.0;0.7368800044059753;-0.07612799853086472;0.9877119660377502;0.0;0.0;0.0
2282;0.0;0.0;0.0;0.748591959476471;-0.09955199807882309;0.9877119660377502;0.0;0.0;0.0
2284;0.643671989440918;0.05270399898290634;0.8776679635047913;0.7603039741516113;-0.09955199807882309;0.9877119660377502;44.139373779296875;24.219999313354492;68.1449966430664
2286;0.0;0.0;0.0;0.7368800044059753;-0.06831999868154526;0.9838079810142517;0.0;0.0;0.0
2288;0.0;0.0;0.0;0.725167989730835;-0.0605119988322258;0.9506239891052246;0.0;0.0;0.0
2290;0.0;0.0;0.0;0.7603039741516113;-0.06441599875688553;0.9594079852104187;0.0;0.0;0.0
2293;0.6380599737167358;0.0605119988322258;0.8410679697990417;0.7524960041046143;-0.040991999208927155;0.9515999555587769;57.43937683105469;30.030000686645508;61.98500061035156
2295;0.0;0.0;0.0;0.7446879744529724;-0.037087999284267426;0.9350079894065857;0.0;0.0;0.0
2297;0.0;0.0;0.0;0.7407839894294739;-0.01756799966096878;0.9672159552574158;0.0;0.0;0.0
2299;0.0;0.0;0.0;0.7407839894294739;0.009759999811649323;0.9799039959907532;0.0;0.0;0.0
2301;0.6246399879455566;0.11199599504470825;0.8366760015487671;0.7290719747543335;-0.0019519999623298645;0.9838079810142517;65.69937896728516;33.7400016784668;55.125
2304;0.0;0.0;0.0;0.7212640047073364;0.02147199958562851;0.9672159552574158;0.0;0.0;0.0
2305;0.0;0.0;0.0;0.6978399753570557;0.029279999434947968;0.9594079852104187;0.0;0.0;0.0
2308;0.0;0.0;0.0;0.7173599600791931;0.02147199958562851;0.9877119660377502;0.0;0.0;0.0
2310;0.5836479663848877;0.15567199885845184;0.8476560115814209;0.6783199906349182;0.009759999811649323;0.9711199998855591;66.74937438964844;31.079999923706055;50.154998779296875
2312;0.0;0.0;0.0;0.6558719873428345;0.0058559998869895935;0.9594079852104187;0.0;0.0;0.0
2314;0.0;0.0;0.0;0.6675840020179749;0.029279999434947968;0.9633119702339172;0.0;0.0;0.0
2316;0.0;0.0;0.0;0.6480640172958374;0.029279999434947968;0.9311040043830872;0.0;0.0;0.0
2318;0.5407040119171143;0.15030398964881897;0.8291119933128357;0.6402559876441956;0.01756799966096878;0.9311040043830872;60.86937713623047;22.68000030517578;47.14500045776367
2320;0.0;0.0;0.0;0.6558719873428345;-0.009759999811649323;0.9311040043830872;0.0;0.0;0.0
2322;0.0;0.0;0.0;0.6324479579925537;-0.0019519999623298645;0.9223200082778931;0.0;0.0;0.0
2325;0.0;0.0;0.0;0.6441599726676941;-0.0019519999623298645;0.9027999639511108;0.0;0.0;0.0
2327;0.517524003982544;0.13810399174690247;0.7871440052986145;0.636352002620697;-0.0058559998869895935;0.9027999639511108;50.509376525878906;11.0600004196167;44.625
2329;0.0;0.0;0.0;0.6324479579925537;-0.0019519999623298645;0.8735199570655823;0.0;0.0;0.0
2331;0.0;0.0;0.0;0.6509919762611389;0.009759999811649323;0.8657119870185852;0.0;0.0;0.0
2333;0.0;0.0;0.0;0.6548959612846375;-0.0058559998869895935;0.8744959831237793;0.0;0.0;0.0
2335;0.5370439887046814;0.13298000395298004;0.7439559698104858;0.6636799573898315;0.009759999811649323;0.8452159762382507;37.62937545776367;0.07000000029802322;42.94499969482422
2337;0.0;0.0;0.0;0.6744160056114197;-0.0331839993596077;0.8374080061912537;0.0;0.0;0.0
2339;0.0;0.0;0.0;0.7056480050086975;-0.029279999434947968;0.8169119954109192;0.0;0.0;0.0
2342;0.0;0.0;0.0;0.7212640047073364;-0.02537599951028824;0.7964159846305847;0.0;0.0;0.0
2344;0.5785239934921265;0.10052800178527832;0.692471981048584;0.7212640047073364;-0.040991999208927155;0.7768959999084473;24.67937469482422;-5.949999809265137;42.73500061035156
2346;0.0;0.0;0.0;0.7134559750556946;-0.05660799890756607;0.7768959999084473;0.0;0.0;0.0
2348;0.0;0.0;0.0;0.725167989730835;-0.115167997777462;0.7359039783477783;0.0;0.0;0.0
2350;0.0;0.0;0.0;0.7134559750556946;-0.10735999792814255;0.7681120038032532;0.0;0.0;0.0
2352;0.6114639639854431;0.03245199844241142;0.6383039951324463;0.7290719747543335;-0.1542080044746399;0.7446879744529724;15.369375228881836;-6.369999885559082;42.94499969482422
2354;0.0;0.0;0.0;0.7603039741516113;-0.15811198949813843;0.7398079633712769;0.0;0.0;0.0
2356;0.0;0.0;0.0;0.7524960041046143;-0.19715198874473572;0.7319999933242798;0.0;0.0;0.0
2359;0.0;0.0;0.0;0.7642079591751099;-0.19715198874473572;0.7319999933242798;0.0;0.0;0.0
2361;0.6326919794082642;-0.04391999915242195;0.5968239903450012;0.7446879744529724;-0.22448000311851501;0.7115039825439453;11.799375534057617;-1.190000057220459;41.05500030517578
2363;0.0;0.0;0.0;0.748591959476471;-0.2479040026664734;0.7075999975204468;0.0;0.0;0.0
2365;0.0;0.0;0.0;0.7603039741516113;-0.20495998859405518;0.7319999933242798;0.0;0.0;0.0
2367;0.0;0.0;0.0;0.725167989730835;-0.24399998784065247;0.7359039783477783;0.0;0.0;0.0
2369;0.6226879954338074;-0.08686399459838867;0.5987759828567505;0.725167989730835;-0.21276798844337463;0.7241919636726379;12.00937557220459;6.300000190734863;36.85499954223633
2371;0.0;0.0;0.0;0.7290719747543335;-0.19715198874473572;0.7807999849319458;0.0;0.0;0.0
2373;0.0;0.0;0.0;0.6900320053100586;-0.2205759882926941;0.7847039699554443;0.0;0.0;0.0
2376;0.0;0.0;0.0;0.6861279606819153;-0.19715198874473572;0.8335039615631104;0.0;0.0;0.0
2378;0.5963360071182251;-0.07930000126361847;0.6644119620323181;0.709551990032196;-0.21276798844337463;0.8452159762382507;11.659375190734863;10.220000267028809;33.42499923706055
2380;0.0;0.0;0.0;0.6666079759597778;-0.23228800296783447;0.8374080061912537;0.0;0.0;0.0
2382;0.0;0.0;0.0;0.7212640047073364;-0.22838398814201355;0.8452159762382507;0.0;0.0;0.0
2384;0.0;0.0;0.0;0.659775972366333;-0.19715198874473572;0.8823039531707764;0.0;0.0;0.0
2386;0.5665680170059204;-0.0878399983048439;0.7273640036582947;0.6666079759597778;-0.21667200326919556;0.8618080019950867;8.999375343322754;9.3100004196167;33.35499954223633
2388;0.0;0.0;0.0;0.6900320053100586;-0.20495998859405518;0.8862079977989197;0.0;0.0;0.0
2390;0.0;0.0;0.0;0.6588000059127808;-0.26742398738861084;0.8823039531707764;0.0;0.0;0.0
2393;0.0;0.0;0.0;0.6666079759597778;-0.236191987991333;0.8988959789276123;0.0;0.0;0.0
2395;0.5509520173072815;-0.10638399422168732;0.7676239609718323;0.6627039909362793;-0.25571200251579285;0.9027999639511108;3.4693751335144043;4.340000152587891;33.21500015258789
2397;0.0;0.0;0.0;0.6822239756584167;-0.2791360020637512;0.9027999639511108;0.0;0.0;0.0
2399;0.0;0.0;0.0;0.6705119609832764;-0.2869440019130707;0.9067040085792542;0.0;0.0;0.0
2401;0.0;0.0;0.0;0.6861279606819153;-0.3142719864845276;0.8783999681472778;0.0;0.0;0.0
2403;0.5624200105667114;-0.16884799301624298;0.7768959999084473;0.6900320053100586;-0.36111998558044434;0.9271999597549438;-3.460624933242798;-2.5199999809265137;31.255001068115234
2406;0.0;0.0;0.0;0.6822239756584167;-0.34940800070762634;0.9027999639511108;0.0;0.0;0.0
2407;0.0;0.0;0.0;0.7056480050086975;-0.36502400040626526;0.9106079936027527;0.0;0.0;0.0
2410;0.0;0.0;0.0;0.6861279606819153;-0.3845439851284027;0.9067040085792542;0.0;0.0;0.0
2412;0.5736439824104309;-0.23375199735164642;0.782263994216919;0.7173599600791931;-0.41967999935150146;0.8862079977989197;-9.060625076293945;-8.609999656677246;27.755001068115234
