Timestamp(ms);LG-Accel x(g);LG-Accel y(g);LG-Accel z(g);HG-Accel x(g);HG-Accel y(g);HG-Accel z(g);Gyro x(dps);Gyro y(dps);Gyro z(dps)
55;0.0;0.0;0.0;0.4714079797267914;0.12199999392032623;1.0404160022735596;0.0;0.0;0.0
57;0.0;0.0;0.0;0.5026400089263916;0.11419199407100677;1.0316319465637207;0.0;0.0;0.0
59;0.0;0.0;0.0;0.49483197927474976;0.12590399384498596;1.0160160064697266;0.0;0.0;0.0
62;0.0;0.0;0.0;0.48311999440193176;0.10638399422168732;0.9955199956893921;0.0;0.0;0.0
64;0.0;0.0;0.0;0.47921597957611084;0.10638399422168732;1.0033279657363892;0.0;0.0;0.0
66;0.0;0.0;0.0;0.47433599829673767;0.08881600201129913;0.9769759774208069;0.0;0.0;0.0
68;0.0;0.0;0.0;0.47433599829673767;0.12004800140857697;0.985759973526001;0.0;0.0;0.0
70;0.0;0.0;0.0;0.521183967590332;0.07320000231266022;0.944767951965332;0.0;0.0;0.0
72;0.3803959786891937;0.22033199667930603;0.8449719548225403;0.47433599829673767;0.08881600201129913;0.9486719965934753;0.0;0.0;0.0
74;0.0;0.0;0.0;0.4938559830188751;0.057583998888731;0.9574559926986694;0.0;0.0;0.0
76;0.0;0.0;0.0;0.5094720125198364;0.057583998888731;0.936959981918335;0.0;0.0;0.0
79;0.0;0.0;0.0;0.5172799825668335;0.057583998888731;0.9730719923973083;0.0;0.0;0.0
81;0.3879599869251251;0.18958799540996552;0.8176440000534058;0.5094720125198364;0.0302559994161129;0.936959981918335;0.0;0.0;0.0
83;0.0;0.0;0.0;0.5094720125198364;0.049775999039411545;0.9574559926986694;0.0;0.0;0.0
85;0.0;0.0;0.0;0.4626239836215973;0.07320000231266022;0.9486719965934753;0.0;0.0;0.0
87;0.0;0.0;0.0;0.48604798316955566;0.045871999114751816;0.9408639669418335;0.0;0.0;0.0
89;0.3718560039997101;0.17494799196720123;0.8210600018501282;0.48604798316955566;0.06539200246334076;0.944767951965332;0.0;0.0;0.0
91;0.0;0.0;0.0;0.44310399889945984;0.04196799919009209;0.9730719923973083;0.0;0.0;0.0
93;0.0;0.0;0.0;0.48214399814605713;0.049775999039411545;0.9730719923973083;0.0;0.0;0.0
96;0.0;0.0;0.0;0.4782399833202362;0.02635199949145317;0.9652639627456665;0.0;0.0;0.0
98;0.3513599932193756;0.1705559939146042;0.8410679697990417;0.47043198347091675;0.03806399926543236;0.9896639585494995;0.0;0.0;0.0
100;0.0;0.0;0.0;0.45481598377227783;0.0302559994161129;1.0013760328292847;0.0;0.0;0.0
102;0.0;0.0;0.0;0.47043198347091675;0.03415999934077263;1.0013760328292847;0.0;0.0;0.0
104;0.0;0.0;0.0;0.4470079839229584;0.057583998888731;1.010159969329834;0.0;0.0;0.0
106;0.3362320065498352;0.17348399758338928;0.8693720102310181;0.4352959990501404;0.049775999039411545;1.0013760328292847;0.0;0.0;0.0
108;0.0;0.0;0.0;0.43139198422431946;0.057583998888731;1.0296800136566162;0.0;0.0;0.0
111;0.0;0.0;0.0;0.4470079839229584;0.045871999114751816;1.042367935180664;0.0;0.0;0.0
113;0.0;0.0;0.0;0.44310399889945984;0.04196799919009209;1.0335839986801147;0.0;0.0;0.0
115;0.3252519965171814;0.1827559918165207;0.9018239974975586;0.4391999840736389;0.07320000231266022;1.042367935180664;20.4793758392334;33.64375305175781;7.525000095367432
117;0.0;0.0;0.0;0.43139198422431946;0.06148799881339073;1.0589599609375;0.0;0.0;0.0
119;0.0;0.0;0.0;0.43139198422431946;0.06148799881339073;1.0540800094604492;0.0;0.0;0.0
121;0.0;0.0;0.0;0.4274879992008209;0.053679998964071274;1.0784800052642822;0.0;0.0;0.0
123;0.3152479827404022;0.1849519908428192;0.9281759858131409;0.4050399959087372;0.049775999039411545;1.0745760202407837;17.329376220703125;30.91374969482422;7.595000267028809
126;0.0;0.0;0.0;0.4050399959087372;0.0302559994161129;1.0784800052642822;0.0;0.0;0.0
127;0.0;0.0;0.0;0.4274879992008209;0.057583998888731;1.0706720352172852;0.0;0.0;0.0
130;0.0;0.0;0.0;0.4274879992008209;-0.00878399983048439;1.066767930984497;0.0;0.0;0.0
132;0.2942639887332916;0.16030800342559814;0.9306159615516663;0.40113598108291626;0.045871999114751816;1.0628639459609985;13.829375267028809;25.66374969482422;7.805000305175781
134;0.0;0.0;0.0;0.3816159963607788;0.08100800216197968;1.0628639459609985;0.0;0.0;0.0
136;0.0;0.0;0.0;0.38551998138427734;0.049775999039411545;1.1067839860916138;0.0;0.0;0.0
138;0.0;0.0;0.0;0.3972319960594177;0.006831999868154526;1.0384639501571655;0.0;0.0;0.0
140;0.268887996673584;0.1722639948129654;0.928663969039917;0.37380799651145935;0.022447999566793442;1.0257760286331177;10.749375343322754;18.66374969482422;7.595000267028809
143;0.0;0.0;0.0;0.40406399965286255;0.010735999792814255;1.0257760286331177;0.0;0.0;0.0
145;0.0;0.0;0.0;0.38942399621009827;-0.028303999453783035;1.010159969329834;0.0;0.0;0.0
147;0.0;0.0;0.0;0.37380799651145935;-0.0009759999811649323;1.0062559843063354;0.0;0.0;0.0
149;0.2664479911327362;0.12809999287128448;0.8825479745864868;0.3972319960594177;-0.04391999915242195;0.985759973526001;7.039374828338623;11.873749732971191;7.175000190734863
151;0.0;0.0;0.0;0.3933279812335968;-0.028303999453783035;0.9935680031776428;0.0;0.0;0.0
153;0.0;0.0;0.0;0.36209598183631897;-0.03611199930310249;0.944767951965332;0.0;0.0;0.0
155;0.0;0.0;0.0;0.40113598108291626;-0.05563199892640114;0.9486719965934753;0.0;0.0;0.0
157;0.2613239884376526;0.0907679945230484;0.8259400129318237;0.4079679846763611;-0.04391999915242195;0.936959981918335;5.919374942779541;6.413749694824219;5.565000057220459
159;0.0;0.0;0.0;0.3777119815349579;-0.05563199892640114;0.9330559968948364;0.0;0.0;0.0
162;0.0;0.0;0.0;0.3972319960594177;-0.04782399907708168;0.9291520118713379;0.0;0.0;0.0
164;0.0;0.0;0.0;0.40406399965286255;-0.05563199892640114;0.9486719965934753;0.0;0.0;0.0
166;0.2769399881362915;0.07905599474906921;0.8017839789390564;0.41967999935150146;-0.0634399950504303;0.9242720007896423;5.849374771118164;3.6137499809265137;3.5349998474121094
168;0.0;0.0;0.0;0.40113598108291626;-0.05953599885106087;0.9330559968948364;0.0;0.0;0.0
170;0.0;0.0;0.0;0.44310399889945984;-0.05953599885106087;0.920367956161499;0.0;0.0;0.0
172;0.0;0.0;0.0;0.4509119987487793;-0.06734399497509003;0.912559986114502;0.0;0.0;0.0
174;0.31158798933029175;0.07246799767017365;0.7922679781913757;0.43139198422431946;-0.04391999915242195;0.920367956161499;4.939374923706055;3.963750123977661;3.3949999809265137
177;0.0;0.0;0.0;0.44310399889945984;-0.07124799489974976;0.8920639753341675;0.0;0.0;0.0
179;0.0;0.0;0.0;0.45871999859809875;-0.05172799900174141;0.895967960357666;0.0;0.0;0.0
181;0.0;0.0;0.0;0.4626239836215973;-0.05172799900174141;0.8764479756355286;0.0;0.0;0.0
183;0.3391599953174591;0.07075999677181244;0.7622559666633606;0.45871999859809875;-0.07124799489974976;0.8637599945068359;3.8893749713897705;7.323750019073486;5.144999980926514
185;0.0;0.0;0.0;0.4626239836215973;-0.08295999467372894;0.8520479798316956;0.0;0.0;0.0
187;0.0;0.0;0.0;0.49775999784469604;-0.07515199482440948;0.8393599987030029;0.0;0.0;0.0
189;0.0;0.0;0.0;0.4782399833202362;-0.07905599474906921;0.8393599987030029;0.0;0.0;0.0
191;0.36038798093795776;0.0605119988322258;0.7166280150413513;0.513375997543335;-0.10638399422168732;0.8149600028991699;4.939374923706055;12.083749771118164;6.545000076293945
194;0.0;0.0;0.0;0.5094720125198364;-0.12590399384498596;0.8276479840278625;0.0;0.0;0.0
196;0.0;0.0;0.0;0.5172799825668335;-0.12590399384498596;0.8110559582710266;0.0;0.0;0.0
198;0.0;0.0;0.0;0.5055679678916931;-0.1298079937696457;0.8071519732475281;0.0;0.0;0.0
200;0.38478800654411316;0.019763998687267303;0.6895439624786377;0.5250880122184753;-0.1180959939956665;0.8432639837265015;6.759375095367432;19.363750457763672;7.735000133514404
202;0.0;0.0;0.0;0.5016639828681946;-0.13371199369430542;0.8276479840278625;0.0;0.0;0.0
204;0.0;0.0;0.0;0.4899519979953766;-0.12590399384498596;0.8598560094833374;0.0;0.0;0.0
206;0.0;0.0;0.0;0.5055679678916931;-0.13761599361896515;0.871567964553833;0.0;0.0;0.0
208;0.39649999141693115;0.0019519999623298645;0.725167989730835;0.5094720125198364;-0.13761599361896515;0.8637599945068359;6.479374885559082;26.853750228881836;9.135000228881836
211;0.0;0.0;0.0;0.5172799825668335;-0.16884799301624298;0.8998720049858093;0.0;0.0;0.0
213;0.0;0.0;0.0;0.521183967590332;-0.18055999279022217;0.8920639753341675;0.0;0.0;0.0
215;0.0;0.0;0.0;0.5016639828681946;-0.18055999279022217;0.9242720007896423;0.0;0.0;0.0
217;0.3857640027999878;-0.04440800100564957;0.7700639963150024;0.536799967288971;-0.2117919921875;0.9330559968948364;4.449375152587891;31.9637508392334;9.555000305175781
219;0.0;0.0;0.0;0.49775999784469604;-0.18836799263954163;0.9242720007896423;0.0;0.0;0.0
221;0.0;0.0;0.0;0.4782399833202362;-0.21959999203681946;0.912559986114502;0.0;0.0;0.0
223;0.0;0.0;0.0;0.4899519979953766;-0.23131199181079865;0.9535520076751709;0.0;0.0;0.0
225;0.36917200684547424;-0.08540000021457672;0.8032479882240295;0.47433599829673767;-0.17665599286556244;0.9242720007896423;2.349375009536743;33.573753356933594;10.954999923706055
228;0.0;0.0;0.0;0.4626239836215973;-0.18055999279022217;0.9730719923973083;0.0;0.0;0.0
230;0.0;0.0;0.0;0.4938559830188751;-0.19227199256420135;0.9730719923973083;0.0;0.0;0.0
232;0.0;0.0;0.0;0.5289919972419739;-0.23131199181079865;0.985759973526001;0.0;0.0;0.0
234;0.3640480041503906;-0.06905199587345123;0.8474119901657104;0.4782399833202362;-0.2391199916601181;0.9691680073738098;-0.590624988079071;33.993751525878906;13.895000457763672
236;0.0;0.0;0.0;0.44310399889945984;-0.23521599173545837;1.0257760286331177;0.0;0.0;0.0
238;0.0;0.0;0.0;0.4470079839229584;-0.24692799150943756;0.9896639585494995;0.0;0.0;0.0
240;0.0;0.0;0.0;0.4626239836215973;-0.2508319914340973;1.010159969329834;0.0;0.0;0.0
242;0.3333039879798889;-0.10735999792814255;0.8801079988479614;0.43139198422431946;-0.2781600058078766;1.0218719244003296;-4.020625114440918;34.76375198364258;16.204999923706055
245;0.0;0.0;0.0;0.4391999840736389;-0.2781600058078766;1.0296800136566162;0.0;0.0;0.0
247;0.0;0.0;0.0;0.411871999502182;-0.3211039900779724;1.0257760286331177;0.0;0.0;0.0
249;0.0;0.0;0.0;0.41284799575805664;-0.28596800565719604;1.042367935180664;0.0;0.0;0.0
251;0.30353599786758423;-0.15957599878311157;0.8954799771308899;0.3777119815349579;-0.32891198992729187;1.0462720394134521;-5.770625114440918;34.34375;15.71500015258789
253;0.0;0.0;0.0;0.3777119815349579;-0.3054879903793335;1.0296800136566162;0.0;0.0;0.0
255;0.0;0.0;0.0;0.38551998138427734;-0.32891198992729187;1.0501760244369507;0.0;0.0;0.0
257;0.0;0.0;0.0;0.37380799651145935;-0.32891198992729187;1.0540800094604492;0.0;0.0;0.0
259;0.2566879987716675;-0.20471599698066711;0.912559986114502;0.350383996963501;-0.36795198917388916;1.0218719244003296;-5.350625038146973;33.0837516784668;14.315000534057617
262;0.0;0.0;0.0;0.35819199681282043;-0.3640480041503906;1.0384639501571655;0.0;0.0;0.0
264;0.0;0.0;0.0;0.3542879819869995;-0.3601439893245697;1.034559965133667;0.0;0.0;0.0
266;0.0;0.0;0.0;0.3386719822883606;-0.3640480041503906;1.0384639501571655;0.0;0.0;0.0
268;0.21959999203681946;-0.23668000102043152;0.9101200103759766;0.31915199756622314;-0.3835679888725281;1.066767930984497;-3.8106250762939453;30.63374900817871;11.654999732971191
270;0.0;0.0;0.0;0.30353599786758423;-0.39137598872184753;1.0462720394134521;0.0;0.0;0.0
272;0.0;0.0;0.0;0.30743998289108276;-0.399183988571167;1.0501760244369507;0.0;0.0;0.0
274;0.0;0.0;0.0;0.29182398319244385;-0.387472003698349;1.0745760202407837;0.0;0.0;0.0
276;0.18104799091815948;-0.2566879987716675;0.9289079904556274;0.28011199831962585;-0.39528000354766846;1.0872639417648315;-2.200624942779541;27.9737491607666;7.105000019073486
279;0.0;0.0;0.0;0.27620798349380493;-0.39528000354766846;1.0745760202407837;0.0;0.0;0.0
281;0.0;0.0;0.0;0.2566879987716675;-0.4382239878177643;1.1116639375686646;0.0;0.0;0.0
283;0.0;0.0;0.0;0.26449599862098694;-0.4030880033969879;1.1067839860916138;0.0;0.0;0.0
285;0.14566799998283386;-0.2683999836444855;0.9640439748764038;0.22155199944972992;-0.387472003698349;1.1233760118484497;-2.690624952316284;26.153749465942383;3.3949999809265137
287;0.0;0.0;0.0;0.23716799914836884;-0.43432000279426575;1.0989760160446167;0.0;0.0;0.0
289;0.0;0.0;0.0;0.2176479995250702;-0.4108960032463074;1.09116792678833;0.0;0.0;0.0
291;0.0;0.0;0.0;0.205935999751091;-0.4382239878177643;1.1028800010681152;0.0;0.0;0.0
293;0.09027999639511108;-0.28669998049736023;0.9767319560050964;0.17470400035381317;-0.42260798811912537;1.1116639375686646;-3.6006250381469727;24.053749084472656;1.225000023841858
296;0.0;0.0;0.0;0.15615999698638916;-0.4265120029449463;1.1311839818954468;0.0;0.0;0.0
298;0.0;0.0;0.0;0.12492799758911133;-0.4382239878177643;1.115567922592163;0.0;0.0;0.0
300;0.0;0.0;0.0;0.1327359974384308;-0.42260798811912537;1.1360639333724976;0.0;0.0;0.0
302;0.016103999689221382;-0.29109200835227966;0.9960079789161682;0.12883199751377106;-0.39137598872184753;1.1643680334091187;-4.930624961853027;20.203750610351562;-0.24500000476837158
304;0.0;0.0;0.0;0.11711999773979187;-0.399183988571167;1.1438720226287842;0.0;0.0;0.0
306;0.0;0.0;0.0;0.0663679987192154;-0.4265120029449463;1.1594879627227783;0.0;0.0;0.0
308;0.0;0.0;0.0;0.0663679987192154;-0.4265120029449463;1.1594879627227783;0.0;0.0;0.0
310;-0.037087999284267426;-0.2757200002670288;1.0245559215545654;0.027327999472618103;-0.43432000279426575;1.1799839735031128;-7.240624904632568;13.623749732971191;-0.5250000357627869
313;0.0;0.0;0.0;0.05075199902057648;-0.43432000279426575;1.1682720184326172;0.0;0.0;0.0
315;0.0;0.0;0.0;0.04294399917125702;-0.42260798811912537;1.1877919435501099;0.0;0.0;0.0
317;0.0;0.0;0.0;0.031231999397277832;-0.41870400309562683;1.2043839693069458;0.0;0.0;0.0
319;-0.09467199444770813;-0.2949959933757782;1.050663948059082;0.003903999924659729;-0.41870400309562683;1.1838879585266113;-9.690625190734863;7.043749809265137;0.3850000202655792
321;0.0;0.0;0.0;0.007807999849319458;-0.42260798811912537;1.1965759992599487;0.0;0.0;0.0
323;0.0;0.0;0.0;0.007807999849319458;-0.4421280026435852;1.1682720184326172;0.0;0.0;0.0
325;0.0;0.0;0.0;0.0;-0.44603198766708374;1.1643680334091187;0.0;0.0;0.0
327;-0.10931199789047241;-0.32549598813056946;1.0499320030212402;0.019519999623298645;-0.4811680018901825;1.1594879627227783;-11.020625114440918;0.7437500357627869;1.3650000095367432
330;0.0;0.0;0.0;0.04294399917125702;-0.4694559872150421;1.1682720184326172;0.0;0.0;0.0
332;0.0;0.0;0.0;0.019519999623298645;-0.4928799867630005;1.1682720184326172;0.0;0.0;0.0
334;0.0;0.0;0.0;0.04294399917125702;-0.48897600173950195;1.1516799926757812;0.0;0.0;0.0
336;-0.10223599523305893;-0.34989598393440247;1.0311440229415894;0.015615999698638916;-0.4967840015888214;1.1555839776992798;-9.970624923706055;-3.596250057220459;2.8350000381469727
338;0.0;0.0;0.0;0.003903999924659729;-0.5084959864616394;1.1643680334091187;0.0;0.0;0.0
340;0.0;0.0;0.0;0.019519999623298645;-0.5241119861602783;1.1516799926757812;0.0;0.0;0.0
342;0.0;0.0;0.0;0.023423999547958374;-0.5280159711837769;1.1311839818954468;0.0;0.0;0.0
344;-0.10979999601840973;-0.37966400384902954;1.019919991493225;0.019519999623298645;-0.5436319708824158;1.1633919477462769;-7.800624847412109;-4.646250247955322;4.585000038146973
347;0.0;0.0;0.0;0.023423999547958374;-0.5475360155105591;1.1438720226287842;0.0;0.0;0.0
349;0.0;0.0;0.0;0.019519999623298645;-0.5397279858589172;1.1477760076522827;0.0;0.0;0.0
351;0.0;0.0;0.0;0.027327999472618103;-0.5475360155105591;1.1643680334091187;0.0;0.0;0.0
353;-0.10589599609375;-0.40943199396133423;1.0228480100631714;0.031231999397277832;-0.5514400005340576;1.1643680334091187;-5.560625076293945;-2.8262500762939453;5.425000190734863
355;0.0;0.0;0.0;0.027327999472618103;-0.5436319708824158;1.1721760034561157;0.0;0.0;0.0
357;0.0;0.0;0.0;0.0;-0.5436319708824158;1.1682720184326172;0.0;0.0;0.0
359;0.0;0.0;0.0;0.023423999547958374;-0.5436319708824158;1.1799839735031128;0.0;0.0;0.0
361;-0.10150399804115295;-0.4065040051937103;1.0335839986801147;-0.011711999773979187;-0.5436319708824158;1.1643680334091187;-2.4106249809265137;-0.7962499856948853;6.615000247955322
364;0.0;0.0;0.0;-0.031231999397277832;-0.5592479705810547;1.1594879627227783;0.0;0.0;0.0
366;0.0;0.0;0.0;-0.031231999397277832;-0.5397279858589172;1.1965759992599487;0.0;0.0;0.0
368;0.0;0.0;0.0;-0.04294399917125702;-0.5319200158119202;1.1926720142364502;0.0;0.0;0.0
370;-0.14981599152088165;-0.3945479989051819;1.0543240308761597;-0.0663679987192154;-0.5241119861602783;1.1887680292129517;-0.940625011920929;0.1837499886751175;8.015000343322754
372;0.0;0.0;0.0;-0.07320000231266022;-0.5280159711837769;1.2209759950637817;0.0;0.0;0.0
374;0.0;0.0;0.0;-0.13566400110721588;-0.5045920014381409;1.2209759950637817;0.0;0.0;0.0
376;0.0;0.0;0.0;-0.10443200170993805;-0.5358240008354187;1.2043839693069458;0.0;0.0;0.0
378;-0.2176479995250702;-0.3882039785385132;1.0777479410171509;-0.1395680010318756;-0.5358240008354187;1.2004799842834473;-1.92062509059906;-1.216249942779541;7.664999961853027
381;0.0;0.0;0.0;-0.1239520013332367;-0.5358240008354187;1.2365919351577759;0.0;0.0;0.0
383;0.0;0.0;0.0;-0.1395680010318756;-0.5514400005340576;1.2209759950637817;0.0;0.0;0.0
385;0.0;0.0;0.0;-0.18251200020313263;-0.5787680149078369;1.2004799842834473;0.0;0.0;0.0
387;-0.27425599098205566;-0.4135800004005432;1.0867760181427002;-0.19422399997711182;-0.5553439855575562;1.2004799842834473;-4.020625114440918;-2.476249933242798;3.744999885559082
389;0.0;0.0;0.0;-0.1903200000524521;-0.5943840146064758;1.2209759950637817;0.0;0.0;0.0
391;0.0;0.0;0.0;-0.19812799990177155;-0.5397279858589172;1.2287839651107788;0.0;0.0;0.0
393;0.0;0.0;0.0;-0.2332639992237091;-0.5826719999313354;1.2082879543304443;0.0;0.0;0.0
395;-0.32842400670051575;-0.43505197763442993;1.0960479974746704;-0.2176479995250702;-0.5709599852561951;1.2209759950637817;-5.910624980926514;-5.136250019073486;-2.205000162124634
398;0.0;0.0;0.0;-0.2566879987716675;-0.5670560002326965;1.2365919351577759;0.0;0.0;0.0
400;0.0;0.0;0.0;-0.27620798349380493;-0.5553439855575562;1.2365919351577759;0.0;0.0;0.0
402;0.0;0.0;0.0;-0.260591983795166;-0.5358240008354187;1.2404959201812744;0.0;0.0;0.0
404;-0.38381198048591614;-0.4248040020465851;1.0960479974746704;-0.2723039984703064;-0.5592479705810547;1.2170720100402832;-8.360625267028809;-9.89625072479248;-9.765000343322754
406;0.0;0.0;0.0;-0.2996319830417633;-0.5397279858589172;1.2209759950637817;0.0;0.0;0.0
408;0.0;0.0;0.0;-0.2996319830417633;-0.5202080011367798;1.2248799800872803;0.0;0.0;0.0
410;0.0;0.0;0.0;-0.3152479827404022;-0.48507198691368103;1.2170720100402832;0.0;0.0;0.0
412;-0.4228519797325134;-0.38137200474739075;1.0923880338668823;-0.3269599974155426;-0.5006880164146423;1.2043839693069458;-13.120625495910645;-17.036251068115234;-16.69499969482422
415;0.0;0.0;0.0;-0.3152479827404022;-0.47336000204086304;1.2170720100402832;0.0;0.0;0.0
417;0.0;0.0;0.0;-0.3152479827404022;-0.47336000204086304;1.2043839693069458;0.0;0.0;0.0
419;0.0;0.0;0.0;-0.31915199756622314;-0.4694559872150421;1.2004799842834473;0.0;0.0;0.0
421;-0.44139599800109863;-0.3357439935207367;1.0760400295257568;-0.29572799801826477;-0.47336000204086304;1.2043839693069458;-20.05062484741211;-21.936250686645508;-23.204999923706055
423;0.0;0.0;0.0;-0.3152479827404022;-0.4304159879684448;1.1682720184326172;0.0;0.0;0.0
425;0.0;0.0;0.0;-0.29572799801826477;-0.42260798811912537;1.1760799884796143;0.0;0.0;0.0
427;0.0;0.0;0.0;-0.33086398243904114;-0.41870400309562683;1.1594879627227783;0.0;0.0;0.0
429;-0.44773998856544495;-0.2915799915790558;1.0509079694747925;-0.30353599786758423;-0.4304159879684448;1.1721760034561157;-25.510623931884766;-24.176250457763672;-27.7549991607666
432;0.0;0.0;0.0;-0.33086398243904114;-0.39137598872184753;1.1721760034561157;0.0;0.0;0.0
434;0.0;0.0;0.0;-0.30743998289108276;-0.399183988571167;1.1594879627227783;0.0;0.0;0.0
436;0.0;0.0;0.0;-0.3113439977169037;-0.399183988571167;1.1838879585266113;0.0;0.0;0.0
438;-0.43675997853279114;-0.26083600521087646;1.0357799530029297;-0.3113439977169037;-0.37966400384902954;1.1760799884796143;-28.240623474121094;-25.296249389648438;-30.69499969482422
440;0.0;0.0;0.0;-0.31915199756622314;-0.3757599890232086;1.1799839735031128;0.0;0.0;0.0
442;0.0;0.0;0.0;-0.2996319830417633;-0.3601439893245697;1.1760799884796143;0.0;0.0;0.0
444;0.0;0.0;0.0;-0.31915199756622314;-0.36795198917388916;1.1887680292129517;0.0;0.0;0.0
446;-0.44359198212623596;-0.23204399645328522;1.0496879816055298;-0.34940800070762634;-0.3211039900779724;1.1799839735031128;-28.66062355041504;-26.556249618530273;-31.46500015258789
449;0.0;0.0;0.0;-0.33769598603248596;-0.3484320044517517;1.2170720100402832;0.0;0.0;0.0
451;0.0;0.0;0.0;-0.3533119857311249;-0.32891198992729187;1.2170720100402832;0.0;0.0;0.0
453;0.0;0.0;0.0;-0.36111998558044434;-0.3172000050544739;1.2365919351577759;0.0;0.0;0.0
455;-0.4736039936542511;-0.1954440027475357;1.0826280117034912;-0.3728320002555847;-0.2781600058078766;1.2453759908676147;-28.310625076293945;-27.676250457763672;-31.604999542236328
457;0.0;0.0;0.0;-0.3962559998035431;-0.3054879903793335;1.2326879501342773;0.0;0.0;0.0
459;0.0;0.0;0.0;-0.36111998558044434;-0.3172000050544739;1.2326879501342773;0.0;0.0;0.0
461;0.0;0.0;0.0;-0.3806400001049042;-0.30158400535583496;1.2248799800872803;0.0;0.0;0.0
463;-0.5011759996414185;-0.17885199189186096;1.099463939666748;-0.3962559998035431;-0.2898719906806946;1.2287839651107788;-27.68062400817871;-29.7762508392334;-31.885000228881836
466;0.0;0.0;0.0;-0.3806400001049042;-0.25863999128341675;1.2248799800872803;0.0;0.0;0.0
468;0.0;0.0;0.0;-0.3728320002555847;-0.29767999053001404;1.2365919351577759;0.0;0.0;0.0
470;0.0;0.0;0.0;-0.423583984375;-0.24692799150943756;1.2492799758911133;0.0;0.0;0.0
472;-0.5194759964942932;-0.14883999526500702;1.1080039739608765;-0.41577598452568054;-0.2547360062599182;1.2414720058441162;-26.490623474121094;-33.346248626708984;-31.815000534057617
474;0.0;0.0;0.0;-0.3962559998035431;-0.2391199916601181;1.2365919351577759;0.0;0.0;0.0
476;0.0;0.0;0.0;-0.423583984375;-0.23131199181079865;1.2570879459381104;0.0;0.0;0.0
478;0.0;0.0;0.0;-0.37673598527908325;-0.2391199916601181;1.2492799758911133;0.0;0.0;0.0
480;-0.532651960849762;-0.10638399422168732;1.1145919561386108;-0.4079679846763611;-0.21959999203681946;1.2414720058441162;-26.630624771118164;-37.05624771118164;-31.2549991607666
483;0.0;0.0;0.0;-0.39235198497772217;-0.23131199181079865;1.2414720058441162;0.0;0.0;0.0
485;0.0;0.0;0.0;-0.4001599848270416;-0.1844639927148819;1.2531839609146118;0.0;0.0;0.0
487;0.0;0.0;0.0;-0.39235198497772217;-0.2000799924135208;1.2453759908676147;0.0;0.0;0.0
489;-0.522159993648529;-0.07588399946689606;1.1165440082550049;-0.3806400001049042;-0.19227199256420135;1.2453759908676147;-28.380624771118164;-39.506248474121094;-29.645000457763672
491;0.0;0.0;0.0;-0.3728320002555847;-0.2235039919614792;1.2326879501342773;0.0;0.0;0.0
493;0.0;0.0;0.0;-0.3728320002555847;-0.20788799226284027;1.2365919351577759;0.0;0.0;0.0
495;0.0;0.0;0.0;-0.3728320002555847;-0.23131199181079865;1.2160959243774414;0.0;0.0;0.0
497;-0.5053240060806274;-0.08369199931621552;1.1009279489517212;-0.36111998558044434;-0.2235039919614792;1.2170720100402832;-29.150623321533203;-39.436248779296875;-28.174999237060547
500;0.0;0.0;0.0;-0.3806400001049042;-0.26254400610923767;1.1965759992599487;0.0;0.0;0.0
502;0.0;0.0;0.0;-0.3806400001049042;-0.2508319914340973;1.1682720184326172;0.0;0.0;0.0
504;0.0;0.0;0.0;-0.34940800070762634;-0.27035200595855713;1.1799839735031128;0.0;0.0;0.0
506;-0.48141199350357056;-0.11736399680376053;1.0472480058670044;-0.3533119857311249;-0.2508319914340973;1.1311839818954468;-25.09062385559082;-38.38624954223633;-28.104999542236328
508;0.0;0.0;0.0;-0.3230559825897217;-0.26254400610923767;1.139967918395996;0.0;0.0;0.0
510;0.0;0.0;0.0;-0.3152479827404022;-0.2820639908313751;1.115567922592163;0.0;0.0;0.0
512;0.0;0.0;0.0;-0.3152479827404022;-0.27035200595855713;1.0989760160446167;0.0;0.0;0.0
515;-0.4472520053386688;-0.14225199818611145;0.9891759753227234;-0.29182398319244385;-0.28596800565719604;1.1116639375686646;-16.060625076293945;-37.19624710083008;-29.155000686645508
517;0.0;0.0;0.0;-0.27620798349380493;-0.27425599098205566;1.0950720310211182;0.0;0.0;0.0
519;0.0;0.0;0.0;-0.28011199831962585;-0.2664479911327362;1.0589599609375;0.0;0.0;0.0
521;0.0;0.0;0.0;-0.27620798349380493;-0.2391199916601181;1.0784800052642822;0.0;0.0;0.0
523;-0.4047960042953491;-0.1320039927959442;0.9503799676895142;-0.260591983795166;-0.24302399158477783;1.0540800094604492;-5.770625114440918;-35.1662483215332;-30.415000915527344
525;0.0;0.0;0.0;-0.24107199907302856;-0.23521599173545837;1.042367935180664;0.0;0.0;0.0
527;0.0;0.0;0.0;-0.2449759989976883;-0.23131199181079865;1.042367935180664;0.0;0.0;0.0
529;0.0;0.0;0.0;-0.2176479995250702;-0.21959999203681946;1.0257760286331177;0.0;0.0;0.0
532;-0.3625839948654175;-0.09759999811649323;0.9303719997406006;-0.22155199944972992;-0.19617599248886108;1.0823839902877808;2.6993749141693115;-31.946250915527344;-30.065000534057617
534;0.0;0.0;0.0;-0.1903200000524521;-0.2000799924135208;1.083359956741333;0.0;0.0;0.0
536;0.0;0.0;0.0;-0.17080000042915344;-0.18836799263954163;1.0540800094604492;0.0;0.0;0.0
538;0.0;0.0;0.0;-0.17080000042915344;-0.1571359932422638;1.066767930984497;0.0;0.0;0.0
540;-0.30158400535583496;-0.04562800005078316;0.932811975479126;-0.14347200095653534;-0.14151999354362488;1.0462720394134521;5.919374942779541;-29.006250381469727;-28.03499984741211
542;0.0;0.0;0.0;-0.15518400073051453;-0.1298079937696457;1.0628639459609985;0.0;0.0;0.0
544;0.0;0.0;0.0;-0.13176000118255615;-0.13371199369430542;1.0628639459609985;0.0;0.0;0.0
546;0.0;0.0;0.0;-0.12785600125789642;-0.07515199482440948;1.0628639459609985;0.0;0.0;0.0
549;-0.24741598963737488;0.010247999802231789;0.9401319622993469;-0.09272000193595886;-0.08686399459838867;1.0784800052642822;3.9593749046325684;-25.506250381469727;-25.16499900817871
551;0.0;0.0;0.0;-0.08979199826717377;-0.1180959939956665;1.09116792678833;0.0;0.0;0.0
553;0.0;0.0;0.0;-0.07417599856853485;-0.09857599437236786;1.0950720310211182;0.0;0.0;0.0
555;0.0;0.0;0.0;-0.09272000193595886;-0.11028799414634705;1.0950720310211182;0.0;0.0;0.0
557;-0.21716000139713287;0.032207999378442764;0.962336003780365;-0.07417599856853485;-0.10638399422168732;1.0950720310211182;-1.430625081062317;-20.326250076293945;-21.735000610351562
559;0.0;0.0;0.0;-0.09662400186061859;-0.09857599437236786;1.1116639375686646;0.0;0.0;0.0
561;0.0;0.0;0.0;-0.0663679987192154;-0.09467199444770813;1.1311839818954468;0.0;0.0;0.0
563;0.0;0.0;0.0;-0.08198399841785431;-0.10247999429702759;1.1028800010681152;0.0;0.0;0.0
566;-0.20520399510860443;0.026839999482035637;0.981611967086792;-0.07417599856853485;-0.1180959939956665;1.1116639375686646;-6.190625190734863;-15.14625072479248;-17.7450008392334
568;0.0;0.0;0.0;-0.058559998869895935;-0.09467199444770813;1.1028800010681152;0.0;0.0;0.0
570;0.0;0.0;0.0;-0.07710400223731995;-0.12199999392032623;1.09116792678833;0.0;0.0;0.0
572;0.0;0.0;0.0;-0.08198399841785431;-0.09857599437236786;1.1311839818954468;0.0;0.0;0.0
574;-0.20325200259685516;0.0226919986307621;0.9903959631919861;-0.08881600201129913;-0.10247999429702759;1.1233760118484497;-7.940625190734863;-12.206250190734863;-14.944999694824219
576;0.0;0.0;0.0;-0.08979199826717377;-0.13371199369430542;1.139967918395996;0.0;0.0;0.0
578;0.0;0.0;0.0;-0.10833600163459778;-0.09857599437236786;1.1272799968719482;0.0;0.0;0.0
580;0.0;0.0;0.0;-0.10833600163459778;-0.11028799414634705;1.1477760076522827;0.0;0.0;0.0
583;-0.21862399578094482;0.01878799870610237;1.0116239786148071;-0.10833600163459778;-0.09467199444770813;1.139967918395996;-7.660624980926514;-13.326250076293945;-12.774999618530273
585;0.0;0.0;0.0;-0.10443200170993805;-0.10247999429702759;1.1682720184326172;0.0;0.0;0.0
587;0.0;0.0;0.0;-0.11614400148391724;-0.10247999429702759;1.1682720184326172;0.0;0.0;0.0
589;0.0;0.0;0.0;-0.12004800140857697;-0.10638399422168732;1.1721760034561157;0.0;0.0;0.0
591;-0.22472399473190308;0.023423999547958374;1.0433440208435059;-0.11224000155925751;-0.10247999429702759;1.1760799884796143;-6.750625133514404;-17.45625114440918;-9.835000038146973
593;0.0;0.0;0.0;-0.08979199826717377;-0.09467199444770813;1.1926720142364502;0.0;0.0;0.0
595;0.0;0.0;0.0;-0.09759999811649323;-0.08295999467372894;1.1721760034561157;0.0;0.0;0.0
597;0.0;0.0;0.0;-0.07027199864387512;-0.07515199482440948;1.1360639333724976;0.0;0.0;0.0
600;-0.20788799226284027;0.03660000115633011;1.036512017250061;-0.054655998945236206;-0.0634399950504303;1.139967918395996;-6.400625228881836;-23.196250915527344;-6.335000038146973
602;0.0;0.0;0.0;-0.04684799909591675;-0.05953599885106087;1.1233760118484497;0.0;0.0;0.0
604;0.0;0.0;0.0;-0.023423999547958374;-0.06734399497509003;1.115567922592163;0.0;0.0;0.0
606;0.0;0.0;0.0;-0.003903999924659729;-0.024399999529123306;1.09116792678833;0.0;0.0;0.0
608;-0.14151999354362488;0.06880799680948257;0.9833199977874756;0.015615999698638916;-0.04001599922776222;1.0628639459609985;-7.380625247955322;-27.536251068115234;-4.164999961853027
610;0.0;0.0;0.0;0.03903999924659729;-0.04782399907708168;1.0823839902877808;0.0;0.0;0.0
612;0.0;0.0;0.0;0.07807999849319458;-0.01268799975514412;1.0589599609375;0.0;0.0;0.0
614;0.0;0.0;0.0;0.12492799758911133;-0.028303999453783035;1.0628639459609985;0.0;0.0;0.0
617;-0.043431997299194336;0.09613599628210068;0.9406200051307678;0.15615999698638916;-0.01268799975514412;1.0745760202407837;-9.55062484741211;-26.2762508392334;-3.6050000190734863
619;0.0;0.0;0.0;0.17080000042915344;-0.01659199967980385;1.0628639459609985;0.0;0.0;0.0
621;0.0;0.0;0.0;0.20983999967575073;-0.01268799975514412;1.0628639459609985;0.0;0.0;0.0
623;0.0;0.0;0.0;0.205935999751091;-0.01268799975514412;1.066767930984497;0.0;0.0;0.0
625;0.07051599770784378;0.13005200028419495;0.9357399940490723;0.205935999751091;0.0029279999434947968;1.0550559759140015;-13.260624885559082;-19.90625;-1.715000033378601
627;0.0;0.0;0.0;0.24107199907302856;-0.01268799975514412;1.0306559801101685;0.0;0.0;0.0
629;0.0;0.0;0.0;0.2449759989976883;-0.00878399983048439;1.010159969329834;0.0;0.0;0.0
631;0.0;0.0;0.0;0.27620798349380493;-0.00878399983048439;1.0384639501571655;0.0;0.0;0.0
634;0.13298000395298004;0.1378600001335144;0.9018239974975586;0.2879199981689453;0.022447999566793442;1.034559965133667;-15.150625228881836;-8.636250495910645;-0.7350000143051147
636;0.0;0.0;0.0;0.29572799801826477;0.03806399926543236;1.042367935180664;0.0;0.0;0.0
638;0.0;0.0;0.0;0.3152479827404022;0.018543999642133713;1.0296800136566162;0.0;0.0;0.0
640;0.0;0.0;0.0;0.2840159833431244;0.04196799919009209;1.0501760244369507;0.0;0.0;0.0
642;0.1786080002784729;0.16128399968147278;0.9106079936027527;0.30743998289108276;0.057583998888731;1.0706720352172852;-11.860625267028809;2.5637500286102295;1.9950000047683716
644;0.0;0.0;0.0;0.3152479827404022;0.049775999039411545;1.09116792678833;0.0;0.0;0.0
646;0.0;0.0;0.0;0.27620798349380493;0.049775999039411545;1.0872639417648315;0.0;0.0;0.0
648;0.0;0.0;0.0;0.29182398319244385;0.06539200246334076;1.1272799968719482;0.0;0.0;0.0
651;0.16738399863243103;0.1844639927148819;0.9706319570541382;0.2683999836444855;0.057583998888731;1.115567922592163;-5.910624980926514;11.0337495803833;7.945000171661377
653;0.0;0.0;0.0;0.22545599937438965;0.07710400223731995;1.1350879669189453;0.0;0.0;0.0
655;0.0;0.0;0.0;0.1903200000524521;0.09662400186061859;1.1643680334091187;0.0;0.0;0.0
657;0.0;0.0;0.0;0.1903200000524521;0.10833600163459778;1.1799839735031128;0.0;0.0;0.0
659;0.09027999639511108;0.2117919921875;1.0328519344329834;0.15908800065517426;0.08881600201129913;1.2043839693069458;-0.24062499403953552;14.603750228881836;14.385000228881836
661;0.0;0.0;0.0;0.15225599706172943;0.08881600201129913;1.1926720142364502;0.0;0.0;0.0
663;0.0;0.0;0.0;0.14054399728775024;0.0849120020866394;1.2248799800872803;0.0;0.0;0.0
665;0.0;0.0;0.0;0.14444799721240997;0.07320000231266022;1.2209759950637817;0.0;0.0;0.0
668;0.02391199953854084;0.2147199958562851;1.0850679874420166;0.1483519971370697;0.0849120020866394;1.2170720100402832;1.859375;13.133749961853027;15.925000190734863
670;0.0;0.0;0.0;0.11321599781513214;0.07710400223731995;1.2414720058441162;0.0;0.0;0.0
672;0.0;0.0;0.0;0.15518400073051453;0.06148799881339073;1.2365919351577759;0.0;0.0;0.0
674;0.0;0.0;0.0;0.1483519971370697;0.06539200246334076;1.2248799800872803;0.0;0.0;0.0
676;0.02025200054049492;0.20227599143981934;1.104099988937378;0.17470400035381317;0.08881600201129913;1.2609919309616089;0.8793750405311584;9.00374984741211;14.03499984741211
678;0.0;0.0;0.0;0.17080000042915344;0.06929600238800049;1.2365919351577759;0.0;0.0;0.0
680;0.0;0.0;0.0;0.16299200057983398;0.08881600201129913;1.2326879501342773;0.0;0.0;0.0
683;0.0;0.0;0.0;0.18641600012779236;0.09272000193595886;1.2209759950637817;0.0;0.0;0.0
685;0.05075199902057648;0.205935999751091;1.0989760160446167;0.1668960005044937;0.08100800216197968;1.2209759950637817;-1.0106250047683716;4.523749828338623;12.77500057220459
687;0.0;0.0;0.0;0.2176479995250702;0.049775999039411545;1.2170720100402832;0.0;0.0;0.0
689;0.0;0.0;0.0;0.20983999967575073;0.06929600238800049;1.2043839693069458;0.0;0.0;0.0
691;0.0;0.0;0.0;0.22545599937438965;0.049775999039411545;1.1877919435501099;0.0;0.0;0.0
693;0.08857199549674988;0.19178399443626404;1.0701839923858643;0.20203199982643127;0.057583998888731;1.1887680292129517;-2.4106249809265137;2.353749990463257;10.815000534057617
695;0.0;0.0;0.0;0.22935999929904938;0.057583998888731;1.1721760034561157;0.0;0.0;0.0
697;0.0;0.0;0.0;0.21374399960041046;0.04196799919009209;1.1477760076522827;0.0;0.0;0.0
699;0.0;0.0;0.0;0.2176479995250702;0.03415999934077263;1.1760799884796143;0.0;0.0;0.0
702;0.1029679998755455;0.17616799473762512;1.0421240329742432;0.24887999892234802;0.045871999114751816;1.1760799884796143;-1.7106250524520874;2.7037501335144043;7.24500036239624
704;0.0;0.0;0.0;0.24107199907302856;0.03415999934077263;1.1760799884796143;0.0;0.0;0.0
706;0.0;0.0;0.0;0.260591983795166;0.07320000231266022;1.1643680334091187;0.0;0.0;0.0
708;0.0;0.0;0.0;0.2723039984703064;0.06148799881339073;1.1721760034561157;0.0;0.0;0.0
710;0.13249199092388153;0.1937360018491745;1.0333399772644043;0.2840159833431244;0.08100800216197968;1.1516799926757812;0.8793750405311584;3.333750009536743;3.9549999237060547
712;0.0;0.0;0.0;0.30743998289108276;0.09662400186061859;1.1799839735031128;0.0;0.0;0.0
714;0.0;0.0;0.0;0.30743998289108276;0.1239520013332367;1.1477760076522827;0.0;0.0;0.0
717;0.0;0.0;0.0;0.33476799726486206;0.13176000118255615;1.1438720226287842;0.0;0.0;0.0
719;0.18885599076747894;0.2420479953289032;1.0235799551010132;0.3542879819869995;0.06148799881339073;1.1438720226287842;4.099374771118164;4.873749732971191;2.134999990463257
721;0.0;0.0;0.0;0.33476799726486206;0.09662400186061859;1.139967918395996;0.0;0.0;0.0
723;0.0;0.0;0.0;0.3962559998035431;0.1512800008058548;1.1760799884796143;0.0;0.0;0.0
725;0.0;0.0;0.0;0.3542879819869995;0.13176000118255615;1.1682720184326172;0.0;0.0;0.0
727;0.25351598858833313;0.2537599802017212;1.0279719829559326;0.4352959990501404;0.12004800140857697;1.1682720184326172;8.509374618530273;8.303750038146973;1.5750000476837158
729;0.0;0.0;0.0;0.43139198422431946;0.13176000118255615;1.1760799884796143;0.0;0.0;0.0
731;0.0;0.0;0.0;0.41577598452568054;0.1786080002784729;1.2492799758911133;0.0;0.0;0.0
734;0.0;0.0;0.0;0.41577598452568054;0.1668960005044937;1.2453759908676147;0.0;0.0;0.0
736;0.3111000061035156;0.2984119951725006;1.0826280117034912;0.47433599829673767;0.17470400035381317;1.2453759908676147;12.359375;12.50374984741211;5.705000400543213
738;0.0;0.0;0.0;0.41967999935150146;0.1668960005044937;1.2531839609146118;0.0;0.0;0.0
740;0.0;0.0;0.0;0.47433599829673767;0.15908800065517426;1.2492799758911133;0.0;0.0;0.0
742;0.0;0.0;0.0;0.4626239836215973;0.1668960005044937;1.2609919309616089;0.0;0.0;0.0
744;0.34135597944259644;0.289139986038208;1.1121519804000854;0.4509119987487793;0.14737600088119507;1.2570879459381104;14.109375;16.423749923706055;10.045000076293945
746;0.0;0.0;0.0;0.44310399889945984;0.14347200095653534;1.2365919351577759;0.0;0.0;0.0
748;0.0;0.0;0.0;0.45871999859809875;0.14347200095653534;1.2248799800872803;0.0;0.0;0.0
751;0.0;0.0;0.0;0.4470079839229584;0.12785600125789642;1.2248799800872803;0.0;0.0;0.0
753;0.34306398034095764;0.2705959975719452;1.0962920188903809;0.44310399889945984;0.13176000118255615;1.2043839693069458;16.349376678466797;17.403749465942383;14.735000610351562
755;0.0;0.0;0.0;0.4509119987487793;0.13566400110721588;1.2004799842834473;0.0;0.0;0.0
757;0.0;0.0;0.0;0.4089439809322357;0.1395680010318756;1.1926720142364502;0.0;0.0;0.0
759;0.0;0.0;0.0;0.4509119987487793;0.1512800008058548;1.1887680292129517;0.0;0.0;0.0
761;0.3274479806423187;0.26742398738861084;1.070915937423706;0.4470079839229584;0.1512800008058548;1.1926720142364502;19.989376068115234;16.493749618530273;17.7450008392334
763;0.0;0.0;0.0;0.4470079839229584;0.14737600088119507;1.2131680250167847;0.0;0.0;0.0
765;0.0;0.0;0.0;0.45871999859809875;0.1512800008058548;1.2082879543304443;0.0;0.0;0.0
768;0.0;0.0;0.0;0.47433599829673767;0.15518400073051453;1.1799839735031128;0.0;0.0;0.0
770;0.34355199337005615;0.280599981546402;1.0648159980773926;0.48214399814605713;0.15908800065517426;1.2004799842834473;23.769376754760742;15.513750076293945;17.885000228881836
772;0.0;0.0;0.0;0.4899519979953766;0.14737600088119507;1.2209759950637817;0.0;0.0;0.0
774;0.0;0.0;0.0;0.4899519979953766;0.15518400073051453;1.1887680292129517;0.0;0.0;0.0
776;0.0;0.0;0.0;0.48604798316955566;0.1512800008058548;1.1965759992599487;0.0;0.0;0.0
778;0.37039199471473694;0.28889599442481995;1.062619924545288;0.49775999784469604;0.1512800008058548;1.1838879585266113;25.7293758392334;15.653749465942383;17.045000076293945
781;0.0;0.0;0.0;0.48214399814605713;0.16299200057983398;1.1838879585266113;0.0;0.0;0.0
782;0.0;0.0;0.0;0.5016639828681946;0.16299200057983398;1.1965759992599487;0.0;0.0;0.0
785;0.0;0.0;0.0;0.49775999784469604;0.1668960005044937;1.1799839735031128;0.0;0.0;0.0
787;0.39137598872184753;0.2945079803466797;1.0599359273910522;0.536799967288971;0.1786080002784729;1.1799839735031128;25.65937614440918;16.353750228881836;15.995000839233398
789;0.0;0.0;0.0;0.5328959822654724;0.16299200057983398;1.1760799884796143;0.0;0.0;0.0
791;0.0;0.0;0.0;0.5485119819641113;0.15518400073051453;1.1799839735031128;0.0;0.0;0.0
793;0.0;0.0;0.0;0.5094720125198364;0.18251200020313263;1.1594879627227783;0.0;0.0;0.0
795;0.4155319929122925;0.2991439998149872;1.0509079694747925;0.5524159669876099;0.1512800008058548;1.1799839735031128;24.609376907348633;16.563749313354492;15.925000190734863
797;0.0;0.0;0.0;0.5641279816627502;0.17080000042915344;1.1682720184326172;0.0;0.0;0.0
799;0.0;0.0;0.0;0.5680319666862488;0.15908800065517426;1.1477760076522827;0.0;0.0;0.0
802;0.0;0.0;0.0;0.536799967288971;0.17470400035381317;1.1360639333724976;0.0;0.0;0.0
804;0.4365159869194031;0.2913359999656677;1.0172359943389893;0.5485119819641113;0.15518400073051453;1.1272799968719482;23.769376754760742;16.983749389648438;16.69499969482422
806;0.0;0.0;0.0;0.5641279816627502;0.12785600125789642;1.0872639417648315;0.0;0.0;0.0
808;0.0;0.0;0.0;0.5485119819641113;0.1239520013332367;1.1028800010681152;0.0;0.0;0.0
810;0.0;0.0;0.0;0.5719360113143921;0.11224000155925751;1.0872639417648315;0.0;0.0;0.0
812;0.43944400548934937;0.26083600521087646;0.9703879952430725;0.5641279816627502;0.12004800140857697;1.1067839860916138;24.259376525878906;20.203750610351562;17.954999923706055
814;0.0;0.0;0.0;0.5758399963378906;0.11224000155925751;1.0823839902877808;0.0;0.0;0.0
816;0.0;0.0;0.0;0.5758399963378906;0.11224000155925751;1.0872639417648315;0.0;0.0;0.0
819;0.0;0.0;0.0;0.587552011013031;0.12785600125789642;1.0784800052642822;0.0;0.0;0.0
821;0.4643319845199585;0.2549799978733063;0.9657520055770874;0.5797439813613892;0.1512800008058548;1.0989760160446167;24.469375610351562;25.943750381469727;20.19499969482422
823;0.0;0.0;0.0;0.5758399963378906;0.12004800140857697;1.1194720268249512;0.0;0.0;0.0
825;0.0;0.0;0.0;0.5992639660835266;0.13566400110721588;1.1311839818954468;0.0;0.0;0.0
827;0.0;0.0;0.0;0.587552011013031;0.10833600163459778;1.139967918395996;0.0;0.0;0.0
829;0.4770199954509735;0.2547360062599182;0.9960079789161682;0.610975980758667;0.11614400148391724;1.1516799926757812;22.859376907348633;32.45375061035156;26.005001068115234
831;0.0;0.0;0.0;0.5953599810600281;0.12004800140857697;1.1438720226287842;0.0;0.0;0.0
833;0.0;0.0;0.0;0.6148799657821655;0.09272000193595886;1.1760799884796143;0.0;0.0;0.0
836;0.0;0.0;0.0;0.587552011013031;0.10833600163459778;1.1838879585266113;0.0;0.0;0.0
838;0.48507198691368103;0.22545599937438965;1.0377320051193237;0.6148799657821655;0.053679998964071274;1.1760799884796143;20.829376220703125;37.073753356933594;33.07500076293945
840;0.0;0.0;0.0;0.610975980758667;0.07710400223731995;1.2004799842834473;0.0;0.0;0.0
842;0.0;0.0;0.0;0.6070719957351685;0.03806399926543236;1.2043839693069458;0.0;0.0;0.0
844;0.0;0.0;0.0;0.5953599810600281;0.03415999934077263;1.2375680208206177;0.0;0.0;0.0
846;0.48726800084114075;0.17202000319957733;1.0828720331192017;0.5992639660835266;0.02635199949145317;1.2287839651107788;19.219375610351562;37.28375244140625;38.53499984741211
848;0.0;0.0;0.0;0.6148799657821655;0.022447999566793442;1.2775839567184448;0.0;0.0;0.0
850;0.0;0.0;0.0;0.587552011013031;-0.01659199967980385;1.2531839609146118;0.0;0.0;0.0
853;0.0;0.0;0.0;0.6148799657821655;-0.028303999453783035;1.2648959159851074;0.0;0.0;0.0
855;0.4836079776287079;0.1163880005478859;1.1294759511947632;0.6031680107116699;-0.04782399907708168;1.2814879417419434;18.44937515258789;33.64375305175781;40.42499923706055
857;0.0;0.0;0.0;0.6187840104103088;-0.07515199482440948;1.2570879459381104;0.0;0.0;0.0
859;0.0;0.0;0.0;0.6226879954338074;-0.07124799489974976;1.2814879417419434;0.0;0.0;0.0
861;0.0;0.0;0.0;0.610975980758667;-0.07905599474906921;1.2736799716949463;0.0;0.0;0.0
863;0.49775999784469604;0.06929600238800049;1.140944004058838;0.6148799657821655;-0.08295999467372894;1.2658720016479492;17.67937660217285;29.303749084472656;38.1150016784668
866;0.0;0.0;0.0;0.6265919804573059;-0.08295999467372894;1.2570879459381104;0.0;0.0;0.0
867;0.0;0.0;0.0;0.6578239798545837;-0.08686399459838867;1.2365919351577759;0.0;0.0;0.0
870;0.0;0.0;0.0;0.6500160098075867;-0.08686399459838867;1.2609919309616089;0.0;0.0;0.0
872;0.5255759954452515;0.049531999975442886;1.1253279447555542;0.6685599684715271;-0.08686399459838867;1.2414720058441162;17.959375381469727;25.243749618530273;33.005001068115234
874;0.0;0.0;0.0;0.6578239798545837;-0.11419199407100677;1.2648959159851074;0.0;0.0;0.0
876;0.0;0.0;0.0;0.6539199948310852;-0.11028799414634705;1.2287839651107788;0.0;0.0;0.0
878;0.0;0.0;0.0;0.6539199948310852;-0.09857599437236786;1.2121919393539429;0.0;0.0;0.0
880;0.5421679615974426;0.03147599846124649;1.103611946105957;0.6646559834480286;-0.11419199407100677;1.1965759992599487;18.939376831054688;22.02375030517578;27.545000076293945
883;0.0;0.0;0.0;0.6617279648780823;-0.12199999392032623;1.2004799842834473;0.0;0.0;0.0
884;0.0;0.0;0.0;0.6383039951324463;-0.13761599361896515;1.2004799842834473;0.0;0.0;0.0
887;0.0;0.0;0.0;0.6148799657821655;-0.13761599361896515;1.1760799884796143;0.0;0.0;0.0
889;0.5219159722328186;0.0009759999811649323;1.0711599588394165;0.6148799657821655;-0.1454239934682846;1.1682720184326172;20.549375534057617;19.993749618530273;21.03499984741211
891;0.0;0.0;0.0;0.6383039951324463;-0.14151999354362488;1.1760799884796143;0.0;0.0;0.0
893;0.0;0.0;0.0;0.6187840104103088;-0.13761599361896515;1.1594879627227783;0.0;0.0;0.0
895;0.0;0.0;0.0;0.6187840104103088;-0.15323199331760406;1.1311839818954468;0.0;0.0;0.0
897;0.4997119903564453;-0.0004879999905824661;1.0235799551010132;0.6265919804573059;-0.13371199369430542;1.1272799968719482;22.509376525878906;18.173749923706055;12.845000267028809
900;0.0;0.0;0.0;0.610975980758667;-0.09857599437236786;1.1272799968719482;0.0;0.0;0.0
902;0.0;0.0;0.0;0.6187840104103088;-0.07905599474906921;1.1116639375686646;0.0;0.0;0.0
904;0.0;0.0;0.0;0.610975980758667;-0.08295999467372894;1.0784800052642822;0.0;0.0;0.0
906;0.4875119924545288;0.0331839993596077;0.974291980266571;0.6031680107116699;-0.08295999467372894;1.0989760160446167;24.189376831054688;16.423749923706055;5.985000133514404
908;0.0;0.0;0.0;0.6031680107116699;-0.05563199892640114;1.0462720394134521;0.0;0.0;0.0
910;0.0;0.0;0.0;0.5953599810600281;-0.07515199482440948;1.0589599609375;0.0;0.0;0.0
912;0.0;0.0;0.0;0.5992639660835266;-0.0634399950504303;1.066767930984497;0.0;0.0;0.0
914;0.47506800293922424;0.07612799853086472;0.9298839569091797;0.6031680107116699;-0.06734399497509003;1.0462720394134521;23.83937644958496;16.00374984741211;1.9950000047683716
917;0.0;0.0;0.0;0.5836479663848877;-0.004879999905824661;1.0140639543533325;0.0;0.0;0.0
919;0.0;0.0;0.0;0.5602239966392517;-0.04001599922776222;1.0140639543533325;0.0;0.0;0.0
921;0.0;0.0;0.0;0.610975980758667;0.006831999868154526;0.9935680031776428;0.0;0.0;0.0
923;0.4614039957523346;0.10687199980020523;0.8779119849205017;0.5641279816627502;-0.020495999604463577;0.961359977722168;21.94937515258789;18.52375030517578;0.6649999618530273
925;0.0;0.0;0.0;0.5719360113143921;-0.004879999905824661;0.9408639669418335;0.0;0.0;0.0
927;0.0;0.0;0.0;0.5914559960365295;0.014639999717473984;0.936959981918335;0.0;0.0;0.0
929;0.0;0.0;0.0;0.5836479663848877;0.022447999566793442;0.888159990310669;0.0;0.0;0.0
931;0.4579879939556122;0.13053999841213226;0.7912920117378235;0.5641279816627502;0.04196799919009209;0.8676639795303345;20.969375610351562;24.68375015258789;2.4149999618530273
934;0.0;0.0;0.0;0.5758399963378906;0.02635199949145317;0.8598560094833374;0.0;0.0;0.0
936;0.0;0.0;0.0;0.5680319666862488;0.018543999642133713;0.8393599987030029;0.0;0.0;0.0
938;0.0;0.0;0.0;0.5446079969406128;0.0302559994161129;0.8637599945068359;0.0;0.0;0.0
940;0.44603198766708374;0.16421200335025787;0.732975959777832;0.5602239966392517;0.053679998964071274;0.871567964553833;23.139375686645508;34.27375030517578;9.485000610351562
942;0.0;0.0;0.0;0.5289919972419739;0.03415999934077263;0.888159990310669;0.0;0.0;0.0
944;0.0;0.0;0.0;0.5328959822654724;0.04196799919009209;0.8842560052871704;0.0;0.0;0.0
946;0.0;0.0;0.0;0.5172799825668335;0.03806399926543236;0.8842560052871704;0.0;0.0;0.0
948;0.4089439809322357;0.18373200297355652;0.762499988079071;0.536799967288971;0.06539200246334076;0.8998720049858093;24.329376220703125;43.86375045776367;20.684999465942383
951;0.0;0.0;0.0;0.4899519979953766;0.06929600238800049;0.9047519564628601;0.0;0.0;0.0
953;0.0;0.0;0.0;0.5289919972419739;0.0302559994161129;0.888159990310669;0.0;0.0;0.0
955;0.0;0.0;0.0;0.513375997543335;0.057583998888731;0.8998720049858093;0.0;0.0;0.0
957;0.39698800444602966;0.18861199915409088;0.7664039731025696;0.48214399814605713;0.03806399926543236;0.8676639795303345;21.109376907348633;53.17375183105469;32.095001220703125
959;0.0;0.0;0.0;0.4899519979953766;0.049775999039411545;0.8920639753341675;0.0;0.0;0.0
961;0.0;0.0;0.0;0.47043198347091675;-0.00878399983048439;0.8754720091819763;0.0;0.0;0.0
963;0.0;0.0;0.0;0.47043198347091675;0.03806399926543236;0.9086560010910034;0.0;0.0;0.0
965;0.35648399591445923;0.15347599983215332;0.7671359777450562;0.43139198422431946;0.03806399926543236;0.920367956161499;18.58937644958496;63.11375045776367;41.89500045776367
968;0.0;0.0;0.0;0.44310399889945984;-0.024399999529123306;0.9164639711380005;0.0;0.0;0.0
970;0.0;0.0;0.0;0.38942399621009827;-0.08295999467372894;0.920367956161499;0.0;0.0;0.0
972;0.0;0.0;0.0;0.3699039816856384;-0.07515199482440948;0.9574559926986694;0.0;0.0;0.0
974;0.2881639897823334;0.07807999849319458;0.8012959957122803;0.37380799651145935;-0.10247999429702759;0.9535520076751709;17.189376831054688;70.25374603271484;47.21500015258789
976;0.0;0.0;0.0;0.33476799726486206;-0.12199999392032623;0.9486719965934753;0.0;0.0;0.0
978;0.0;0.0;0.0;0.350383996963501;-0.1844639927148819;0.9408639669418335;0.0;0.0;0.0
980;0.0;0.0;0.0;0.33476799726486206;-0.1727519929409027;0.944767951965332;0.0;0.0;0.0
982;0.21569599211215973;-0.027327999472618103;0.8181319832801819;0.2723039984703064;-0.16884799301624298;0.9486719965934753;17.609376907348633;72.00374603271484;46.654998779296875
985;0.0;0.0;0.0;0.28011199831962585;-0.2235039919614792;0.9330559968948364;0.0;0.0;0.0
987;0.0;0.0;0.0;0.23716799914836884;-0.20398399233818054;0.9730719923973083;0.0;0.0;0.0
989;0.0;0.0;0.0;0.25278398394584656;-0.21569599211215973;0.9730719923973083;0.0;0.0;0.0
991;0.14176400005817413;-0.07783599942922592;0.8366760015487671;0.23716799914836884;-0.2117919921875;0.9935680031776428;21.31937599182129;68.08374786376953;42.875
993;0.0;0.0;0.0;0.2332639992237091;-0.22740799188613892;0.9935680031776428;0.0;0.0;0.0
995;0.0;0.0;0.0;0.22935999929904938;-0.2664479911327362;1.0140639543533325;0.0;0.0;0.0
997;0.0;0.0;0.0;0.2176479995250702;-0.2235039919614792;1.034559965133667;0.0;0.0;0.0
999;0.10565199702978134;-0.08271599560976028;0.8871839642524719;0.1903200000524521;-0.16103999316692352;1.0579839944839478;24.399375915527344;60.383750915527344;35.525001525878906
1002;0.0;0.0;0.0;0.25278398394584656;-0.23521599173545837;1.0257760286331177;0.0;0.0;0.0
1004;0.0;0.0;0.0;0.20203199982643127;-0.22740799188613892;1.0540800094604492;0.0;0.0;0.0
1006;0.0;0.0;0.0;0.16396799683570862;-0.2117919921875;1.0706720352172852;0.0;0.0;0.0
1008;0.07881199568510056;-0.08759599924087524;0.9271999597549438;0.1903200000524521;-0.2000799924135208;1.066767930984497;22.08937644958496;51.9837532043457;25.864999771118164
1010;0.0;0.0;0.0;0.15908800065517426;-0.24692799150943756;1.0540800094604492;0.0;0.0;0.0
1012;0.0;0.0;0.0;0.14347200095653534;-0.20398399233818054;1.09116792678833;0.0;0.0;0.0
1014;0.0;0.0;0.0;0.1210239976644516;-0.2235039919614792;1.0589599609375;0.0;0.0;0.0
1016;0.020739998668432236;-0.09272000193595886;0.9279319643974304;0.07807999849319458;-0.22740799188613892;1.0540800094604492;16.559375762939453;43.163753509521484;15.574999809265137
1019;0.0;0.0;0.0;0.04684799909591675;-0.23521599173545837;1.0706720352172852;0.0;0.0;0.0
1021;0.0;0.0;0.0;0.05075199902057648;-0.20788799226284027;1.0706720352172852;0.0;0.0;0.0
1023;0.0;0.0;0.0;0.058559998869895935;-0.20398399233818054;1.09116792678833;0.0;0.0;0.0
1025;-0.050995998084545135;-0.08515600115060806;0.9401319622993469;0.03903999924659729;-0.19227199256420135;1.0706720352172852;12.779375076293945;31.193750381469727;9.135000228881836
1027;0.0;0.0;0.0;0.031231999397277832;-0.20398399233818054;1.0823839902877808;0.0;0.0;0.0
1029;0.0;0.0;0.0;0.07027199864387512;-0.17665599286556244;1.0950720310211182;0.0;0.0;0.0
1031;0.0;0.0;0.0;0.015615999698638916;-0.2117919921875;1.0950720310211182;0.0;0.0;0.0
1033;-0.09296400099992752;-0.07075999677181244;0.9533079862594604;-0.031231999397277832;-0.19617599248886108;1.0823839902877808;9.279375076293945;17.333749771118164;5.49500036239624
1036;0.0;0.0;0.0;-0.007807999849319458;-0.2235039919614792;1.09116792678833;0.0;0.0;0.0
1038;0.0;0.0;0.0;-0.011711999773979187;-0.20788799226284027;1.09116792678833;0.0;0.0;0.0
1040;0.0;0.0;0.0;-0.011711999773979187;-0.20788799226284027;1.0784800052642822;0.0;0.0;0.0
1042;-0.11565599590539932;-0.07051599770784378;0.9491599798202515;0.007807999849319458;-0.20788799226284027;1.0540800094604492;4.869374752044678;4.383749961853027;3.184999942779541
1044;0.0;0.0;0.0;0.003903999924659729;-0.20398399233818054;1.0589599609375;0.0;0.0;0.0
1046;0.0;0.0;0.0;0.03903999924659729;-0.18836799263954163;1.0384639501571655;0.0;0.0;0.0
1048;0.0;0.0;0.0;0.031231999397277832;-0.22740799188613892;1.0218719244003296;0.0;0.0;0.0
1050;-0.08710800111293793;-0.07710400223731995;0.908411979675293;0.07807999849319458;-0.19617599248886108;1.0140639543533325;-0.4506250023841858;-5.836250305175781;2.8350000381469727
1053;0.0;0.0;0.0;0.07807999849319458;-0.20398399233818054;0.9896639585494995;0.0;0.0;0.0
1055;0.0;0.0;0.0;0.07807999849319458;-0.23131199181079865;0.9486719965934753;0.0;0.0;0.0
1057;0.0;0.0;0.0;0.13663999736309052;-0.23521599173545837;0.9652639627456665;0.0;0.0;0.0
1059;-0.023667998611927032;-0.09198799729347229;0.8413119912147522;0.14054399728775024;-0.22740799188613892;0.9486719965934753;-6.050624847412109;-8.846250534057617;5.635000228881836
1061;0.0;0.0;0.0;0.13663999736309052;-0.23521599173545837;0.9242720007896423;0.0;0.0;0.0
1063;0.0;0.0;0.0;0.15225599706172943;-0.2781600058078766;0.920367956161499;0.0;0.0;0.0
1065;0.0;0.0;0.0;0.12883199751377106;-0.2937760055065155;0.8998720049858093;0.0;0.0;0.0
1067;0.022204000502824783;-0.13419999182224274;0.7929999828338623;0.12492799758911133;-0.2898719906806946;0.9164639711380005;-8.570625305175781;-3.2462499141693115;11.654999732971191
1070;0.0;0.0;0.0;0.15518400073051453;-0.30158400535583496;0.912559986114502;0.0;0.0;0.0
1072;0.0;0.0;0.0;0.12492799758911133;-0.3093920052051544;0.9086560010910034;0.0;0.0;0.0
1074;0.0;0.0;0.0;0.1210239976644516;-0.32891198992729187;0.895967960357666;0.0;0.0;0.0
1076;0.011223999783396721;-0.18348799645900726;0.7795799970626831;0.09759999811649323;-0.34062400460243225;0.9086560010910034;-6.470624923706055;6.833749771118164;19.28499984741211
1078;0.0;0.0;0.0;0.08588799834251404;-0.387472003698349;0.9047519564628601;0.0;0.0;0.0
1080;0.0;0.0;0.0;0.03903999924659729;-0.39528000354766846;0.888159990310669;0.0;0.0;0.0
1082;0.0;0.0;0.0;0.027327999472618103;-0.41870400309562683;0.8598560094833374;0.0;0.0;0.0
1084;-0.08125200122594833;-0.25571200251579285;0.7520079612731934;0.0;-0.4108960032463074;0.8637599945068359;-0.31062501668930054;17.68375015258789;25.30500030517578
1087;0.0;0.0;0.0;-0.03903999924659729;-0.42260798811912537;0.9008479714393616;0.0;0.0;0.0
1089;0.0;0.0;0.0;-0.027327999472618103;-0.4577440023422241;0.8803519606590271;0.0;0.0;0.0
1091;0.0;0.0;0.0;-0.03513599932193756;-0.47336000204086304;0.8842560052871704;0.0;0.0;0.0
1093;-0.1332239955663681;-0.31451600790023804;0.7603039741516113;-0.03513599932193756;-0.46164798736572266;0.9047519564628601;9.139374732971191;25.38374900817871;26.4950008392334
1095;0.0;0.0;0.0;-0.03513599932193756;-0.4772639870643616;0.9164639711380005;0.0;0.0;0.0
1097;0.0;0.0;0.0;-0.007807999849319458;-0.4577440023422241;0.936959981918335;0.0;0.0;0.0
1099;0.0;0.0;0.0;-0.031231999397277832;-0.4694559872150421;0.9486719965934753;0.0;0.0;0.0
1101;-0.14908400177955627;-0.3333039879798889;0.806663990020752;-0.04294399917125702;-0.44993600249290466;0.9730719923973083;15.509374618530273;29.02375030517578;27.125
1104;0.0;0.0;0.0;-0.04294399917125702;-0.46164798736572266;0.985759973526001;0.0;0.0;0.0
1106;0.0;0.0;0.0;-0.062463998794555664;-0.48507198691368103;0.9818559885025024;0.0;0.0;0.0
1108;0.0;0.0;0.0;-0.03903999924659729;-0.4811680018901825;1.017967939376831;0.0;0.0;0.0
1110;-0.17592400312423706;-0.33476799726486206;0.87254399061203;-0.08979199826717377;-0.47336000204086304;1.034559965133667;15.229374885559082;30.353750228881836;27.19499969482422
1112;0.0;0.0;0.0;-0.0663679987192154;-0.4538399875164032;1.0706720352172852;0.0;0.0;0.0
1114;0.0;0.0;0.0;-0.08588799834251404;-0.4811680018901825;1.0872639417648315;0.0;0.0;0.0
1116;0.0;0.0;0.0;-0.09662400186061859;-0.5045920014381409;1.115567922592163;0.0;0.0;0.0
1118;-0.22448000311851501;-0.35404399037361145;0.954039990901947;-0.15518400073051453;-0.48507198691368103;1.1116639375686646;9.349374771118164;29.583749771118164;28.104999542236328
1121;0.0;0.0;0.0;-0.19422399997711182;-0.4967840015888214;1.1233760118484497;0.0;0.0;0.0
1123;0.0;0.0;0.0;-0.20203199982643127;-0.5475360155105591;1.1116639375686646;0.0;0.0;0.0
1125;0.0;0.0;0.0;-0.24887999892234802;-0.5514400005340576;1.1194720268249512;0.0;0.0;0.0
1127;-0.34135597944259644;-0.4065040051937103;0.9935680031776428;-0.2840159833431244;-0.6021919846534729;1.139967918395996;1.5793750286102295;25.173749923706055;26.704999923706055
1129;0.0;0.0;0.0;-0.3152479827404022;-0.5904799699783325;1.1311839818954468;0.0;0.0;0.0
1131;0.0;0.0;0.0;-0.29572799801826477;-0.6217119693756104;1.1438720226287842;0.0;0.0;0.0
1133;0.0;0.0;0.0;-0.3113439977169037;-0.5982879996299744;1.1643680334091187;0.0;0.0;0.0
1136;-0.427731990814209;-0.47091999650001526;1.0133320093154907;-0.29572799801826477;-0.6060959696769714;1.1516799926757812;-4.300624847412109;16.91374969482422;18.725000381469727
1138;0.0;0.0;0.0;-0.2840159833431244;-0.6178079843521118;1.1721760034561157;0.0;0.0;0.0
1140;0.0;0.0;0.0;-0.260591983795166;-0.6060959696769714;1.1682720184326172;0.0;0.0;0.0
1142;0.0;0.0;0.0;-0.2566879987716675;-0.6100000143051147;1.1760799884796143;0.0;0.0;0.0
1144;-0.3972319960594177;-0.4714079797267914;1.0367560386657715;-0.24887999892234802;-0.6178079843521118;1.1926720142364502;-8.780625343322754;4.943749904632568;11.585000038146973
1146;0.0;0.0;0.0;-0.26449599862098694;-0.5982879996299744;1.1926720142364502;0.0;0.0;0.0
1148;0.0;0.0;0.0;-0.29182398319244385;-0.6451359987258911;1.1965759992599487;0.0;0.0;0.0
1150;0.0;0.0;0.0;-0.26449599862098694;-0.6100000143051147;1.2287839651107788;0.0;0.0;0.0
1152;-0.3945479989051819;-0.48482799530029297;1.0696959495544434;-0.2683999836444855;-0.6217119693756104;1.2209759950637817;-13.190625190734863;-5.136250019073486;5.985000133514404
1155;0.0;0.0;0.0;-0.26449599862098694;-0.6217119693756104;1.2004799842834473;0.0;0.0;0.0
1157;0.0;0.0;0.0;-0.260591983795166;-0.6060959696769714;1.2248799800872803;0.0;0.0;0.0
1159;0.0;0.0;0.0;-0.25278398394584656;-0.6451359987258911;1.2453759908676147;0.0;0.0;0.0
1161;-0.3745400011539459;-0.4887319803237915;1.0933640003204346;-0.22935999929904938;-0.6412320137023926;1.2287839651107788;-17.110624313354492;-11.7162504196167;-1.084999918937683
1163;0.0;0.0;0.0;-0.24107199907302856;-0.6021919846534729;1.2492799758911133;0.0;0.0;0.0
1165;0.0;0.0;0.0;-0.21374399960041046;-0.6139039993286133;1.1965759992599487;0.0;0.0;0.0
1167;0.0;0.0;0.0;-0.25278398394584656;-0.5826719999313354;1.2043839693069458;0.0;0.0;0.0
1169;-0.3659999966621399;-0.48263198137283325;1.0926319360733032;-0.26449599862098694;-0.6139039993286133;1.2170720100402832;-19.420623779296875;-14.376250267028809;-7.875
1172;0.0;0.0;0.0;-0.2723039984703064;-0.5904799699783325;1.2082879543304443;0.0;0.0;0.0
1174;0.0;0.0;0.0;-0.2723039984703064;-0.5943840146064758;1.2287839651107788;0.0;0.0;0.0
1176;0.0;0.0;0.0;-0.2879199981689453;-0.586575984954834;1.1838879585266113;0.0;0.0;0.0
1178;-0.4025999903678894;-0.4596959948539734;1.0753079652786255;-0.31915199756622314;-0.5670560002326965;1.2170720100402832;-19.700624465942383;-16.47624969482422;-13.404999732971191
1180;0.0;0.0;0.0;-0.30743998289108276;-0.5709599852561951;1.2121919393539429;0.0;0.0;0.0
1182;0.0;0.0;0.0;-0.31915199756622314;-0.5319200158119202;1.2043839693069458;0.0;0.0;0.0
1184;0.0;0.0;0.0;-0.3416000008583069;-0.5202080011367798;1.2209759950637817;0.0;0.0;0.0
1186;-0.44773998856544495;-0.4165079891681671;1.0701839923858643;-0.3455039858818054;-0.5280159711837769;1.1887680292129517;-19.630624771118164;-20.74625015258789;-17.395000457763672
1189;0.0;0.0;0.0;-0.33086398243904114;-0.5123999714851379;1.1838879585266113;0.0;0.0;0.0
1191;0.0;0.0;0.0;-0.34940800070762634;-0.4928799867630005;1.2082879543304443;0.0;0.0;0.0
1193;0.0;0.0;0.0;-0.3269599974155426;-0.48897600173950195;1.2170720100402832;0.0;0.0;0.0
1195;-0.46506398916244507;-0.3713679909706116;1.0816519260406494;-0.3230559825897217;-0.4772639870643616;1.2453759908676147;-21.380624771118164;-25.22624969482422;-21.2450008392334
1197;0.0;0.0;0.0;-0.3572160005569458;-0.4694559872150421;1.2365919351577759;0.0;0.0;0.0
1199;0.0;0.0;0.0;-0.3269599974155426;-0.4928799867630005;1.2287839651107788;0.0;0.0;0.0
1201;0.0;0.0;0.0;-0.2996319830417633;-0.4811680018901825;1.2287839651107788;0.0;0.0;0.0
1203;-0.45115599036216736;-0.34013599157333374;1.1016600131988525;-0.3113439977169037;-0.4811680018901825;1.2414720058441162;-24.110624313354492;-27.186250686645508;-26.28499984741211
1206;0.0;0.0;0.0;-0.29182398319244385;-0.46164798736572266;1.2531839609146118;0.0;0.0;0.0
1208;0.0;0.0;0.0;-0.29572799801826477;-0.4655520021915436;1.2287839651107788;0.0;0.0;0.0
1210;0.0;0.0;0.0;-0.30743998289108276;-0.43432000279426575;1.2375680208206177;0.0;0.0;0.0
1212;-0.43017199635505676;-0.3198840022087097;1.1016600131988525;-0.30743998289108276;-0.44603198766708374;1.2170720100402832;-25.720624923706055;-28.516250610351562;-30.69499969482422
1214;0.0;0.0;0.0;-0.3113439977169037;-0.4265120029449463;1.2004799842834473;0.0;0.0;0.0
1216;0.0;0.0;0.0;-0.33086398243904114;-0.4265120029449463;1.2170720100402832;0.0;0.0;0.0
1218;0.0;0.0;0.0;-0.31915199756622314;-0.4265120029449463;1.2121919393539429;0.0;0.0;0.0
1220;-0.4374919831752777;-0.2862119972705841;1.0843359231948853;-0.3152479827404022;-0.41870400309562683;1.2170720100402832;-25.30062484741211;-31.946250915527344;-33.6349983215332
1223;0.0;0.0;0.0;-0.3230559825897217;-0.39528000354766846;1.2082879543304443;0.0;0.0;0.0
1225;0.0;0.0;0.0;-0.29182398319244385;-0.39528000354766846;1.1926720142364502;0.0;0.0;0.0
1227;0.0;0.0;0.0;-0.31036800146102905;-0.4030880033969879;1.2248799800872803;0.0;0.0;0.0
1229;-0.4323679804801941;-0.26449599862098694;1.0743319988250732;-0.30743998289108276;-0.3757599890232086;1.2121919393539429;-24.25062370300293;-35.23624801635742;-35.80500030517578
1231;0.0;0.0;0.0;-0.3113439977169037;-0.37966400384902954;1.2043839693069458;0.0;0.0;0.0
1233;0.0;0.0;0.0;-0.3230559825897217;-0.3640480041503906;1.2131680250167847;0.0;0.0;0.0
1235;0.0;0.0;0.0;-0.3230559825897217;-0.35624000430107117;1.2492799758911133;0.0;0.0;0.0
1237;-0.42626798152923584;-0.23643599450588226;1.0899479389190674;-0.3298879861831665;-0.34062400460243225;1.2287839651107788;-23.480623245239258;-36.70624923706055;-36.994998931884766
1240;0.0;0.0;0.0;-0.29572799801826477;-0.3484320044517517;1.2453759908676147;0.0;0.0;0.0
1242;0.0;0.0;0.0;-0.2840159833431244;-0.3445279896259308;1.2609919309616089;0.0;0.0;0.0
1244;0.0;0.0;0.0;-0.2840159833431244;-0.33671998977661133;1.2570879459381104;0.0;0.0;0.0
1246;-0.42089998722076416;-0.19446799159049988;1.1187399625778198;-0.3152479827404022;-0.32891198992729187;1.2648959159851074;-23.480623245239258;-37.05624771118164;-38.53499984741211
1248;0.0;0.0;0.0;-0.2840159833431244;-0.2937760055065155;1.2658720016479492;0.0;0.0;0.0
1250;0.0;0.0;0.0;-0.3152479827404022;-0.2781600058078766;1.2941759824752808;0.0;0.0;0.0
1252;0.0;0.0;0.0;-0.3152479827404022;-0.2820639908313751;1.2814879417419434;0.0;0.0;0.0
1254;-0.419435977935791;-0.1500599980354309;1.152899980545044;-0.3113439977169037;-0.2781600058078766;1.3019839525222778;-24.32062339782715;-38.6662483215332;-39.44499969482422
1257;0.0;0.0;0.0;-0.30353599786758423;-0.2820639908313751;1.3058879375457764;0.0;0.0;0.0
1259;0.0;0.0;0.0;-0.3425759971141815;-0.27425599098205566;1.2941759824752808;0.0;0.0;0.0
1261;0.0;0.0;0.0;-0.3269599974155426;-0.24302399158477783;1.313696026802063;0.0;0.0;0.0
1263;-0.43895599246025085;-0.11687599867582321;1.175104022026062;-0.33086398243904114;-0.2117919921875;1.3224799633026123;-26.700624465942383;-41.53624725341797;-40.005001068115234
1265;0.0;0.0;0.0;-0.34940800070762634;-0.20398399233818054;1.2941759824752808;0.0;0.0;0.0
1267;0.0;0.0;0.0;-0.33086398243904114;-0.21569599211215973;1.3019839525222778;0.0;0.0;0.0
1269;0.0;0.0;0.0;-0.36111998558044434;-0.2235039919614792;1.3058879375457764;0.0;0.0;0.0
1272;-0.4638440012931824;-0.07905599474906921;1.1755919456481934;-0.36111998558044434;-0.19617599248886108;1.3019839525222778;-29.290624618530273;-45.38624954223633;-40.35499954223633
1274;0.0;0.0;0.0;-0.36111998558044434;-0.19227199256420135;1.2814879417419434;0.0;0.0;0.0
1276;0.0;0.0;0.0;-0.3689279854297638;-0.16884799301624298;1.2980799674987793;0.0;0.0;0.0
1278;0.0;0.0;0.0;-0.3533119857311249;-0.19617599248886108;1.2980799674987793;0.0;0.0;0.0
1280;-0.4770199954509735;-0.05270399898290634;1.1592439413070679;-0.3572160005569458;-0.16103999316692352;1.2775839567184448;-29.43062400817871;-49.30624771118164;-40.21500015258789
1282;0.0;0.0;0.0;-0.34940800070762634;-0.19617599248886108;1.28929603099823;0.0;0.0;0.0
1284;0.0;0.0;0.0;-0.33086398243904114;-0.19617599248886108;1.2609919309616089;0.0;0.0;0.0
1286;0.0;0.0;0.0;-0.34940800070762634;-0.16494399309158325;1.2492799758911133;0.0;0.0;0.0
1289;-0.4594520032405853;-0.037331998348236084;1.1214239597320557;-0.3230559825897217;-0.14932799339294434;1.2209759950637817;-25.860624313354492;-54.20624923706055;-38.60499954223633
1291;0.0;0.0;0.0;-0.30743998289108276;-0.1571359932422638;1.2170720100402832;0.0;0.0;0.0
1293;0.0;0.0;0.0;-0.3230559825897217;-0.18055999279022217;1.2170720100402832;0.0;0.0;0.0
1295;0.0;0.0;0.0;-0.260591983795166;-0.16103999316692352;1.1838879585266113;0.0;0.0;0.0
1297;-0.4143120050430298;-0.03171999752521515;1.0721359252929688;-0.2332639992237091;-0.1727519929409027;1.1926720142364502;-20.400623321533203;-58.47624969482422;-34.89500045776367
1299;0.0;0.0;0.0;-0.24887999892234802;-0.1727519929409027;1.1799839735031128;0.0;0.0;0.0
1301;0.0;0.0;0.0;-0.22935999929904938;-0.16884799301624298;1.1799839735031128;0.0;0.0;0.0
1303;0.0;0.0;0.0;-0.24107199907302856;-0.16884799301624298;1.1516799926757812;0.0;0.0;0.0
1306;-0.36111998558044434;-0.040748000144958496;1.0374879837036133;-0.2176479995250702;-0.1844639927148819;1.139967918395996;-14.73062515258789;-60.29624938964844;-29.854999542236328
1308;0.0;0.0;0.0;-0.22155199944972992;-0.17665599286556244;1.1360639333724976;0.0;0.0;0.0
1310;0.0;0.0;0.0;-0.20983999967575073;-0.20398399233818054;1.1477760076522827;0.0;0.0;0.0
1312;0.0;0.0;0.0;-0.1903200000524521;-0.21569599211215973;1.1272799968719482;0.0;0.0;0.0
1314;-0.3106119930744171;-0.057339999824762344;1.0043039321899414;-0.14347200095653534;-0.1844639927148819;1.1028800010681152;-9.060625076293945;-59.03624725341797;-25.30500030517578
1316;0.0;0.0;0.0;-0.14347200095653534;-0.19227199256420135;1.115567922592163;0.0;0.0;0.0
1318;0.0;0.0;0.0;-0.1239520013332367;-0.22740799188613892;1.0872639417648315;0.0;0.0;0.0
1320;0.0;0.0;0.0;-0.10833600163459778;-0.2391199916601181;1.0706720352172852;0.0;0.0;0.0
1323;-0.2479040026664734;-0.0936959981918335;0.9555040001869202;-0.09759999811649323;-0.2547360062599182;1.0501760244369507;-3.320625066757202;-55.53624725341797;-22.295000076293945
1325;0.0;0.0;0.0;-0.09272000193595886;-0.27035200595855713;1.0384639501571655;0.0;0.0;0.0
1327;0.0;0.0;0.0;-0.09662400186061859;-0.27425599098205566;1.0462720394134521;0.0;0.0;0.0
1329;0.0;0.0;0.0;-0.07417599856853485;-0.28596800565719604;1.0628639459609985;0.0;0.0;0.0
1331;-0.20666798949241638;-0.13005200028419495;0.9201239943504333;-0.07417599856853485;-0.27035200595855713;1.042367935180664;2.6293749809265137;-50.426246643066406;-20.545000076293945
1333;0.0;0.0;0.0;-0.0663679987192154;-0.2781600058078766;1.0384639501571655;0.0;0.0;0.0
1335;0.0;0.0;0.0;-0.07417599856853485;-0.2391199916601181;1.0462720394134521;0.0;0.0;0.0
1337;0.0;0.0;0.0;-0.03903999924659729;-0.2547360062599182;1.0501760244369507;0.0;0.0;0.0
1340;-0.1751919984817505;-0.1332239955663681;0.9137799739837646;-0.04294399917125702;-0.26254400610923767;1.0628639459609985;7.38937520980835;-45.24625015258789;-19.985000610351562
1342;0.0;0.0;0.0;-0.015615999698638916;-0.24692799150943756;1.0501760244369507;0.0;0.0;0.0
1344;0.0;0.0;0.0;-0.011711999773979187;-0.2547360062599182;1.0706720352172852;0.0;0.0;0.0
1346;0.0;0.0;0.0;0.007807999849319458;-0.2235039919614792;1.115567922592163;0.0;0.0;0.0
1348;-0.13981199264526367;-0.10101599991321564;0.9452559947967529;-0.003903999924659729;-0.21959999203681946;1.0989760160446167;8.439374923706055;-39.78624725341797;-19.565000534057617
1350;0.0;0.0;0.0;-0.007807999849319458;-0.19227199256420135;1.1438720226287842;0.0;0.0;0.0
1352;0.0;0.0;0.0;-0.003903999924659729;-0.18836799263954163;1.1516799926757812;0.0;0.0;0.0
1354;0.0;0.0;0.0;0.007807999849319458;-0.18055999279022217;1.1555839776992798;0.0;0.0;0.0
1357;-0.12053599953651428;-0.052947998046875;1.0187000036239624;-0.015615999698638916;-0.15323199331760406;1.1682720184326172;4.589375019073486;-35.096248626708984;-18.094999313354492
1359;0.0;0.0;0.0;0.003903999924659729;-0.15323199331760406;1.1799839735031128;0.0;0.0;0.0
1361;0.0;0.0;0.0;-0.007807999849319458;-0.11419199407100677;1.2414720058441162;0.0;0.0;0.0
1363;0.0;0.0;0.0;-0.003903999924659729;-0.09857599437236786;1.2492799758911133;0.0;0.0;0.0
1365;-0.12931999564170837;0.0009759999811649323;1.0872639417648315;-0.019519999623298645;-0.12590399384498596;1.2404959201812744;-4.860625267028809;-33.13624954223633;-17.045000076293945
1367;0.0;0.0;0.0;-0.04294399917125702;-0.08686399459838867;1.2658720016479492;0.0;0.0;0.0
1369;0.0;0.0;0.0;-0.03513599932193756;-0.10638399422168732;1.2658720016479492;0.0;0.0;0.0
1371;0.0;0.0;0.0;-0.054655998945236206;-0.10638399422168732;1.3058879375457764;0.0;0.0;0.0
1374;-0.16494399309158325;0.03635599836707115;1.1448479890823364;-0.054655998945236206;-0.09467199444770813;1.309791922569275;-17.740623474121094;-34.81624984741211;-15.644999504089355
1376;0.0;0.0;0.0;-0.08198399841785431;-0.10638399422168732;1.28929603099823;0.0;0.0;0.0
1378;0.0;0.0;0.0;-0.09662400186061859;-0.0907679945230484;1.3185759782791138;0.0;0.0;0.0
1380;0.0;0.0;0.0;-0.12785600125789642;-0.09857599437236786;1.28929603099823;0.0;0.0;0.0
1382;-0.21130399405956268;0.037331998348236084;1.173151969909668;-0.09272000193595886;-0.12199999392032623;1.3263839483261108;-28.940624237060547;-39.57624816894531;-14.944999694824219
1384;0.0;0.0;0.0;-0.0849120020866394;-0.10247999429702759;1.2736799716949463;0.0;0.0;0.0
1386;0.0;0.0;0.0;-0.054655998945236206;-0.11419199407100677;1.2736799716949463;0.0;0.0;0.0
1388;0.0;0.0;0.0;-0.03903999924659729;-0.11028799414634705;1.2492799758911133;0.0;0.0;0.0
1391;-0.19007599353790283;0.007807999849319458;1.1282559633255005;-0.03903999924659729;-0.14932799339294434;1.2082879543304443;-34.05062484741211;-45.526248931884766;-16.41499900817871
1393;0.0;0.0;0.0;-0.023423999547958374;-0.1727519929409027;1.1760799884796143;0.0;0.0;0.0
1395;0.0;0.0;0.0;0.011711999773979187;-0.1727519929409027;1.1555839776992798;0.0;0.0;0.0
1397;0.0;0.0;0.0;0.062463998794555664;-0.19227199256420135;1.1116639375686646;0.0;0.0;0.0
1399;-0.11370399594306946;-0.04440800100564957;1.0257760286331177;0.062463998794555664;-0.20398399233818054;1.1116639375686646;-31.18062400817871;-48.04624938964844;-19.354999542236328
1401;0.0;0.0;0.0;0.03903999924659729;-0.1844639927148819;1.0989760160446167;0.0;0.0;0.0
1403;0.0;0.0;0.0;0.08198399841785431;-0.19617599248886108;1.0462720394134521;0.0;0.0;0.0
1406;0.0;0.0;0.0;0.10931199789047241;-0.18055999279022217;1.0462720394134521;0.0;0.0;0.0
1408;-0.03537999838590622;-0.06465999782085419;0.9408639669418335;0.09759999811649323;-0.18055999279022217;1.0589599609375;-22.220624923706055;-43.28624725341797;-22.434999465942383
1410;0.0;0.0;0.0;0.1327359974384308;-0.18055999279022217;1.042367935180664;0.0;0.0;0.0
1412;0.0;0.0;0.0;0.10540799796581268;-0.16884799301624298;1.0306559801101685;0.0;0.0;0.0
1414;0.0;0.0;0.0;0.0936959981918335;-0.18836799263954163;1.0062559843063354;0.0;0.0;0.0
1416;-0.011467999778687954;-0.04416399821639061;0.9018239974975586;0.0936959981918335;-0.1727519929409027;1.0218719244003296;-11.370625495910645;-31.596250534057617;-24.674999237060547
1418;0.0;0.0;0.0;0.09759999811649323;-0.1571359932422638;0.9935680031776428;0.0;0.0;0.0
1420;0.0;0.0;0.0;0.11321599781513214;-0.15323199331760406;1.0140639543533325;0.0;0.0;0.0
1422;0.0;0.0;0.0;0.13663999736309052;-0.1298079937696457;1.0218719244003296;0.0;0.0;0.0
1425;-0.02122800052165985;-0.0004879999905824661;0.88401198387146;0.08198399841785431;-0.08295999467372894;1.0384639501571655;-0.6606249809265137;-20.11625099182129;-25.30500030517578
1427;0.0;0.0;0.0;0.07417599856853485;-0.10247999429702759;1.0257760286331177;0.0;0.0;0.0
1429;0.0;0.0;0.0;0.09759999811649323;-0.05172799900174141;1.0296800136566162;0.0;0.0;0.0
1431;0.0;0.0;0.0;0.09759999811649323;-0.06734399497509003;1.0296800136566162;0.0;0.0;0.0
1433;-0.03415999934077263;0.060999996960163116;0.9008479714393616;0.08979199826717377;-0.024399999529123306;1.0706720352172852;7.739375114440918;-12.626250267028809;-23.41499900817871
1435;0.0;0.0;0.0;0.07807999849319458;-0.032207999378442764;1.0628639459609985;0.0;0.0;0.0
1437;0.0;0.0;0.0;0.08198399841785431;-0.03611199930310249;1.0501760244369507;0.0;0.0;0.0
1439;0.0;0.0;0.0;0.07417599856853485;0.0029279999434947968;1.0950720310211182;0.0;0.0;0.0
1442;-0.054655998945236206;0.11101999878883362;0.9350079894065857;0.08198399841785431;0.014639999717473984;1.0784800052642822;12.009374618530273;-8.706250190734863;-20.264999389648438
1444;0.0;0.0;0.0;0.08979199826717377;0.018543999642133713;1.0950720310211182;0.0;0.0;0.0
1446;0.0;0.0;0.0;0.04294399917125702;0.03415999934077263;1.1311839818954468;0.0;0.0;0.0
1448;0.0;0.0;0.0;0.027327999472618103;0.07710400223731995;1.1350879669189453;0.0;0.0;0.0
1450;-0.060999996960163116;0.17494799196720123;0.9891759753227234;0.07807999849319458;0.06929600238800049;1.1555839776992798;12.569375038146973;-7.236250400543213;-17.2549991607666
1452;0.0;0.0;0.0;0.054655998945236206;0.09272000193595886;1.1594879627227783;0.0;0.0;0.0
1454;0.0;0.0;0.0;0.04294399917125702;0.12004800140857697;1.1721760034561157;0.0;0.0;0.0
1457;0.0;0.0;0.0;0.10150399804115295;0.09272000193595886;1.1555839776992798;0.0;0.0;0.0
1459;-0.06368400156497955;0.234484001994133;1.035048007965088;0.03903999924659729;0.09662400186061859;1.1838879585266113;8.229374885559082;-7.096250057220459;-16.41499900817871
1461;0.0;0.0;0.0;0.08588799834251404;0.11224000155925751;1.1799839735031128;0.0;0.0;0.0
1463;0.0;0.0;0.0;0.12492799758911133;0.10052800178527832;1.1594879627227783;0.0;0.0;0.0
1465;0.0;0.0;0.0;0.0936959981918335;0.09272000193595886;1.1721760034561157;0.0;0.0;0.0
1467;-0.01903199963271618;0.240339994430542;1.042367935180664;0.12883199751377106;0.10833600163459778;1.1477760076522827;1.3693749904632568;-7.93625020980835;-17.674999237060547
1469;0.0;0.0;0.0;0.1327359974384308;0.07710400223731995;1.1555839776992798;0.0;0.0;0.0
1471;0.0;0.0;0.0;0.08198399841785431;0.09662400186061859;1.1477760076522827;0.0;0.0;0.0
1474;0.0;0.0;0.0;0.1210239976644516;0.09272000193595886;1.1272799968719482;0.0;0.0;0.0
1476;0.0;0.22545599937438965;1.0157719850540161;0.12883199751377106;0.06929600238800049;1.1350879669189453;-4.650625228881836;-8.2162504196167;-17.184999465942383
1478;0.0;0.0;0.0;0.1210239976644516;0.10443200170993805;1.1311839818954468;0.0;0.0;0.0
1480;0.0;0.0;0.0;0.10150399804115295;0.10052800178527832;1.1350879669189453;0.0;0.0;0.0
1482;0.0;0.0;0.0;0.08588799834251404;0.10443200170993805;1.1272799968719482;0.0;0.0;0.0
1484;-0.01512799970805645;0.22545599937438965;0.998691976070404;0.10540799796581268;0.12004800140857697;1.1233760118484497;-8.220624923706055;-6.816250324249268;-16.905000686645508
1486;0.0;0.0;0.0;0.08979199826717377;0.15518400073051453;1.1233760118484497;0.0;0.0;0.0
1488;0.0;0.0;0.0;0.13663999736309052;0.1395680010318756;1.1311839818954468;0.0;0.0;0.0
1491;0.0;0.0;0.0;0.12492799758911133;0.049775999039411545;1.0628639459609985;0.0;0.0;0.0
1493;0.007563999854028225;0.24473199248313904;0.9835639595985413;0.10150399804115295;0.10833600163459778;1.0950720310211182;-8.990625381469727;-5.486250400543213;-16.485000610351562
1495;0.0;0.0;0.0;0.19422399997711182;0.14347200095653534;1.1067839860916138;0.0;0.0;0.0
1497;0.0;0.0;0.0;0.17470400035381317;0.12004800140857697;1.0706720352172852;0.0;0.0;0.0
1499;0.0;0.0;0.0;0.13663999736309052;0.07320000231266022;1.042367935180664;0.0;0.0;0.0
1501;0.02903600037097931;0.23838800191879272;0.9403759837150574;0.11711999773979187;0.10833600163459778;1.0540800094604492;-6.890625;-2.40625;-16.485000610351562
1503;0.0;0.0;0.0;0.11711999773979187;0.13176000118255615;1.0706720352172852;0.0;0.0;0.0
1505;0.0;0.0;0.0;0.10931199789047241;0.15518400073051453;1.0628639459609985;0.0;0.0;0.0
1508;0.0;0.0;0.0;0.08198399841785431;0.12785600125789642;1.0540800094604492;0.0;0.0;0.0
1510;-0.02513200044631958;0.2676680088043213;0.9320799708366394;0.08198399841785431;0.16299200057983398;1.0784800052642822;-4.440625190734863;1.5837500095367432;-16.834999084472656
1512;0.0;0.0;0.0;0.07807999849319458;0.17470400035381317;1.0462720394134521;0.0;0.0;0.0
1514;0.0;0.0;0.0;0.054655998945236206;0.15908800065517426;1.0540800094604492;0.0;0.0;0.0
1516;0.0;0.0;0.0;0.07027199864387512;0.1786080002784729;1.0589599609375;0.0;0.0;0.0
1518;-0.054899998009204865;0.2996319830417633;0.9320799708366394;0.0663679987192154;0.15518400073051453;1.0501760244369507;-3.6706249713897705;3.7537500858306885;-18.514999389648438
1520;0.0;0.0;0.0;0.0663679987192154;0.22545599937438965;1.0784800052642822;0.0;0.0;0.0
1522;0.0;0.0;0.0;0.08979199826717377;0.1786080002784729;1.066767930984497;0.0;0.0;0.0
1525;0.0;0.0;0.0;0.0663679987192154;0.18641600012779236;1.0384639501571655;0.0;0.0;0.0
1527;-0.05148399993777275;0.31963998079299927;0.9264679551124573;0.04294399917125702;0.21374399960041046;1.0589599609375;-2.130625009536743;4.243749618530273;-18.934999465942383
1529;0.0;0.0;0.0;0.08588799834251404;0.19812799990177155;1.0540800094604492;0.0;0.0;0.0
1531;0.0;0.0;0.0;0.0936959981918335;0.205935999751091;1.034559965133667;0.0;0.0;0.0
1533;0.0;0.0;0.0;0.08588799834251404;0.260591983795166;1.0384639501571655;0.0;0.0;0.0
1535;-0.02659599855542183;0.3442839980125427;0.9149999618530273;0.11321599781513214;0.22155199944972992;1.042367935180664;0.6693750023841858;2.5637500286102295;-16.834999084472656
1537;0.0;0.0;0.0;0.11321599781513214;0.20983999967575073;1.0384639501571655;0.0;0.0;0.0
1539;0.0;0.0;0.0;0.10931199789047241;0.2332639992237091;1.042367935180664;0.0;0.0;0.0
1542;0.0;0.0;0.0;0.14444799721240997;0.23716799914836884;1.042367935180664;0.0;0.0;0.0
1544;0.006099999882280827;0.358924001455307;0.9032880067825317;0.14444799721240997;0.2332639992237091;1.034559965133667;3.469374895095825;1.6537500619888306;-13.404999732971191
1546;0.0;0.0;0.0;0.15908800065517426;0.20983999967575073;1.042367935180664;0.0;0.0;0.0
1548;0.0;0.0;0.0;0.1668960005044937;0.22155199944972992;1.0589599609375;0.0;0.0;0.0
1550;0.0;0.0;0.0;0.1903200000524521;0.260591983795166;1.0628639459609985;0.0;0.0;0.0
1552;0.052947998046875;0.37258797883987427;0.9230519533157349;0.19422399997711182;0.29572799801826477;1.0950720310211182;4.869374752044678;3.2637500762939453;-9.694999694824219
1554;0.0;0.0;0.0;0.2176479995250702;0.260591983795166;1.0628639459609985;0.0;0.0;0.0
1556;0.0;0.0;0.0;0.2449759989976883;0.29572799801826477;1.09116792678833;0.0;0.0;0.0
1559;0.0;0.0;0.0;0.23716799914836884;0.25278398394584656;1.0872639417648315;0.0;0.0;0.0
1561;0.10931199789047241;0.4025999903678894;0.9513559937477112;0.24887999892234802;0.2566879987716675;1.0745760202407837;3.9593749046325684;6.06374979019165;-4.304999828338623
1563;0.0;0.0;0.0;0.25278398394584656;0.25278398394584656;1.083359956741333;0.0;0.0;0.0
1565;0.0;0.0;0.0;0.2840159833431244;0.25278398394584656;1.0872639417648315;0.0;0.0;0.0
1567;0.0;0.0;0.0;0.2879199981689453;0.2840159833431244;1.0872639417648315;0.0;0.0;0.0
1569;0.15786799788475037;0.3925960063934326;0.9501360058784485;0.31915199756622314;0.22545599937438965;1.0745760202407837;2.559375047683716;11.0337495803833;2.9049999713897705
1571;0.0;0.0;0.0;0.3269599974155426;0.24887999892234802;1.09116792678833;0.0;0.0;0.0
1573;0.0;0.0;0.0;0.3230559825897217;0.25278398394584656;1.0745760202407837;0.0;0.0;0.0
1576;0.0;0.0;0.0;0.3542879819869995;0.24107199907302856;1.0628639459609985;0.0;0.0;0.0
1578;0.2130119949579239;0.37551599740982056;0.941107988357544;0.350383996963501;0.23716799914836884;1.0462720394134521;3.119374990463257;17.193750381469727;11.9350004196167
1580;0.0;0.0;0.0;0.35819199681282043;0.24107199907302856;1.0296800136566162;0.0;0.0;0.0
1582;0.0;0.0;0.0;0.33086398243904114;0.22545599937438965;1.0540800094604492;0.0;0.0;0.0
1584;0.0;0.0;0.0;0.33476799726486206;0.205935999751091;1.0384639501571655;0.0;0.0;0.0
1586;0.2374119907617569;0.3520919978618622;0.9169519543647766;0.3542879819869995;0.2176479995250702;1.034559965133667;4.869374752044678;23.983749389648438;19.704999923706055
1588;0.0;0.0;0.0;0.3659999966621399;0.22545599937438965;1.0052800178527832;0.0;0.0;0.0
1590;0.0;0.0;0.0;0.3542879819869995;0.20983999967575073;1.0296800136566162;0.0;0.0;0.0
1593;0.0;0.0;0.0;0.35819199681282043;0.16299200057983398;0.9818559885025024;0.0;0.0;0.0
1595;0.2391199916601181;0.32964399456977844;0.8810839653015137;0.35819199681282043;0.20203199982643127;1.0013760328292847;7.949375152587891;30.63374900817871;23.344999313354492
1597;0.0;0.0;0.0;0.3542879819869995;0.19812799990177155;0.9896639585494995;0.0;0.0;0.0
1599;0.0;0.0;0.0;0.35819199681282043;0.19422399997711182;0.9652639627456665;0.0;0.0;0.0
1601;0.0;0.0;0.0;0.3777119815349579;0.19812799990177155;0.9730719923973083;0.0;0.0;0.0
1603;0.25522398948669434;0.334524005651474;0.8520479798316956;0.38551998138427734;0.1903200000524521;0.9974719882011414;11.7993745803833;34.55375289916992;26.075000762939453
1605;0.0;0.0;0.0;0.38942399621009827;0.20983999967575073;0.9769759774208069;0.0;0.0;0.0
1607;0.0;0.0;0.0;0.3972319960594177;0.22935999929904938;0.9769759774208069;0.0;0.0;0.0
1610;0.0;0.0;0.0;0.4089439809322357;0.22545599937438965;0.9896639585494995;0.0;0.0;0.0
1612;0.2764520049095154;0.3572160005569458;0.8498519659042358;0.3933279812335968;0.24107199907302856;1.0052800178527832;14.039375305175781;37.913753509521484;28.595001220703125
1614;0.0;0.0;0.0;0.41967999935150146;0.2449759989976883;0.985759973526001;0.0;0.0;0.0
1616;0.0;0.0;0.0;0.4167519807815552;0.2566879987716675;1.010159969329834;0.0;0.0;0.0
1618;0.0;0.0;0.0;0.43139198422431946;0.24107199907302856;1.042367935180664;0.0;0.0;0.0
1620;0.29231199622154236;0.3742959797382355;0.8759599924087524;0.4089439809322357;0.24107199907302856;1.010159969329834;13.619375228881836;42.11375045776367;31.885000228881836
1622;0.0;0.0;0.0;0.3777119815349579;0.24107199907302856;1.0462720394134521;0.0;0.0;0.0
1624;0.0;0.0;0.0;0.3699039816856384;0.22935999929904938;1.0384639501571655;0.0;0.0;0.0
1627;0.0;0.0;0.0;0.35819199681282043;0.2332639992237091;1.034559965133667;0.0;0.0;0.0
1629;0.27596399188041687;0.36844000220298767;0.9167079925537109;0.3777119815349579;0.22935999929904938;1.0462720394134521;12.429374694824219;45.61375045776367;36.3650016784668
1631;0.0;0.0;0.0;0.38942399621009827;0.22935999929904938;1.0745760202407837;0.0;0.0;0.0
1633;0.0;0.0;0.0;0.3659999966621399;0.23716799914836884;1.09116792678833;0.0;0.0;0.0
1635;0.0;0.0;0.0;0.35819199681282043;0.22545599937438965;1.09116792678833;0.0;0.0;0.0
1637;0.2588839828968048;0.3474559783935547;0.9584319591522217;0.3699039816856384;0.21374399960041046;1.1116639375686646;12.709375381469727;46.243751525878906;40.494998931884766
1639;0.0;0.0;0.0;0.4050399959087372;0.18641600012779236;1.1194720268249512;0.0;0.0;0.0
1642;0.0;0.0;0.0;0.38551998138427734;0.18251200020313263;1.1116639375686646;0.0;0.0;0.0
1644;0.0;0.0;0.0;0.38551998138427734;0.17080000042915344;1.1028800010681152;0.0;0.0;0.0
1646;0.25863999128341675;0.3169559836387634;0.9852719902992249;0.3816159963607788;0.1668960005044937;1.1272799968719482;14.6693754196167;44.28375244140625;45.1150016784668
1648;0.0;0.0;0.0;0.38551998138427734;0.15908800065517426;1.1194720268249512;0.0;0.0;0.0
1650;0.0;0.0;0.0;0.3816159963607788;0.16299200057983398;1.115567922592163;0.0;0.0;0.0
1652;0.0;0.0;0.0;0.40113598108291626;0.13176000118255615;1.1233760118484497;0.0;0.0;0.0
1654;0.2676680088043213;0.2786479890346527;0.9989359974861145;0.38942399621009827;0.14737600088119507;1.1116639375686646;17.329376220703125;42.04375076293945;47.98500061035156
1656;0.0;0.0;0.0;0.41284799575805664;0.10833600163459778;1.139967918395996;0.0;0.0;0.0
1659;0.0;0.0;0.0;0.3972319960594177;0.09272000193595886;1.1477760076522827;0.0;0.0;0.0
1661;0.0;0.0;0.0;0.41967999935150146;0.10833600163459778;1.1272799968719482;0.0;0.0;0.0
1663;0.2896279990673065;0.23228800296783447;1.0069879293441772;0.4050399959087372;0.07710400223731995;1.115567922592163;19.709375381469727;40.85375213623047;49.875
1665;0.0;0.0;0.0;0.423583984375;0.06929600238800049;1.1555839776992798;0.0;0.0;0.0
1667;0.0;0.0;0.0;0.4626239836215973;0.06539200246334076;1.1594879627227783;0.0;0.0;0.0
1669;0.0;0.0;0.0;0.4899519979953766;0.057583998888731;1.1555839776992798;0.0;0.0;0.0
1671;0.3374519944190979;0.1908079981803894;1.022603988647461;0.45481598377227783;0.057583998888731;1.1643680334091187;20.689376831054688;39.52375030517578;50.994998931884766
1674;0.0;0.0;0.0;0.4626239836215973;0.0302559994161129;1.1516799926757812;0.0;0.0;0.0
1676;0.0;0.0;0.0;0.48214399814605713;0.014639999717473984;1.1555839776992798;0.0;0.0;0.0
1678;0.0;0.0;0.0;0.49775999784469604;-0.024399999529123306;1.1594879627227783;0.0;0.0;0.0
1680;0.37844398617744446;0.13859200477600098;1.028216004371643;0.5407040119171143;-0.01268799975514412;1.1477760076522827;20.19937515258789;38.12375259399414;49.10499954223633
1682;0.0;0.0;0.0;0.536799967288971;-0.032207999378442764;1.1555839776992798;0.0;0.0;0.0
1684;0.0;0.0;0.0;0.5758399963378906;-0.04391999915242195;1.1643680334091187;0.0;0.0;0.0
1686;0.0;0.0;0.0;0.6070719957351685;-0.01659199967980385;1.1594879627227783;0.0;0.0;0.0
1688;0.45823198556900024;0.10272400081157684;1.0182119607925415;0.6148799657821655;-0.024399999529123306;1.1721760034561157;19.849376678466797;36.93375015258789;46.025001525878906
1691;0.0;0.0;0.0;0.6265919804573059;-0.04391999915242195;1.1555839776992798;0.0;0.0;0.0
1693;0.0;0.0;0.0;0.610975980758667;-0.01268799975514412;1.1477760076522827;0.0;0.0;0.0
1695;0.0;0.0;0.0;0.6578239798545837;0.0029279999434947968;1.1555839776992798;0.0;0.0;0.0
1697;0.5123999714851379;0.11248400062322617;1.0338280200958252;0.6265919804573059;0.018543999642133713;1.1643680334091187;18.169376373291016;37.493751525878906;43.3650016784668
1699;0.0;0.0;0.0;0.6529439687728882;-0.0009759999811649323;1.2121919393539429;0.0;0.0;0.0
1701;0.0;0.0;0.0;0.6724640130996704;0.022447999566793442;1.2492799758911133;0.0;0.0;0.0
1703;0.0;0.0;0.0;0.6539199948310852;-0.004879999905824661;1.2248799800872803;0.0;0.0;0.0
1705;0.5426560044288635;0.15054799616336823;1.0814080238342285;0.6685599684715271;0.04196799919009209;1.2287839651107788;13.5493745803833;39.7337532043457;40.07500076293945
1708;0.0;0.0;0.0;0.684175968170166;0.06148799881339073;1.2658720016479492;0.0;0.0;0.0
1710;0.0;0.0;0.0;0.6646559834480286;0.04196799919009209;1.2531839609146118;0.0;0.0;0.0
1712;0.0;0.0;0.0;0.6802719831466675;0.04196799919009209;1.285391926765442;0.0;0.0;0.0
1714;0.5599799752235413;0.18007199466228485;1.1226439476013184;0.66075199842453;0.0302559994161129;1.2453759908676147;8.719374656677246;41.34375;38.1150016784668
1716;0.0;0.0;0.0;0.6422079801559448;0.0302559994161129;1.2414720058441162;0.0;0.0;0.0
1718;0.0;0.0;0.0;0.6148799657821655;-0.028303999453783035;1.2375680208206177;0.0;0.0;0.0
1720;0.0;0.0;0.0;0.5992639660835266;-0.028303999453783035;1.2531839609146118;0.0;0.0;0.0
1722;0.5053240060806274;0.13590799272060394;1.1106879711151123;0.5797439813613892;-0.07515199482440948;1.2287839651107788;6.82937479019165;42.39375305175781;35.875
1725;0.0;0.0;0.0;0.5641279816627502;-0.04001599922776222;1.2170720100402832;0.0;0.0;0.0
1727;0.0;0.0;0.0;0.5524159669876099;-0.0907679945230484;1.2248799800872803;0.0;0.0;0.0
1729;0.0;0.0;0.0;0.48604798316955566;-0.05172799900174141;1.2121919393539429;0.0;0.0;0.0
1731;0.4260239899158478;0.07661599665880203;1.083847999572754;0.536799967288971;-0.07905599474906921;1.2121919393539429;10.329375267028809;40.29375076293945;29.9950008392334
1733;0.0;0.0;0.0;0.4938559830188751;-0.07905599474906921;1.1682720184326172;0.0;0.0;0.0
1735;0.0;0.0;0.0;0.4782399833202362;-0.04001599922776222;1.1887680292129517;0.0;0.0;0.0
1737;0.0;0.0;0.0;0.49775999784469604;-0.07515199482440948;1.1926720142364502;0.0;0.0;0.0
1739;0.3677079975605011;0.06758800148963928;1.048956036567688;0.47043198347091675;-0.07124799489974976;1.1760799884796143;16.279375076293945;35.18375015258789;21.875
1742;0.0;0.0;0.0;0.45871999859809875;-0.05172799900174141;1.1516799926757812;0.0;0.0;0.0
1744;0.0;0.0;0.0;0.47433599829673767;-0.032207999378442764;1.1516799926757812;0.0;0.0;0.0
1746;0.0;0.0;0.0;0.4470079839229584;-0.028303999453783035;1.139967918395996;0.0;0.0;0.0
1748;0.34477198123931885;0.08686399459838867;1.016260027885437;0.45481598377227783;-0.01659199967980385;1.1360639333724976;21.879375457763672;31.9637508392334;13.545000076293945
1750;0.0;0.0;0.0;0.4626239836215973;-0.00878399983048439;1.139967918395996;0.0;0.0;0.0
1752;0.0;0.0;0.0;0.44310399889945984;-0.024399999529123306;1.1194720268249512;0.0;0.0;0.0
1754;0.0;0.0;0.0;0.48214399814605713;-0.00878399983048439;1.0823839902877808;0.0;0.0;0.0
1756;0.34306398034095764;0.12346399575471878;0.9852719902992249;0.45481598377227783;0.014639999717473984;1.0989760160446167;26.359376907348633;33.29375076293945;6.755000114440918
1759;0.0;0.0;0.0;0.4509119987487793;0.018543999642133713;1.0589599609375;0.0;0.0;0.0
1761;0.0;0.0;0.0;0.45481598377227783;0.010735999792814255;1.0628639459609985;0.0;0.0;0.0
1763;0.0;0.0;0.0;0.47043198347091675;0.022447999566793442;1.0384639501571655;0.0;0.0;0.0
1765;0.33647599816322327;0.15054799616336823;0.9303719997406006;0.4391999840736389;0.06148799881339073;1.042367935180664;30.83937644958496;38.19375228881836;3.81499981880188
1767;0.0;0.0;0.0;0.41577598452568054;0.049775999039411545;1.0306559801101685;0.0;0.0;0.0
1769;0.0;0.0;0.0;0.38942399621009827;0.04196799919009209;1.0140639543533325;0.0;0.0;0.0
1771;0.0;0.0;0.0;0.4001599848270416;0.08881600201129913;1.0501760244369507;0.0;0.0;0.0
1773;0.28547999262809753;0.18422000110149384;0.90938800573349;0.3542879819869995;0.07710400223731995;1.0462720394134521;35.17937469482422;44.493751525878906;6.055000305175781
1776;0.0;0.0;0.0;0.3425759971141815;0.06539200246334076;1.0706720352172852;0.0;0.0;0.0
1778;0.0;0.0;0.0;0.33476799726486206;0.06539200246334076;1.0823839902877808;0.0;0.0;0.0
1780;0.0;0.0;0.0;0.3386719822883606;0.12004800140857697;1.0872639417648315;0.0;0.0;0.0
1782;0.2269199937582016;0.2222839891910553;0.9515999555587769;0.33086398243904114;0.09272000193595886;1.1194720268249512;37.419376373291016;49.53375244140625;12.635000228881836
1784;0.0;0.0;0.0;0.3113439977169037;0.10833600163459778;1.1272799968719482;0.0;0.0;0.0
1786;0.0;0.0;0.0;0.3425759971141815;0.057583998888731;1.1477760076522827;0.0;0.0;0.0
1788;0.0;0.0;0.0;0.3269599974155426;0.09272000193595886;1.1643680334091187;0.0;0.0;0.0
1790;0.20739999413490295;0.21837998926639557;1.016260027885437;0.3230559825897217;0.09272000193595886;1.1682720184326172;36.509376525878906;53.45375061035156;20.755001068115234
1793;0.0;0.0;0.0;0.3152479827404022;0.0302559994161129;1.1760799884796143;0.0;0.0;0.0
1795;0.0;0.0;0.0;0.29572799801826477;0.03415999934077263;1.1926720142364502;0.0;0.0;0.0
1797;0.0;0.0;0.0;0.30743998289108276;0.010735999792814255;1.2004799842834473;0.0;0.0;0.0
1799;0.19349199533462524;0.17763200402259827;1.059448003768921;0.30353599786758423;0.0302559994161129;1.1887680292129517;34.61937713623047;54.78375244140625;28.17500114440918
1801;0.0;0.0;0.0;0.3152479827404022;0.018543999642133713;1.2004799842834473;0.0;0.0;0.0
1803;0.0;0.0;0.0;0.29182398319244385;0.006831999868154526;1.1965759992599487;0.0;0.0;0.0
1805;0.0;0.0;0.0;0.3113439977169037;0.0029279999434947968;1.2170720100402832;0.0;0.0;0.0
1807;0.18641600012779236;0.14444799721240997;1.087507963180542;0.30353599786758423;-0.03611199930310249;1.2248799800872803;33.079376220703125;52.19375228881836;33.07500076293945
1810;0.0;0.0;0.0;0.30353599786758423;-0.01659199967980385;1.2570879459381104;0.0;0.0;0.0
1812;0.0;0.0;0.0;0.2840159833431244;-0.04001599922776222;1.2414720058441162;0.0;0.0;0.0
1814;0.0;0.0;0.0;0.29572799801826477;-0.01268799975514412;1.2453759908676147;0.0;0.0;0.0
1816;0.18885599076747894;0.10077200084924698;1.1089799404144287;0.31915199756622314;-0.06734399497509003;1.2453759908676147;31.049375534057617;47.64375305175781;34.474998474121094
1818;0.0;0.0;0.0;0.33476799726486206;-0.05953599885106087;1.2326879501342773;0.0;0.0;0.0
1820;0.0;0.0;0.0;0.30743998289108276;-0.07905599474906921;1.2453759908676147;0.0;0.0;0.0
1822;0.0;0.0;0.0;0.31915199756622314;-0.07515199482440948;1.2492799758911133;0.0;0.0;0.0
1824;0.18665999174118042;0.05660799890756607;1.1058080196380615;0.2879199981689453;-0.0634399950504303;1.2414720058441162;28.24937629699707;42.883750915527344;31.954999923706055
1827;0.0;0.0;0.0;0.29572799801826477;-0.1298079937696457;1.2248799800872803;0.0;0.0;0.0
1829;0.0;0.0;0.0;0.29572799801826477;-0.10247999429702759;1.1926720142364502;0.0;0.0;0.0
1831;0.0;0.0;0.0;0.30353599786758423;-0.13371199369430542;1.1877919435501099;0.0;0.0;0.0
1833;0.18397599458694458;0.012931999750435352;1.0726239681243896;0.30743998289108276;-0.13761599361896515;1.1926720142364502;25.7293758392334;38.823753356933594;25.934999465942383
1835;0.0;0.0;0.0;0.2723039984703064;-0.14151999354362488;1.2043839693069458;0.0;0.0;0.0
1837;0.0;0.0;0.0;0.29572799801826477;-0.1180959939956665;1.1721760034561157;0.0;0.0;0.0
1839;0.0;0.0;0.0;0.29182398319244385;-0.12199999392032623;1.1799839735031128;0.0;0.0;0.0
1841;0.18519599735736847;0.005367999896407127;1.0521279573440552;0.29572799801826477;-0.12590399384498596;1.1682720184326172;24.53937530517578;35.813751220703125;18.514999389648438
1844;0.0;0.0;0.0;0.2996319830417633;-0.1298079937696457;1.139967918395996;0.0;0.0;0.0
1846;0.0;0.0;0.0;0.3113439977169037;-0.14151999354362488;1.139967918395996;0.0;0.0;0.0
1848;0.0;0.0;0.0;0.29572799801826477;-0.16494399309158325;1.1067839860916138;0.0;0.0;0.0
1850;0.18544000387191772;-0.016103999689221382;1.0052800178527832;0.30353599786758423;-0.16494399309158325;1.0950720310211182;23.559375762939453;35.04375076293945;11.654999732971191
1852;0.0;0.0;0.0;0.2840159833431244;-0.1844639927148819;1.0628639459609985;0.0;0.0;0.0
1854;0.0;0.0;0.0;0.29572799801826477;-0.16494399309158325;1.0579839944839478;0.0;0.0;0.0
1856;0.0;0.0;0.0;0.2840159833431244;-0.16884799301624298;1.0745760202407837;0.0;0.0;0.0
1858;0.17128799855709076;-0.04123599827289581;0.9381799697875977;0.2683999836444855;-0.16494399309158325;1.042367935180664;26.079376220703125;36.30375289916992;7.315000057220459
1861;0.0;0.0;0.0;0.2449759989976883;-0.13371199369430542;1.0745760202407837;0.0;0.0;0.0
1863;0.0;0.0;0.0;0.21374399960041046;-0.1180959939956665;1.066767930984497;0.0;0.0;0.0
1865;0.0;0.0;0.0;0.18251200020313263;-0.1180959939956665;1.0989760160446167;0.0;0.0;0.0
1867;0.0924759954214096;0.004391999915242195;0.9413520097732544;0.17470400035381317;-0.09857599437236786;1.09116792678833;29.509376525878906;37.9837532043457;7.664999961853027
1869;0.0;0.0;0.0;0.1210239976644516;-0.07515199482440948;1.1028800010681152;0.0;0.0;0.0
1871;0.0;0.0;0.0;0.11321599781513214;-0.07124799489974976;1.1233760118484497;0.0;0.0;0.0
1873;0.0;0.0;0.0;0.10150399804115295;-0.07124799489974976;1.0950720310211182;0.0;0.0;0.0
1875;0.003903999924659729;0.0558759979903698;0.981611967086792;0.0936959981918335;-0.004879999905824661;1.1555839776992798;29.439376831054688;37.563751220703125;10.395000457763672
1878;0.0;0.0;0.0;0.12883199751377106;-0.07124799489974976;1.1477760076522827;0.0;0.0;0.0
1880;0.0;0.0;0.0;0.09759999811649323;-0.05953599885106087;1.1516799926757812;0.0;0.0;0.0
1882;0.0;0.0;0.0;0.10540799796581268;-0.05172799900174141;1.1604639291763306;0.0;0.0;0.0
1884;-0.021959999576210976;0.08637599647045135;1.0196759700775146;0.07807999849319458;-0.04782399907708168;1.1799839735031128;25.7293758392334;34.413753509521484;15.364999771118164
1886;0.0;0.0;0.0;0.08198399841785431;-0.08686399459838867;1.1721760034561157;0.0;0.0;0.0
1888;0.0;0.0;0.0;0.1327359974384308;-0.09857599437236786;1.1477760076522827;0.0;0.0;0.0
1890;0.0;0.0;0.0;0.0936959981918335;-0.10247999429702759;1.1555839776992798;0.0;0.0;0.0
1892;-0.023667998611927032;0.04636000096797943;1.0318759679794312;0.08979199826717377;-0.10247999429702759;1.1838879585266113;20.33937644958496;30.353750228881836;21.104999542236328
1895;0.0;0.0;0.0;0.07807999849319458;-0.1298079937696457;1.1555839776992798;0.0;0.0;0.0
1897;0.0;0.0;0.0;0.07417599856853485;-0.16103999316692352;1.1594879627227783;0.0;0.0;0.0
1899;0.0;0.0;0.0;0.08198399841785431;-0.16494399309158325;1.1350879669189453;0.0;0.0;0.0
1901;-0.04513999819755554;-0.015371999703347683;1.0211399793624878;0.0663679987192154;-0.19617599248886108;1.1438720226287842;16.769376754760742;25.66374969482422;24.954999923706055
1903;0.0;0.0;0.0;0.07807999849319458;-0.17665599286556244;1.1311839818954468;0.0;0.0;0.0
1905;0.0;0.0;0.0;0.07807999849319458;-0.2117919921875;1.1233760118484497;0.0;0.0;0.0
1907;0.0;0.0;0.0;0.11321599781513214;-0.2235039919614792;1.1233760118484497;0.0;0.0;0.0
1909;-0.04440800100564957;-0.07710400223731995;1.0008879899978638;0.08979199826717377;-0.2391199916601181;1.1360639333724976;15.2993745803833;20.763750076293945;25.165000915527344
1912;0.0;0.0;0.0;0.10540799796581268;-0.25863999128341675;1.0989760160446167;0.0;0.0;0.0
1914;0.0;0.0;0.0;0.10150399804115295;-0.26254400610923767;1.0823839902877808;0.0;0.0;0.0
1916;0.0;0.0;0.0;0.09759999811649323;-0.2781600058078766;1.0950720310211182;0.0;0.0;0.0
1918;-0.013175999745726585;-0.1349319964647293;0.9679479598999023;0.14444799721240997;-0.2781600058078766;1.0745760202407837;15.369375228881836;17.613750457763672;21.94499969482422
1920;0.0;0.0;0.0;0.13663999736309052;-0.2937760055065155;1.0784800052642822;0.0;0.0;0.0
1922;0.0;0.0;0.0;0.15615999698638916;-0.3093920052051544;1.0628639459609985;0.0;0.0;0.0
1924;0.0;0.0;0.0;0.12492799758911133;-0.3172000050544739;1.0628639459609985;0.0;0.0;0.0
1926;0.017324000597000122;-0.17348399758338928;0.9335439801216125;0.1668960005044937;-0.3093920052051544;1.0501760244369507;16.629375457763672;17.4737491607666;18.30500030517578
1929;0.0;0.0;0.0;0.1210239976644516;-0.29767999053001404;1.0589599609375;0.0;0.0;0.0
1931;0.0;0.0;0.0;0.15615999698638916;-0.2898719906806946;1.0501760244369507;0.0;0.0;0.0
1933;0.0;0.0;0.0;0.1483519971370697;-0.34062400460243225;1.0501760244369507;0.0;0.0;0.0
1935;0.006587999872863293;-0.1878799945116043;0.9208559989929199;0.10931199789047241;-0.3211039900779724;1.034559965133667;18.029375076293945;18.52375030517578;13.195000648498535
1937;0.0;0.0;0.0;0.10931199789047241;-0.3484320044517517;1.066767930984497;0.0;0.0;0.0
1939;0.0;0.0;0.0;0.13663999736309052;-0.3640480041503906;1.042367935180664;0.0;0.0;0.0
1941;0.0;0.0;0.0;0.11711999773979187;-0.37966400384902954;1.0384639501571655;0.0;0.0;0.0
1943;-0.009027999825775623;-0.22740799188613892;0.9196360111236572;0.08979199826717377;-0.3601439893245697;1.0745760202407837;17.959375381469727;19.43375015258789;8.4350004196167
1946;0.0;0.0;0.0;0.08198399841785431;-0.3640480041503906;1.034559965133667;0.0;0.0;0.0
1948;0.0;0.0;0.0;0.07807999849319458;-0.3718560039997101;1.042367935180664;0.0;0.0;0.0
1950;0.0;0.0;0.0;0.058559998869895935;-0.399183988571167;1.034559965133667;0.0;0.0;0.0
1952;-0.045871999114751816;-0.24107199907302856;0.9108519554138184;0.031231999397277832;-0.3835679888725281;1.042367935180664;15.789375305175781;18.313749313354492;4.934999942779541
1954;0.0;0.0;0.0;0.0;-0.4030880033969879;1.0540800094604492;0.0;0.0;0.0
1956;0.0;0.0;0.0;-0.03903999924659729;-0.387472003698349;1.0501760244369507;0.0;0.0;0.0
1958;0.0;0.0;0.0;-0.05075199902057648;-0.4108960032463074;1.0706720352172852;0.0;0.0;0.0
1960;-0.15835599601268768;-0.2564440071582794;0.9164639711380005;-0.07027199864387512;-0.37966400384902954;1.0540800094604492;11.659375190734863;16.423749923706055;2.2049999237060547
1963;0.0;0.0;0.0;-0.10052800178527832;-0.4030880033969879;1.0784800052642822;0.0;0.0;0.0
1965;0.0;0.0;0.0;-0.12004800140857697;-0.3835679888725281;1.09116792678833;0.0;0.0;0.0
1967;0.0;0.0;0.0;-0.11614400148391724;-0.3757599890232086;1.1067839860916138;0.0;0.0;0.0
1969;-0.22252799570560455;-0.2513200044631958;0.9630680084228516;-0.10052800178527832;-0.387472003698349;1.1194720268249512;6.759375095367432;10.403749465942383;0.45500001311302185
1971;0.0;0.0;0.0;-0.11224000155925751;-0.39137598872184753;1.1272799968719482;0.0;0.0;0.0
1973;0.0;0.0;0.0;-0.09662400186061859;-0.3835679888725281;1.1477760076522827;0.0;0.0;0.0
1975;0.0;0.0;0.0;-0.11614400148391724;-0.399183988571167;1.1360639333724976;0.0;0.0;0.0
1977;-0.23301999270915985;-0.2642520070075989;1.0006439685821533;-0.11224000155925751;-0.4147999882698059;1.1311839818954468;0.039374999701976776;3.6837499141693115;0.6649999618530273
1980;0.0;0.0;0.0;-0.12004800140857697;-0.43432000279426575;1.1721760034561157;0.0;0.0;0.0
1982;0.0;0.0;0.0;-0.12004800140857697;-0.42260798811912537;1.1760799884796143;0.0;0.0;0.0
1984;0.0;0.0;0.0;-0.10443200170993805;-0.44993600249290466;1.1438720226287842;0.0;0.0;0.0
1986;-0.23375199735164642;-0.29767999053001404;1.034071922302246;-0.12004800140857697;-0.4811680018901825;1.1838879585266113;-7.100625038146973;-1.2862499952316284;0.45500001311302185
1988;0.0;0.0;0.0;-0.11224000155925751;-0.4382239878177643;1.1965759992599487;0.0;0.0;0.0
1990;0.0;0.0;0.0;-0.12785600125789642;-0.47336000204086304;1.1799839735031128;0.0;0.0;0.0
1992;0.0;0.0;0.0;-0.11614400148391724;-0.4772639870643616;1.1838879585266113;0.0;0.0;0.0
1994;-0.2391199916601181;-0.33842799067497253;1.0606679916381836;-0.1239520013332367;-0.4928799867630005;1.1838879585266113;-12.140625;-5.136250019073486;-0.38499999046325684
1997;0.0;0.0;0.0;-0.12004800140857697;-0.5045920014381409;1.2131680250167847;0.0;0.0;0.0
1999;0.0;0.0;0.0;-0.08881600201129913;-0.48897600173950195;1.2170720100402832;0.0;0.0;0.0
2001;0.0;0.0;0.0;-0.14347200095653534;-0.48897600173950195;1.2004799842834473;0.0;0.0;0.0
2003;-0.24131599068641663;-0.36575600504875183;1.0794559717178345;-0.11224000155925751;-0.5202080011367798;1.2121919393539429;-13.890625;-9.476250648498535;-3.6750001907348633
2005;0.0;0.0;0.0;-0.11224000155925751;-0.5006880164146423;1.2043839693069458;0.0;0.0;0.0
2007;0.0;0.0;0.0;-0.12004800140857697;-0.5475360155105591;1.2082879543304443;0.0;0.0;0.0
2009;0.0;0.0;0.0;-0.12004800140857697;-0.5241119861602783;1.1965759992599487;0.0;0.0;0.0
2011;-0.23985199630260468;-0.39186400175094604;1.0682319402694702;-0.11224000155925751;-0.5241119861602783;1.1760799884796143;-13.190625190734863;-14.726250648498535;-8.574999809265137
2014;0.0;0.0;0.0;-0.1239520013332367;-0.5514400005340576;1.1926720142364502;0.0;0.0;0.0
2016;0.0;0.0;0.0;-0.10052800178527832;-0.5670560002326965;1.1799839735031128;0.0;0.0;0.0
2018;0.0;0.0;0.0;-0.10052800178527832;-0.5319200158119202;1.1721760034561157;0.0;0.0;0.0
2020;-0.23350799083709717;-0.411871999502182;1.0418800115585327;-0.07807999849319458;-0.5553439855575562;1.1555839776992798;-10.600625038146973;-19.90625;-14.664999961853027
2022;0.0;0.0;0.0;-0.09662400186061859;-0.5475360155105591;1.1477760076522827;0.0;0.0;0.0
2024;0.0;0.0;0.0;-0.10052800178527832;-0.5475360155105591;1.1555839776992798;0.0;0.0;0.0
2026;0.0;0.0;0.0;-0.0849120020866394;-0.5397279858589172;1.1516799926757812;0.0;0.0;0.0
2028;-0.21911199390888214;-0.40357598662376404;1.0238239765167236;-0.08198399841785431;-0.5163040161132812;1.1311839818954468;-8.290624618530273;-23.33625030517578;-21.385000228881836
2031;0.0;0.0;0.0;-0.11614400148391724;-0.5358240008354187;1.1594879627227783;0.0;0.0;0.0
2033;0.0;0.0;0.0;-0.12004800140857697;-0.5084959864616394;1.1194720268249512;0.0;0.0;0.0
2035;0.0;0.0;0.0;-0.10833600163459778;-0.5202080011367798;1.1682720184326172;0.0;0.0;0.0
2037;-0.23472799360752106;-0.3781999945640564;1.0104039907455444;-0.1239520013332367;-0.5163040161132812;1.1311839818954468;-6.890625;-25.436250686645508;-27.614999771118164
2039;0.0;0.0;0.0;-0.1239520013332367;-0.4694559872150421;1.1116639375686646;0.0;0.0;0.0
2041;0.0;0.0;0.0;-0.1395680010318756;-0.4928799867630005;1.115567922592163;0.0;0.0;0.0
2043;0.0;0.0;0.0;-0.17080000042915344;-0.4967840015888214;1.0784800052642822;0.0;0.0;0.0
2045;-0.2588839828968048;-0.34989598393440247;0.9811239838600159;-0.16299200057983398;-0.44993600249290466;1.0989760160446167;-6.050624847412109;-27.95625114440918;-33.42499923706055
2048;0.0;0.0;0.0;-0.12004800140857697;-0.44993600249290466;1.0784800052642822;0.0;0.0;0.0
2050;0.0;0.0;0.0;-0.14737600088119507;-0.4538399875164032;1.0745760202407837;0.0;0.0;0.0
2052;0.0;0.0;0.0;-0.1512800008058548;-0.4421280026435852;1.0706720352172852;0.0;0.0;0.0
2054;-0.25986000895500183;-0.3037799894809723;0.9528200030326843;-0.13566400110721588;-0.4030880033969879;1.0823839902877808;-6.400625228881836;-29.56624984741211;-38.60499954223633
2056;0.0;0.0;0.0;-0.14737600088119507;-0.39137598872184753;1.066767930984497;0.0;0.0;0.0
2058;0.0;0.0;0.0;-0.12004800140857697;-0.36795198917388916;1.0823839902877808;0.0;0.0;0.0
2060;0.0;0.0;0.0;-0.13566400110721588;-0.37966400384902954;1.066767930984497;0.0;0.0;0.0
2063;-0.2542479932308197;-0.2432679980993271;0.9459879994392395;-0.14347200095653534;-0.32891198992729187;1.0745760202407837;-8.710624694824219;-29.846250534057617;-41.82500076293945
2065;0.0;0.0;0.0;-0.13566400110721588;-0.34062400460243225;1.083359956741333;0.0;0.0;0.0
2067;0.0;0.0;0.0;-0.1512800008058548;-0.3054879903793335;1.0950720310211182;0.0;0.0;0.0
2069;0.0;0.0;0.0;-0.14347200095653534;-0.29767999053001404;1.066767930984497;0.0;0.0;0.0
2071;-0.268887996673584;-0.1849519908428192;0.9476959705352783;-0.1395680010318756;-0.27425599098205566;1.0745760202407837;-13.120625495910645;-28.65625;-42.10499954223633
2073;0.0;0.0;0.0;-0.1668960005044937;-0.2898719906806946;1.1028800010681152;0.0;0.0;0.0
2075;0.0;0.0;0.0;-0.15908800065517426;-0.2664479911327362;1.066767930984497;0.0;0.0;0.0
2077;0.0;0.0;0.0;-0.17080000042915344;-0.2781600058078766;1.0745760202407837;0.0;0.0;0.0
2080;-0.2915799915790558;-0.1500599980354309;0.9481839537620544;-0.17470400035381317;-0.27035200595855713;1.09116792678833;-17.880624771118164;-26.556249618530273;-41.474998474121094
2082;0.0;0.0;0.0;-0.1668960005044937;-0.2937760055065155;1.09116792678833;0.0;0.0;0.0
2084;0.0;0.0;0.0;-0.19422399997711182;-0.27035200595855713;1.0589599609375;0.0;0.0;0.0
2086;0.0;0.0;0.0;-0.18251200020313263;-0.2547360062599182;1.0706720352172852;0.0;0.0;0.0
2088;-0.3054879903793335;-0.13419999182224274;0.945743978023529;-0.18641600012779236;-0.2898719906806946;1.066767930984497;-19.07062339782715;-24.5262508392334;-39.79499816894531
2090;0.0;0.0;0.0;-0.19812799990177155;-0.24302399158477783;1.0784800052642822;0.0;0.0;0.0
2092;0.0;0.0;0.0;-0.21374399960041046;-0.2508319914340973;1.0823839902877808;0.0;0.0;0.0
2094;0.0;0.0;0.0;-0.22155199944972992;-0.26254400610923767;1.1067839860916138;0.0;0.0;0.0
2097;-0.33940398693084717;-0.13005200028419495;0.9557479619979858;-0.24107199907302856;-0.25863999128341675;1.1028800010681152;-16.2706241607666;-23.47624969482422;-37.904998779296875
2099;0.0;0.0;0.0;-0.22155199944972992;-0.2508319914340973;1.1028800010681152;0.0;0.0;0.0
2101;0.0;0.0;0.0;-0.22935999929904938;-0.2781600058078766;1.0989760160446167;0.0;0.0;0.0
2103;0.0;0.0;0.0;-0.20983999967575073;-0.26254400610923767;1.0989760160446167;0.0;0.0;0.0
2105;-0.3496519923210144;-0.1273680031299591;0.965507984161377;-0.22935999929904938;-0.26254400610923767;1.1106879711151123;-11.580625534057617;-24.036251068115234;-37.415000915527344
2107;0.0;0.0;0.0;-0.24887999892234802;-0.27035200595855713;1.1194720268249512;0.0;0.0;0.0
2109;0.0;0.0;0.0;-0.23716799914836884;-0.24302399158477783;1.1194720268249512;0.0;0.0;0.0
2111;0.0;0.0;0.0;-0.24887999892234802;-0.2547360062599182;1.1116639375686646;0.0;0.0;0.0
2114;-0.3728320002555847;-0.1273680031299591;0.981611967086792;-0.27620798349380493;-0.24302399158477783;1.1272799968719482;-7.030624866485596;-25.08625030517578;-37.69499969482422
2116;0.0;0.0;0.0;-0.2840159833431244;-0.2547360062599182;1.1194720268249512;0.0;0.0;0.0
2118;0.0;0.0;0.0;-0.260591983795166;-0.2235039919614792;1.1233760118484497;0.0;0.0;0.0
2120;0.0;0.0;0.0;-0.2683999836444855;-0.23521599173545837;1.1272799968719482;0.0;0.0;0.0
2122;-0.3845439851284027;-0.10174799710512161;0.9877119660377502;-0.25278398394584656;-0.21569599211215973;1.1067839860916138;-4.300624847412109;-27.11625099182129;-38.39500045776367
2124;0.0;0.0;0.0;-0.26449599862098694;-0.19227199256420135;1.1233760118484497;0.0;0.0;0.0
2126;0.0;0.0;0.0;-0.28011199831962585;-0.20398399233818054;1.1233760118484497;0.0;0.0;0.0
2128;0.0;0.0;0.0;-0.260591983795166;-0.2117919921875;1.1272799968719482;0.0;0.0;0.0
2131;-0.39186400175094604;-0.07807999849319458;0.9896639585494995;-0.28011199831962585;-0.2000799924135208;1.1067839860916138;-4.020625114440918;-29.49625015258789;-38.744998931884766
2133;0.0;0.0;0.0;-0.2566879987716675;-0.2235039919614792;1.1194720268249512;0.0;0.0;0.0
2135;0.0;0.0;0.0;-0.26449599862098694;-0.19617599248886108;1.1194720268249512;0.0;0.0;0.0
2137;0.0;0.0;0.0;-0.24887999892234802;-0.1844639927148819;1.1350879669189453;0.0;0.0;0.0
2139;-0.3938159942626953;-0.05807200074195862;0.9933239817619324;-0.27620798349380493;-0.16884799301624298;1.1272799968719482;-5.42062520980835;-32.15625;-38.60499954223633
2141;0.0;0.0;0.0;-0.2683999836444855;-0.18055999279022217;1.1438720226287842;0.0;0.0;0.0
2143;0.0;0.0;0.0;-0.2723039984703064;-0.17665599286556244;1.139967918395996;0.0;0.0;0.0
2145;0.0;0.0;0.0;-0.2996319830417633;-0.1844639927148819;1.1477760076522827;0.0;0.0;0.0
2148;-0.3967439830303192;-0.04367600008845329;1.0003999471664429;-0.27620798349380493;-0.18836799263954163;1.139967918395996;-8.780625343322754;-33.62624740600586;-38.744998931884766
2150;0.0;0.0;0.0;-0.29572799801826477;-0.1727519929409027;1.1194720268249512;0.0;0.0;0.0
2152;0.0;0.0;0.0;-0.2723039984703064;-0.2000799924135208;1.115567922592163;0.0;0.0;0.0
2154;0.0;0.0;0.0;-0.27620798349380493;-0.18836799263954163;1.115567922592163;0.0;0.0;0.0
2156;-0.4050399959087372;-0.0453839972615242;0.9964959621429443;-0.27620798349380493;-0.16103999316692352;1.139967918395996;-12.070625305175781;-34.676246643066406;-38.744998931884766
2158;0.0;0.0;0.0;-0.2840159833431244;-0.16884799301624298;1.1067839860916138;0.0;0.0;0.0
2160;0.0;0.0;0.0;-0.2996319830417633;-0.1727519929409027;1.1350879669189453;0.0;0.0;0.0
2162;0.0;0.0;0.0;-0.260591983795166;-0.18836799263954163;1.1106879711151123;0.0;0.0;0.0
2165;-0.40991997718811035;-0.0453839972615242;0.9945439696311951;-0.2840159833431244;-0.1727519929409027;1.1311839818954468;-14.030625343322754;-35.58625030517578;-37.76499938964844
2167;0.0;0.0;0.0;-0.27620798349380493;-0.16884799301624298;1.1594879627227783;0.0;0.0;0.0
2169;0.0;0.0;0.0;-0.29572799801826477;-0.18836799263954163;1.139967918395996;0.0;0.0;0.0
2171;0.0;0.0;0.0;-0.2879199981689453;-0.19227199256420135;1.1194720268249512;0.0;0.0;0.0
2173;-0.41870400309562683;-0.047335997223854065;1.0147960186004639;-0.30353599786758423;-0.16494399309158325;1.1760799884796143;-15.710624694824219;-37.05624771118164;-34.89500045776367
2175;0.0;0.0;0.0;-0.30353599786758423;-0.19617599248886108;1.1477760076522827;0.0;0.0;0.0
2177;0.0;0.0;0.0;-0.2683999836444855;-0.17665599286556244;1.1682720184326172;0.0;0.0;0.0
2179;0.0;0.0;0.0;-0.29572799801826477;-0.19227199256420135;1.1799839735031128;0.0;0.0;0.0
2182;-0.42333999276161194;-0.05709599703550339;1.035048007965088;-0.28011199831962585;-0.18836799263954163;1.1799839735031128;-17.880624771118164;-39.436248779296875;-31.2549991607666
2184;0.0;0.0;0.0;-0.2879199981689453;-0.21569599211215973;1.1594879627227783;0.0;0.0;0.0
2186;0.0;0.0;0.0;-0.30743998289108276;-0.20788799226284027;1.1604639291763306;0.0;0.0;0.0
2188;0.0;0.0;0.0;-0.2840159833431244;-0.20398399233818054;1.1799839735031128;0.0;0.0;0.0
2190;-0.407723993062973;-0.08222799748182297;1.0352920293807983;-0.28011199831962585;-0.2391199916601181;1.1272799968719482;-19.700624465942383;-41.116249084472656;-29.645000457763672
2192;0.0;0.0;0.0;-0.28011199831962585;-0.21959999203681946;1.1477760076522827;0.0;0.0;0.0
2194;0.0;0.0;0.0;-0.25278398394584656;-0.22740799188613892;1.1682720184326172;0.0;0.0;0.0
2196;0.0;0.0;0.0;-0.2449759989976883;-0.2000799924135208;1.1721760034561157;0.0;0.0;0.0
2199;-0.3840560019016266;-0.09491600096225739;1.0367560386657715;-0.22545599937438965;-0.2391199916601181;1.1633919477462769;-20.82062339782715;-42.72624969482422;-28.524999618530273
2201;0.0;0.0;0.0;-0.2449759989976883;-0.21569599211215973;1.1838879585266113;0.0;0.0;0.0
2203;0.0;0.0;0.0;-0.24107199907302856;-0.2000799924135208;1.1887680292129517;0.0;0.0;0.0
2205;0.0;0.0;0.0;-0.20983999967575073;-0.23521599173545837;1.1838879585266113;0.0;0.0;0.0
2207;-0.3577039837837219;-0.09418399631977081;1.0460280179977417;-0.21374399960041046;-0.23131199181079865;1.1721760034561157;-21.730623245239258;-43.426246643066406;-28.315000534057617
2209;0.0;0.0;0.0;-0.22155199944972992;-0.23131199181079865;1.1965759992599487;0.0;0.0;0.0
2211;0.0;0.0;0.0;-0.20203199982643127;-0.22740799188613892;1.1721760034561157;0.0;0.0;0.0
2213;0.0;0.0;0.0;-0.22545599937438965;-0.24692799150943756;1.1350879669189453;0.0;0.0;0.0
2216;-0.34184399247169495;-0.10809199512004852;1.0362679958343506;-0.20983999967575073;-0.2391199916601181;1.1555839776992798;-21.80062484741211;-42.72624969482422;-29.364999771118164
2218;0.0;0.0;0.0;-0.21374399960041046;-0.24302399158477783;1.139967918395996;0.0;0.0;0.0
2220;0.0;0.0;0.0;-0.205935999751091;-0.24302399158477783;1.1555839776992798;0.0;0.0;0.0
2222;0.0;0.0;0.0;-0.2449759989976883;-0.25863999128341675;1.1555839776992798;0.0;0.0;0.0
2224;-0.35233598947525024;-0.11882799863815308;1.022603988647461;-0.22155199944972992;-0.25863999128341675;1.1311839818954468;-20.330623626708984;-41.39624786376953;-30.975000381469727
2227;0.0;0.0;0.0;-0.21374399960041046;-0.2664479911327362;1.1477760076522827;0.0;0.0;0.0
2228;0.0;0.0;0.0;-0.2332639992237091;-0.23521599173545837;1.139967918395996;0.0;0.0;0.0
2231;0.0;0.0;0.0;-0.205935999751091;-0.25863999128341675;1.1194720268249512;0.0;0.0;0.0
2233;-0.3474559783935547;-0.11077599972486496;1.0128439664840698;-0.20203199982643127;-0.21959999203681946;1.139967918395996;-18.0206241607666;-39.926246643066406;-32.584999084472656
2235;0.0;0.0;0.0;-0.2176479995250702;-0.2508319914340973;1.1643680334091187;0.0;0.0;0.0
2237;0.0;0.0;0.0;-0.22935999929904938;-0.23131199181079865;1.1067839860916138;0.0;0.0;0.0
2239;0.0;0.0;0.0;-0.20983999967575073;-0.27425599098205566;1.1233760118484497;0.0;0.0;0.0
2241;-0.34013599157333374;-0.11589999496936798;1.0055240392684937;-0.24107199907302856;-0.2508319914340973;1.1555839776992798;-15.150625228881836;-36.776248931884766;-33.42499923706055
2243;0.0;0.0;0.0;-0.23716799914836884;-0.2664479911327362;1.1360639333724976;0.0;0.0;0.0
2245;0.0;0.0;0.0;-0.24107199907302856;-0.2547360062599182;1.1477760076522827;0.0;0.0;0.0
2248;0.0;0.0;0.0;-0.23716799914836884;-0.20788799226284027;1.1194720268249512;0.0;0.0;0.0
2250;-0.35941198468208313;-0.11272799968719482;1.0094280242919922;-0.2449759989976883;-0.23521599173545837;1.1360639333724976;-11.160625457763672;-33.83625030517578;-33.70500183105469
2252;0.0;0.0;0.0;-0.260591983795166;-0.24692799150943756;1.139967918395996;0.0;0.0;0.0
2254;0.0;0.0;0.0;-0.24887999892234802;-0.2117919921875;1.1516799926757812;0.0;0.0;0.0
2256;0.0;0.0;0.0;-0.2332639992237091;-0.22740799188613892;1.1555839776992798;0.0;0.0;0.0
2258;-0.354775995016098;-0.08564399927854538;1.012355923652649;-0.22545599937438965;-0.1727519929409027;1.1555839776992798;-6.470624923706055;-33.48624801635742;-33.6349983215332
2261;0.0;0.0;0.0;-0.19812799990177155;-0.21959999203681946;1.139967918395996;0.0;0.0;0.0
2262;0.0;0.0;0.0;-0.22155199944972992;-0.1844639927148819;1.1477760076522827;0.0;0.0;0.0
2265;0.0;0.0;0.0;-0.22155199944972992;-0.1727519929409027;1.1721760034561157;0.0;0.0;0.0
2267;-0.32915598154067993;-0.05782799795269966;1.0213840007781982;-0.1786080002784729;-0.19617599248886108;1.1721760034561157;-4.090624809265137;-32.99625015258789;-33.28499984741211
2269;0.0;0.0;0.0;-0.1668960005044937;-0.19617599248886108;1.1477760076522827;0.0;0.0;0.0
2271;0.0;0.0;0.0;-0.18251200020313263;-0.16494399309158325;1.1555839776992798;0.0;0.0;0.0
2273;0.0;0.0;0.0;-0.205935999751091;-0.18055999279022217;1.1477760076522827;0.0;0.0;0.0
2275;-0.3140279948711395;-0.03903999924659729;1.0255320072174072;-0.19422399997711182;-0.12590399384498596;1.1555839776992798;-4.020625114440918;-31.31624984741211;-33.98500061035156
2277;0.0;0.0;0.0;-0.1903200000524521;-0.1844639927148819;1.1516799926757812;0.0;0.0;0.0
2279;0.0;0.0;0.0;-0.20983999967575073;-0.15323199331760406;1.1516799926757812;0.0;0.0;0.0
2282;0.0;0.0;0.0;-0.21374399960041046;-0.16494399309158325;1.1721760034561157;0.0;0.0;0.0
2284;-0.31500399112701416;-0.02635199949145317;1.0233359336853027;-0.19422399997711182;-0.16494399309158325;1.1555839776992798;-4.580625057220459;-28.936250686645508;-35.10499954223633
2286;0.0;0.0;0.0;-0.1903200000524521;-0.13371199369430542;1.1721760034561157;0.0;0.0;0.0
2288;0.0;0.0;0.0;-0.24887999892234802;-0.1298079937696457;1.1643680334091187;0.0;0.0;0.0
2290;0.0;0.0;0.0;-0.2176479995250702;-0.09467199444770813;1.1682720184326172;0.0;0.0;0.0
2292;-0.32891198992729187;0.00878399983048439;1.035048007965088;-0.1786080002784729;-0.08686399459838867;1.1887680292129517;-5.350625038146973;-26.90625;-36.01499938964844
2294;0.0;0.0;0.0;-0.19422399997711182;-0.07905599474906921;1.1887680292129517;0.0;0.0;0.0
2296;0.0;0.0;0.0;-0.1903200000524521;-0.08686399459838867;1.2043839693069458;0.0;0.0;0.0
2299;0.0;0.0;0.0;-0.15908800065517426;-0.07905599474906921;1.1760799884796143;0.0;0.0;0.0
2301;-0.3067080080509186;0.053679998964071274;1.051151990890503;-0.17080000042915344;-0.07124799489974976;1.1760799884796143;-7.240624904632568;-24.106250762939453;-36.435001373291016
2303;0.0;0.0;0.0;-0.19422399997711182;-0.07515199482440948;1.1721760034561157;0.0;0.0;0.0
2305;0.0;0.0;0.0;-0.17080000042915344;-0.0634399950504303;1.1887680292129517;0.0;0.0;0.0
2307;0.0;0.0;0.0;-0.1903200000524521;-0.05563199892640114;1.2043839693069458;0.0;0.0;0.0
2309;-0.3013399839401245;0.06783200055360794;1.0543240308761597;-0.1786080002784729;-0.0634399950504303;1.1721760034561157;-8.850625038146973;-18.856250762939453;-36.01499938964844
2311;0.0;0.0;0.0;-0.22545599937438965;-0.05953599885106087;1.1799839735031128;0.0;0.0;0.0
2313;0.0;0.0;0.0;-0.24107199907302856;-0.06734399497509003;1.1887680292129517;0.0;0.0;0.0
2316;0.0;0.0;0.0;-0.24107199907302856;-0.004879999905824661;1.2082879543304443;0.0;0.0;0.0
2318;-0.34891998767852783;0.08661999553442001;1.0555440187454224;-0.2332639992237091;-0.028303999453783035;1.1838879585266113;-8.430624961853027;-15.14625072479248;-34.125
2320;0.0;0.0;0.0;-0.2840159833431244;-0.01268799975514412;1.2043839693069458;0.0;0.0;0.0
2322;0.0;0.0;0.0;-0.2566879987716675;-0.020495999604463577;1.2004799842834473;0.0;0.0;0.0
2324;0.0;0.0;0.0;-0.24887999892234802;-0.00878399983048439;1.2004799842834473;0.0;0.0;0.0
2326;-0.3828359842300415;0.11687599867582321;1.0716480016708374;-0.28011199831962585;0.014639999717473984;1.1799839735031128;-7.520625114440918;-16.40625;-30.55500030517578
2328;0.0;0.0;0.0;-0.29182398319244385;0.006831999868154526;1.2287839651107788;0.0;0.0;0.0
2330;0.0;0.0;0.0;-0.2723039984703064;0.014639999717473984;1.2170720100402832;0.0;0.0;0.0
2333;0.0;0.0;0.0;-0.27620798349380493;0.049775999039411545;1.2131680250167847;0.0;0.0;0.0
2335;-0.387472003698349;0.15445199608802795;1.083847999572754;-0.2449759989976883;0.0302559994161129;1.2209759950637817;-7.100625038146973;-21.446250915527344;-25.375
2337;0.0;0.0;0.0;-0.24887999892234802;0.06148799881339073;1.1965759992599487;0.0;0.0;0.0
2339;0.0;0.0;0.0;-0.24887999892234802;0.014639999717473984;1.1721760034561157;0.0;0.0;0.0
2341;0.0;0.0;0.0;-0.2449759989976883;0.03806399926543236;1.1721760034561157;0.0;0.0;0.0
2343;-0.36868399381637573;0.17348399758338928;1.052616000175476;-0.25278398394584656;0.02635199949145317;1.1438720226287842;-6.750625133514404;-26.556249618530273;-20.475000381469727
2345;0.0;0.0;0.0;-0.22545599937438965;0.022447999566793442;1.139967918395996;0.0;0.0;0.0
2347;0.0;0.0;0.0;-0.1903200000524521;0.018543999642133713;1.1194720268249512;0.0;0.0;0.0
2350;0.0;0.0;0.0;-0.17470400035381317;0.014639999717473984;1.0950720310211182;0.0;0.0;0.0
2352;-0.3125639855861664;0.1471319943666458;0.982587993144989;-0.15518400073051453;0.018543999642133713;1.0989760160446167;-4.370625019073486;-29.916250228881836;-17.325000762939453
2354;0.0;0.0;0.0;-0.11614400148391724;0.03806399926543236;1.066767930984497;0.0;0.0;0.0
2356;0.0;0.0;0.0;-0.11614400148391724;0.010735999792814255;1.0784800052642822;0.0;0.0;0.0
2358;0.0;0.0;0.0;-0.0663679987192154;0.02635199949145317;1.066767930984497;0.0;0.0;0.0
2360;-0.22008799016475677;0.16957999765872955;0.9350079894065857;-0.04684799909591675;0.03806399926543236;1.0628639459609985;-1.2906250953674316;-29.356250762939453;-15.574999809265137
2362;0.0;0.0;0.0;-0.007807999849319458;0.08100800216197968;1.066767930984497;0.0;0.0;0.0
2364;0.0;0.0;0.0;0.031231999397277832;0.04196799919009209;1.042367935180664;0.0;0.0;0.0
2367;0.0;0.0;0.0;0.03903999924659729;0.053679998964071274;1.0462720394134521;0.0;0.0;0.0
