Timestamp(ms);LG-Accel x(g);LG-Accel y(g);LG-Accel z(g);HG-Accel x(g);HG-Accel y(g);HG-Accel z(g);Gyro x(dps);Gyro y(dps);Gyro z(dps)
80;0.0;0.0;0.0;0.037087999284267426;-0.14054399728775024;1.148751974105835;0.0;0.0;0.0
82;0.0;0.0;0.0;0.1424959897994995;-0.14054399728775024;1.1165440082550049;0.0;0.0;0.0
84;0.0;0.0;0.0;0.15030398964881897;-0.15615999698638916;1.1038559675216675;0.0;0.0;0.0
86;0.0;0.0;0.0;0.18055999279022217;-0.12883199751377106;1.1165440082550049;0.0;0.0;0.0
88;0.0;0.0;0.0;0.15030398964881897;-0.12492799758911133;1.139967918395996;0.0;0.0;0.0
90;0.0;0.0;0.0;0.21081599593162537;-0.10638399422168732;1.134112000465393;0.0;0.0;0.0
92;0.0;0.0;0.0;0.1600639969110489;-0.11028799414634705;1.1302080154418945;0.0;0.0;0.0
95;0.0;0.0;0.0;0.2420479953289032;-0.11028799414634705;1.1058080196380615;0.0;0.0;0.0
97;0.08100800216197968;0.026839999482035637;0.9896639585494995;0.2147199958562851;-0.12199999392032623;1.1184959411621094;0.0;0.0;0.0
99;0.0;0.0;0.0;0.19519999623298645;-0.11419199407100677;1.1184959411621094;0.0;0.0;0.0
101;0.0;0.0;0.0;0.2537599802017212;-0.07515199482440948;1.126304030418396;0.0;0.0;0.0
103;0.0;0.0;0.0;0.23423999547958374;-0.13761599361896515;1.1145919561386108;0.0;0.0;0.0
105;0.09491600096225739;0.0287919994443655;0.9847840070724487;0.19129599630832672;-0.07515199482440948;1.126304030418396;0.0;0.0;0.0
107;0.0;0.0;0.0;0.2537599802017212;-0.1180959939956665;1.0862879753112793;0.0;0.0;0.0
109;0.0;0.0;0.0;0.2576639950275421;-0.11028799414634705;1.1302080154418945;0.0;0.0;0.0
112;0.0;0.0;0.0;0.22252799570560455;-0.08686399459838867;1.1389919519424438;0.0;0.0;0.0
114;0.11736399680376053;0.022447999566793442;0.9811239838600159;0.23814399540424347;-0.12590399384498596;1.1145919561386108;0.0;0.0;0.0
116;0.0;0.0;0.0;0.17958399653434753;-0.1180959939956665;1.1184959411621094;0.0;0.0;0.0
118;0.0;0.0;0.0;0.09857599437236786;-0.10247999429702759;1.134112000465393;0.0;0.0;0.0
120;0.0;0.0;0.0;0.06734399497509003;-0.09857599437236786;1.1302080154418945;0.0;0.0;0.0
122;0.012443999759852886;0.01878799870610237;0.9984479546546936;0.09857599437236786;-0.12199999392032623;1.1350879669189453;0.0;0.0;0.0
124;0.0;0.0;0.0;0.187391996383667;-0.12199999392032623;1.0775039196014404;0.0;0.0;0.0
126;0.0;0.0;0.0;0.08686399459838867;-0.11419199407100677;1.122399926185608;0.0;0.0;0.0
129;0.0;0.0;0.0;0.0634399950504303;-0.07905599474906921;1.158511996269226;0.0;0.0;0.0
131;-0.025863999500870705;0.018055999651551247;0.990884006023407;-0.0029279999434947968;-0.11028799414634705;1.126304030418396;0.0;0.0;0.0
133;0.0;0.0;0.0;0.032207999378442764;-0.06734399497509003;1.146799921989441;0.0;0.0;0.0
135;0.0;0.0;0.0;0.10931199789047241;-0.11419199407100677;1.1058080196380615;0.0;0.0;0.0
137;0.0;0.0;0.0;0.08198399841785431;-0.09467199444770813;1.122399926185608;0.0;0.0;0.0
139;-0.05538799986243248;0.029279999434947968;0.9964959621429443;0.06734399497509003;-0.1298079937696457;1.1067839860916138;-0.49000000953674316;0.0;-3.0668749809265137
141;0.0;0.0;0.0;0.04294399917125702;-0.0907679945230484;1.1477760076522827;0.0;0.0;0.0
143;0.0;0.0;0.0;0.05075199902057648;0.022447999566793442;1.1877919435501099;0.0;0.0;0.0
146;0.0;0.0;0.0;0.13663999736309052;-0.27035200595855713;0.9974719882011414;0.0;0.0;0.0
148;-0.05514399707317352;0.05197199806571007;0.9972279667854309;-0.003903999924659729;0.0302559994161129;1.2287839651107788;0.07000000029802322;-0.21000000834465027;-0.546875
150;0.0;0.0;0.0;0.11321599781513214;-0.11419199407100677;1.0745760202407837;0.0;0.0;0.0
152;0.0;0.0;0.0;0.07027199864387512;-0.05953599885106087;1.1272799968719482;0.0;0.0;0.0
154;0.0;0.0;0.0;0.10931199789047241;-0.08295999467372894;1.1360639333724976;0.0;0.0;0.0
156;-0.01659199967980385;0.05245999991893768;0.9882000088691711;0.18251200020313263;-0.07905599474906921;1.1028800010681152;-0.07000000029802322;-0.14000000059604645;1.0631248950958252
158;0.0;0.0;0.0;0.15615999698638916;-0.1298079937696457;1.1067839860916138;0.0;0.0;0.0
160;0.0;0.0;0.0;0.16396799683570862;-0.09857599437236786;1.1350879669189453;0.0;0.0;0.0
163;0.0;0.0;0.0;0.15225599706172943;-0.11028799414634705;1.1233760118484497;0.0;0.0;0.0
165;0.044652000069618225;0.01878799870610237;0.98990797996521;0.18251200020313263;-0.11419199407100677;1.1233760118484497;-0.07000000029802322;0.0;0.7131249904632568
167;0.0;0.0;0.0;0.1786080002784729;-0.1454239934682846;1.1272799968719482;0.0;0.0;0.0
169;0.0;0.0;0.0;0.19812799990177155;-0.14151999354362488;1.1360639333724976;0.0;0.0;0.0
171;0.0;0.0;0.0;0.17470400035381317;-0.19227199256420135;1.1233760118484497;0.0;0.0;0.0
173;0.06002400070428848;-0.03001200035214424;0.9911279678344727;0.16299200057983398;-0.20788799226284027;1.139967918395996;-0.14000000059604645;0.0;0.5731250047683716
176;0.0;0.0;0.0;0.15225599706172943;-0.23131199181079865;1.134112000465393;0.0;0.0;0.0
177;0.0;0.0;0.0;0.12492799758911133;-0.27035200595855713;1.126304030418396;0.0;0.0;0.0
180;0.0;0.0;0.0;0.12883199751377106;-0.29767999053001404;1.1302080154418945;0.0;0.0;0.0
182;0.024887999519705772;-0.14883999526500702;0.9938119649887085;0.1327359974384308;-0.3601439893245697;1.1302080154418945;-0.14000000059604645;-0.07000000029802322;0.7831249833106995
184;0.0;0.0;0.0;0.09857599437236786;-0.2937760055065155;1.1184959411621094;0.0;0.0;0.0
186;0.0;0.0;0.0;0.10931199789047241;-0.3172000050544739;1.1106879711151123;0.0;0.0;0.0
188;0.0;0.0;0.0;0.05953599885106087;-0.25863999128341675;1.1868159770965576;0.0;0.0;0.0
190;-0.029279999434947968;-0.17909599840641022;1.0028399229049683;0.10540799796581268;-0.3093920052051544;1.1184959411621094;-0.21000000834465027;0.21000000834465027;-3.2768750190734863
193;0.0;0.0;0.0;0.14054399728775024;-0.2781600058078766;1.101904034614563;0.0;0.0;0.0
194;0.0;0.0;0.0;0.11321599781513214;-0.2235039919614792;1.122399926185608;0.0;0.0;0.0
197;0.0;0.0;0.0;0.10931199789047241;-0.2781600058078766;1.122399926185608;0.0;0.0;0.0
199;0.0024399999529123306;-0.12321999669075012;0.9894199967384338;0.14054399728775024;-0.18055999279022217;1.126304030418396;-0.21000000834465027;-0.07000000029802322;-7.966875076293945
201;0.0;0.0;0.0;0.12492799758911133;-0.15323199331760406;1.126304030418396;0.0;0.0;0.0
203;0.0;0.0;0.0;0.16396799683570862;-0.18836799263954163;1.1067839860916138;0.0;0.0;0.0
205;0.0;0.0;0.0;0.12492799758911133;-0.15323199331760406;1.122399926185608;0.0;0.0;0.0
207;0.023180000483989716;-0.030499998480081558;0.9969840049743652;0.187391996383667;-0.10638399422168732;1.146799921989441;-0.49000000953674316;-0.14000000059604645;-9.786874771118164
210;0.0;0.0;0.0;0.12883199751377106;-0.18055999279022217;1.073599934577942;0.0;0.0;0.0
212;0.0;0.0;0.0;0.12492799758911133;-0.0907679945230484;1.1389919519424438;0.0;0.0;0.0
214;0.0;0.0;0.0;0.19519999623298645;-0.1454239934682846;1.0901919603347778;0.0;0.0;0.0
216;0.024643998593091965;0.00878399983048439;0.9879559874534607;0.13663999736309052;-0.05172799900174141;1.1389919519424438;-0.5600000023841858;0.49000000953674316;-8.386874198913574
218;0.0;0.0;0.0;0.15615999698638916;-0.10638399422168732;1.1106879711151123;0.0;0.0;0.0
220;0.0;0.0;0.0;0.1327359974384308;-0.04782399907708168;1.0940959453582764;0.0;0.0;0.0
222;0.0;0.0;0.0;0.187391996383667;0.010735999792814255;1.175104022026062;0.0;0.0;0.0
224;0.03391600027680397;0.08051999658346176;0.9869799613952637;0.12492799758911133;-0.01659199967980385;1.101904034614563;-0.14000000059604645;0.8400000333786011;-6.07687520980835
227;0.0;0.0;0.0;0.16787199676036835;0.06539200246334076;1.1184959411621094;0.0;0.0;0.0
229;0.0;0.0;0.0;0.15225599706172943;-0.00878399983048439;1.122399926185608;0.0;0.0;0.0
231;0.0;0.0;0.0;0.0907679945230484;-0.11028799414634705;1.101904034614563;0.0;0.0;0.0
233;0.01659199967980385;0.1193159967660904;0.9974719882011414;0.1210239976644516;-0.032207999378442764;1.134112000465393;-0.07000000029802322;-0.42000001668930054;-2.436875104904175
235;0.0;0.0;0.0;0.1483519971370697;-0.07515199482440948;1.1184959411621094;0.0;0.0;0.0
237;0.0;0.0;0.0;0.09467199444770813;-0.10247999429702759;1.1184959411621094;0.0;0.0;0.0
239;0.0;0.0;0.0;0.1483519971370697;-0.020495999604463577;1.1672959327697754;0.0;0.0;0.0
241;0.00878399983048439;0.06002400070428848;0.9879559874534607;0.17177599668502808;-0.05563199892640114;1.126304030418396;-0.3499999940395355;-0.21000000834465027;0.3631249964237213
244;0.0;0.0;0.0;0.16396799683570862;-0.1298079937696457;1.0657919645309448;0.0;0.0;0.0
246;0.0;0.0;0.0;0.14444799721240997;-0.04782399907708168;1.1184959411621094;0.0;0.0;0.0
248;0.0;0.0;0.0;0.1483519971370697;-0.07905599474906921;1.0696959495544434;0.0;0.0;0.0
250;0.031964000314474106;0.06783200055360794;0.985759973526001;0.18348799645900726;0.022447999566793442;1.199504017829895;-0.2800000011920929;0.42000001668930054;2.323124885559082
252;0.0;0.0;0.0;0.20691199600696564;-0.05563199892640114;1.0531039237976074;0.0;0.0;0.0
254;0.0;0.0;0.0;0.16396799683570862;-0.07905599474906921;1.101904034614563;0.0;0.0;0.0
256;0.0;0.0;0.0;0.09759999811649323;-0.04001599922776222;1.1633919477462769;0.0;0.0;0.0
258;0.045871999114751816;0.06783200055360794;0.9852719902992249;0.11321599781513214;-0.09857599437236786;1.1145919561386108;0.49000000953674316;0.699999988079071;2.393125057220459
261;0.0;0.0;0.0;0.19519999623298645;-0.07515199482440948;1.1302080154418945;0.0;0.0;0.0
263;0.0;0.0;0.0;0.07515199482440948;-0.09857599437236786;1.1145919561386108;0.0;0.0;0.0
265;0.0;0.0;0.0;0.10540799796581268;-0.1180959939956665;1.0901919603347778;0.0;0.0;0.0
267;0.017324000597000122;0.05148399993777275;0.9860039949417114;0.23423999547958374;-0.00878399983048439;1.146799921989441;-0.21000000834465027;0.5600000023841858;2.813124895095825
269;0.0;0.0;0.0;0.16787199676036835;-0.10638399422168732;1.0657919645309448;0.0;0.0;0.0
271;0.0;0.0;0.0;0.1600639969110489;-0.032207999378442764;1.2034080028533936;0.0;0.0;0.0
273;0.0;0.0;0.0;0.10150399804115295;-0.07515199482440948;1.1350879669189453;0.0;0.0;0.0
275;0.029523998498916626;0.07466399669647217;1.0006439685821533;0.1210239976644516;-0.10247999429702759;1.0862879753112793;0.5600000023841858;0.49000000953674316;2.6731250286102295
277;0.0;0.0;0.0;0.04782399907708168;-0.14151999354362488;1.1145919561386108;0.0;0.0;0.0
280;0.0;0.0;0.0;0.09857599437236786;-0.16103999316692352;1.1184959411621094;0.0;0.0;0.0
282;0.0;0.0;0.0;0.12883199751377106;-0.08295999467372894;1.126304030418396;0.0;0.0;0.0
284;-0.012443999759852886;0.017079999670386314;0.9794159531593323;0.15225599706172943;-0.07124799489974976;1.1302080154418945;0.07000000029802322;0.0;2.1831250190734863
286;0.0;0.0;0.0;0.17177599668502808;-0.1298079937696457;1.073599934577942;0.0;0.0;0.0
288;0.0;0.0;0.0;0.16396799683570862;-0.05563199892640114;1.1633919477462769;0.0;0.0;0.0
290;0.0;0.0;0.0;0.14054399728775024;-0.1298079937696457;1.097999930381775;0.0;0.0;0.0
292;0.046115998178720474;0.0348920002579689;0.9838079810142517;0.17958399653434753;-0.08686399459838867;1.10971200466156;0.42000001668930054;1.5399999618530273;0.9231250286102295
295;0.0;0.0;0.0;0.14444799721240997;-0.004879999905824661;1.182911992073059;0.0;0.0;0.0
297;0.0;0.0;0.0;0.16787199676036835;-0.13371199369430542;1.0247999429702759;0.0;0.0;0.0
299;0.0;0.0;0.0;0.187391996383667;-0.01659199967980385;1.1712000370025635;0.0;0.0;0.0
301;0.04025999829173088;0.07612799853086472;0.9950319528579712;0.17958399653434753;-0.020495999604463577;1.175104022026062;0.2800000011920929;2.0299999713897705;1.9731249809265137
303;0.0;0.0;0.0;0.21862399578094482;-0.020495999604463577;1.1389919519424438;0.0;0.0;0.0
305;0.0;0.0;0.0;0.08686399459838867;-0.07515199482440948;1.1145919561386108;0.0;0.0;0.0
307;0.0;0.0;0.0;0.10931199789047241;-0.09467199444770813;1.0901919603347778;0.0;0.0;0.0
309;0.023180000483989716;0.0680759996175766;0.986735999584198;0.11321599781513214;-0.13371199369430542;1.0491999387741089;-0.42000001668930054;-0.8400000333786011;4.42312479019165
312;0.0;0.0;0.0;0.1483519971370697;-0.028303999453783035;1.1546080112457275;0.0;0.0;0.0
314;0.0;0.0;0.0;0.10150399804115295;-0.12199999392032623;1.0531039237976074;0.0;0.0;0.0
316;0.0;0.0;0.0;0.21862399578094482;0.045871999114751816;1.1877919435501099;0.0;0.0;0.0
318;0.030743999406695366;0.08222799748182297;0.9945439696311951;0.187391996383667;0.0029279999434947968;1.1956000328063965;0.0;1.4700000286102295;2.393125057220459
320;0.0;0.0;0.0;0.19129599630832672;-0.11419199407100677;1.0901919603347778;0.0;0.0;0.0
322;0.0;0.0;0.0;0.21081599593162537;-0.01659199967980385;1.1302080154418945;0.0;0.0;0.0
324;0.0;0.0;0.0;0.19129599630832672;-0.0907679945230484;1.1145919561386108;0.0;0.0;0.0
326;0.05904799699783325;0.06661199778318405;0.986735999584198;0.07417599856853485;-0.17665599286556244;1.0657919645309448;0.42000001668930054;-0.2800000011920929;3.3731250762939453
329;0.0;0.0;0.0;0.058559998869895935;-0.07905599474906921;1.1555839776992798;0.0;0.0;0.0
331;0.0;0.0;0.0;0.16299200057983398;-0.01268799975514412;1.2082879543304443;0.0;0.0;0.0
333;0.0;0.0;0.0;0.054655998945236206;-0.16103999316692352;1.0296800136566162;0.0;0.0;0.0
335;-0.02391199953854084;0.03928399831056595;1.0013760328292847;0.04294399917125702;-0.07515199482440948;1.115567922592163;0.0;0.6299999952316284;3.653125047683716
337;0.0;0.0;0.0;0.015615999698638916;-0.11419199407100677;1.1116639375686646;0.0;0.0;0.0
339;0.0;0.0;0.0;0.1600639969110489;-0.12590399384498596;1.0989760160446167;0.0;0.0;0.0
341;0.0;0.0;0.0;0.20203199982643127;0.02635199949145317;1.2043839693069458;0.0;0.0;0.0
343;0.0004879999905824661;0.040748000144958496;0.985759973526001;0.14054399728775024;-0.1180959939956665;1.0706720352172852;-0.14000000059604645;0.9800000190734863;1.9731249809265137
346;0.0;0.0;0.0;0.21374399960041046;-0.06734399497509003;1.115567922592163;0.0;0.0;0.0
348;0.0;0.0;0.0;0.1756799966096878;-0.07515199482440948;1.1233760118484497;0.0;0.0;0.0
350;0.0;0.0;0.0;0.23716799914836884;-0.05172799900174141;1.1555839776992798;0.0;0.0;0.0
352;0.06929600238800049;0.05441199988126755;0.9862479567527771;0.15225599706172943;-0.13761599361896515;1.0706720352172852;0.49000000953674316;0.49000000953674316;3.0931248664855957
354;0.0;0.0;0.0;0.07027199864387512;-0.12199999392032623;1.1438720226287842;0.0;0.0;0.0
356;0.0;0.0;0.0;0.15908800065517426;-0.04391999915242195;1.1721760034561157;0.0;0.0;0.0
358;0.0;0.0;0.0;0.054655998945236206;-0.18836799263954163;1.0296800136566162;0.0;0.0;0.0
360;-0.010491999797523022;0.03171999752521515;0.97843998670578;0.17470400035381317;-0.05172799900174141;1.1233760118484497;0.0;0.5600000023841858;4.42312479019165
363;0.0;0.0;0.0;0.054655998945236206;-0.0907679945230484;1.1272799968719482;0.0;0.0;0.0
365;0.0;0.0;0.0;0.29182398319244385;-0.01268799975514412;1.1438720226287842;0.0;0.0;0.0
367;0.0;0.0;0.0;0.015615999698638916;-0.09467199444770813;1.1233760118484497;0.0;0.0;0.0
369;0.019763998687267303;0.07027199864387512;0.9969840049743652;0.09759999811649323;-0.04391999915242195;1.1194720268249512;0.7699999809265137;2.940000057220459;3.2331249713897705
371;0.0;0.0;0.0;0.1483519971370697;-0.004879999905824661;1.1760799884796143;0.0;0.0;0.0
373;0.0;0.0;0.0;0.16787199676036835;-0.06734399497509003;1.1116639375686646;0.0;0.0;0.0
375;0.0;0.0;0.0;0.11711999773979187;-0.07905599474906921;1.0628639459609985;0.0;0.0;0.0
377;-0.004147999919950962;0.07197999954223633;0.9906399846076965;0.027327999472618103;-0.11028799414634705;1.1116639375686646;-0.49000000953674316;0.42000001668930054;4.213124752044678
380;0.0;0.0;0.0;0.17080000042915344;0.006831999868154526;1.1838879585266113;0.0;0.0;0.0
382;0.0;0.0;0.0;0.04684799909591675;-0.07905599474906921;1.1194720268249512;0.0;0.0;0.0
384;0.0;0.0;0.0;0.12883199751377106;-0.03611199930310249;1.1555839776992798;0.0;0.0;0.0
386;-0.0014639999717473984;0.0680759996175766;0.9996680021286011;0.14054399728775024;-0.1727519929409027;1.1067839860916138;-0.5600000023841858;1.3300000429153442;2.1131248474121094
388;0.0;0.0;0.0;0.007807999849319458;-0.12199999392032623;1.1028800010681152;0.0;0.0;0.0
390;0.0;0.0;0.0;-0.011711999773979187;-0.16494399309158325;1.0706720352172852;0.0;0.0;0.0
392;0.0;0.0;0.0;0.1395680010318756;-0.05172799900174141;1.1682720184326172;0.0;0.0;0.0
394;-0.047091998159885406;0.03952799737453461;0.986735999584198;0.16787199676036835;0.06929600238800049;1.2326879501342773;1.1200000047683716;0.7699999809265137;-1.9468750953674316
397;0.0;0.0;0.0;0.23814399540424347;-0.10638399422168732;1.0043039321899414;0.0;0.0;0.0
399;0.0;0.0;0.0;0.16787199676036835;-0.07905599474906921;1.1058080196380615;0.0;0.0;0.0
401;0.0;0.0;0.0;0.23814399540424347;0.045871999114751816;1.199504017829895;0.0;0.0;0.0
403;0.09418399631977081;0.10052800178527832;0.9918599724769592;0.21081599593162537;0.0029279999434947968;1.126304030418396;-0.2800000011920929;0.5600000023841858;-1.3168751001358032
405;0.0;0.0;0.0;0.24595199525356293;-0.07905599474906921;1.0940959453582764;0.0;0.0;0.0
407;0.0;0.0;0.0;0.06734399497509003;-0.15323199331760406;1.0335839986801147;0.0;0.0;0.0
409;0.0;0.0;0.0;-0.04196799919009209;0.053679998964071274;1.158511996269226;0.0;0.0;0.0
411;-0.005123999901115894;0.07710400223731995;0.986735999584198;0.29280000925064087;0.02635199949145317;1.256111979484558;-0.49000000953674316;0.5600000023841858;0.43312501907348633
414;0.0;0.0;0.0;0.2449759989976883;-0.2781600058078766;0.8637599945068359;0.0;0.0;0.0
416;0.0;0.0;0.0;0.058559998869895935;0.09272000193595886;1.2609919309616089;0.0;0.0;0.0
418;0.0;0.0;0.0;0.011711999773979187;-0.024399999529123306;1.0784800052642822;0.0;0.0;0.0
420;0.011223999783396721;0.07954400032758713;0.9708759784698486;0.08588799834251404;-0.04782399907708168;1.0579839944839478;0.3499999940395355;1.75;-1.736875057220459
422;0.0;0.0;0.0;0.1756799966096878;0.04196799919009209;1.1721760034561157;0.0;0.0;0.0
424;0.0;0.0;0.0;0.19812799990177155;-0.00878399983048439;1.1760799884796143;0.0;0.0;0.0
426;0.0;0.0;0.0;0.36209598183631897;-0.04001599922776222;1.0628639459609985;0.0;0.0;0.0
428;0.11882799863815308;0.13932399451732635;1.0113799571990967;0.36209598183631897;-0.00878399983048439;1.1438720226287842;0.2800000011920929;0.6299999952316284;-10.276874542236328
431;0.0;0.0;0.0;0.3357439935207367;0.03806399926543236;1.158511996269226;0.0;0.0;0.0
433;0.0;0.0;0.0;0.40991997718811035;-0.024399999529123306;1.0940959453582764;0.0;0.0;0.0
435;0.0;0.0;0.0;0.4167519807815552;0.010735999792814255;1.1389919519424438;0.0;0.0;0.0
437;0.27791598439216614;0.11687599867582321;0.9777079820632935;0.4060159921646118;-0.04391999915242195;1.0775039196014404;-1.5399999618530273;-1.0499999523162842;-33.09687423706055
439;0.0;0.0;0.0;0.42455998063087463;-0.03611199930310249;1.0814080238342285;0.0;0.0;0.0
441;0.0;0.0;0.0;0.3357439935207367;-0.024399999529123306;1.1184959411621094;0.0;0.0;0.0
443;0.0;0.0;0.0;0.26156800985336304;-0.05953599885106087;1.1058080196380615;0.0;0.0;0.0
445;0.19764000177383423;0.0861319974064827;0.9803919792175293;0.22252799570560455;-0.04391999915242195;1.1145919561386108;-1.9600000381469727;-1.4700000286102295;-42.19687271118164
448;0.0;0.0;0.0;0.1483519971370697;-0.07124799489974976;1.1106879711151123;0.0;0.0;0.0
450;0.0;0.0;0.0;0.10638399422168732;-0.04001599922776222;1.1302080154418945;0.0;0.0;0.0
452;0.0;0.0;0.0;0.12883199751377106;0.04196799919009209;1.126304030418396;0.0;0.0;0.0
454;0.02513200044631958;0.10711599886417389;0.986735999584198;0.20691199600696564;-0.04391999915242195;1.1350879669189453;-1.6100000143051147;-1.4700000286102295;-43.10687255859375
456;0.0;0.0;0.0;0.26156800985336304;-0.01268799975514412;1.10971200466156;0.0;0.0;0.0
458;0.0;0.0;0.0;0.21862399578094482;-0.032207999378442764;1.1106879711151123;0.0;0.0;0.0
460;0.0;0.0;0.0;0.0907679945230484;-0.01268799975514412;1.0901919603347778;0.0;0.0;0.0
462;0.09930799901485443;0.12419600039720535;0.9828319549560547;0.19129599630832672;0.045871999114751816;1.0862879753112793;-1.3300000429153442;-0.5600000023841858;-36.24687194824219
465;0.0;0.0;0.0;0.18251200020313263;0.045871999114751816;1.1194720268249512;0.0;0.0;0.0
467;0.0;0.0;0.0;0.19422399997711182;0.1395680010318756;1.1194720268249512;0.0;0.0;0.0
469;0.0;0.0;0.0;0.19422399997711182;0.057583998888731;1.1360639333724976;0.0;0.0;0.0
471;0.0727119967341423;0.19349199533462524;0.9925919771194458;0.33086398243904114;-0.00878399983048439;1.1438720226287842;-0.9100000262260437;-0.07000000029802322;-26.516876220703125
473;0.0;0.0;0.0;0.22155199944972992;0.02635199949145317;1.1194720268249512;0.0;0.0;0.0
475;0.0;0.0;0.0;0.24107199907302856;0.06929600238800049;1.115567922592163;0.0;0.0;0.0
477;0.0;0.0;0.0;0.1210239976644516;0.006831999868154526;1.0745760202407837;0.0;0.0;0.0
479;0.09784399718046188;0.1727519929409027;0.9769759774208069;0.2332639992237091;0.13566400110721588;1.1682720184326172;-0.6299999952316284;-0.6299999952316284;-20.356876373291016
482;0.0;0.0;0.0;0.25278398394584656;0.014639999717473984;1.1350879669189453;0.0;0.0;0.0
484;0.0;0.0;0.0;0.2566879987716675;-0.01659199967980385;1.0501760244369507;0.0;0.0;0.0
486;0.0;0.0;0.0;0.22155199944972992;0.09272000193595886;1.1067839860916138;0.0;0.0;0.0
488;0.14932799339294434;0.17543599009513855;0.97843998670578;0.42846399545669556;0.08100800216197968;1.1760799884796143;-0.49000000953674316;-0.8400000333786011;-21.966875076293945
490;0.0;0.0;0.0;0.1327359974384308;-0.01268799975514412;1.0462720394134521;0.0;0.0;0.0
492;0.0;0.0;0.0;0.260591983795166;-0.0009759999811649323;1.1438720226287842;0.0;0.0;0.0
494;0.0;0.0;0.0;0.1903200000524521;-0.004879999905824661;1.1311839818954468;0.0;0.0;0.0
496;0.1134599968791008;0.12663599848747253;0.985759973526001;0.18641600012779236;-0.01659199967980385;1.1311839818954468;-0.9100000262260437;1.1200000047683716;-18.816875457763672
499;0.0;0.0;0.0;0.13663999736309052;-0.1180959939956665;1.1194720268249512;0.0;0.0;0.0
501;0.0;0.0;0.0;0.2176479995250702;-0.06734399497509003;1.1194720268249512;0.0;0.0;0.0
503;0.0;0.0;0.0;0.16787199676036835;-0.21569599211215973;1.0501760244369507;0.0;0.0;0.0
505;0.06539200246334076;0.028547998517751694;0.9938119649887085;0.1756799966096878;-0.004879999905824661;1.2248799800872803;0.9800000190734863;0.07000000029802322;-16.856876373291016
507;0.0;0.0;0.0;0.30353599786758423;-0.09857599437236786;1.1106879711151123;0.0;0.0;0.0
509;0.0;0.0;0.0;0.12883199751377106;-0.16494399309158325;1.09116792678833;0.0;0.0;0.0
511;0.0;0.0;0.0;0.2176479995250702;-0.16103999316692352;1.1272799968719482;0.0;0.0;0.0
513;0.11297199875116348;-0.012199999764561653;0.9874680042266846;0.20983999967575073;-0.19227199256420135;1.0872639417648315;0.0;0.42000001668930054;-11.676874160766602
516;0.0;0.0;0.0;0.27327999472618103;-0.0634399950504303;1.1633919477462769;0.0;0.0;0.0
518;0.0;0.0;0.0;0.26156800985336304;-0.18836799263954163;1.0823839902877808;0.0;0.0;0.0
520;0.0;0.0;0.0;0.38259199261665344;-0.2000799924135208;1.1302080154418945;0.0;0.0;0.0
522;0.16128399968147278;-0.040748000144958496;0.9896639585494995;0.2654719948768616;-0.2391199916601181;1.0657919645309448;-1.3300000429153442;0.0;-8.596874237060547
524;0.0;0.0;0.0;0.4021120071411133;-0.26254400610923767;1.146799921989441;0.0;0.0;0.0
526;0.0;0.0;0.0;0.39820799231529236;-0.23521599173545837;1.1389919519424438;0.0;0.0;0.0
528;0.0;0.0;0.0;0.4323679804801941;-0.20398399233818054;1.0775039196014404;0.0;0.0;0.0
530;0.2764520049095154;-0.0802759975194931;0.9806360006332397;0.41284799575805664;-0.06734399497509003;1.1184959411621094;-1.1200000047683716;-1.6100000143051147;-10.20687484741211
533;0.0;0.0;0.0;0.33476799726486206;-0.020495999604463577;1.0784800052642822;0.0;0.0;0.0
535;0.0;0.0;0.0;0.3542879819869995;-0.024399999529123306;1.115567922592163;0.0;0.0;0.0
537;0.0;0.0;0.0;0.2723039984703064;0.045871999114751816;1.1028800010681152;0.0;0.0;0.0
539;0.21837998926639557;0.13005200028419495;0.9764879941940308;0.350383996963501;0.08881600201129913;1.139967918395996;-0.21000000834465027;0.0;-9.576874732971191
541;0.0;0.0;0.0;0.2683999836444855;0.04196799919009209;1.1799839735031128;0.0;0.0;0.0
543;0.0;0.0;0.0;0.2566879987716675;-0.18055999279022217;1.0872639417648315;0.0;0.0;0.0
545;0.0;0.0;0.0;0.12492799758911133;-0.04782399907708168;1.1721760034561157;0.0;0.0;0.0
547;0.15493999421596527;0.10150399804115295;0.9879559874534607;0.5524159669876099;0.06929600238800049;1.0706720352172852;-0.42000001668930054;-1.2599999904632568;-10.136874198913574
550;0.0;0.0;0.0;0.26449599862098694;0.18251200020313263;1.1194720268249512;0.0;0.0;0.0
552;0.0;0.0;0.0;0.36209598183631897;0.16299200057983398;1.0823839902877808;0.0;0.0;0.0
554;0.0;0.0;0.0;0.3269599974155426;0.17080000042915344;1.1194720268249512;0.0;0.0;0.0
556;0.20935200154781342;0.29597198963165283;0.9767319560050964;0.22935999929904938;0.15518400073051453;1.139967918395996;0.3499999940395355;0.14000000059604645;-5.516875267028809
558;0.0;0.0;0.0;0.2449759989976883;0.16299200057983398;1.139967918395996;0.0;0.0;0.0
560;0.0;0.0;0.0;0.2683999836444855;0.03415999934077263;1.1067839860916138;0.0;0.0;0.0
562;0.0;0.0;0.0;0.11321599781513214;-0.04782399907708168;1.1194720268249512;0.0;0.0;0.0
565;0.08295999467372894;0.18007199466228485;0.9879559874534607;0.22545599937438965;-0.032207999378442764;1.139967918395996;0.21000000834465027;0.8400000333786011;-0.8268750309944153
567;0.0;0.0;0.0;0.16299200057983398;-0.01659199967980385;1.0823839902877808;0.0;0.0;0.0
569;0.0;0.0;0.0;0.3230559825897217;0.08881600201129913;1.1194720268249512;0.0;0.0;0.0
571;0.0;0.0;0.0;0.1668960005044937;0.049775999039411545;1.0989760160446167;0.0;0.0;0.0
573;0.10101599991321564;0.16909199953079224;0.9779520034790039;0.30353599786758423;0.10443200170993805;1.139967918395996;0.9100000262260437;-0.21000000834465027;0.8531250357627869
575;0.0;0.0;0.0;0.19422399997711182;0.018543999642133713;1.1067839860916138;0.0;0.0;0.0
577;0.0;0.0;0.0;0.26449599862098694;-0.05172799900174141;1.0950720310211182;0.0;0.0;0.0
579;0.0;0.0;0.0;0.27620798349380493;0.06148799881339073;1.1838879585266113;0.0;0.0;0.0
581;0.11907199770212173;0.140299990773201;0.98990797996521;0.15615999698638916;-0.07124799489974976;1.1067839860916138;0.5600000023841858;0.2800000011920929;2.393125057220459
584;0.0;0.0;0.0;0.19422399997711182;-0.0634399950504303;1.1272799968719482;0.0;0.0;0.0
586;0.0;0.0;0.0;0.22155199944972992;-0.15323199331760406;1.115567922592163;0.0;0.0;0.0
588;0.0;0.0;0.0;0.24107199907302856;-0.06734399497509003;1.139967918395996;0.0;0.0;0.0
590;0.10687199980020523;0.03903999924659729;0.9833199977874756;0.2683999836444855;-0.09467199444770813;1.0501760244369507;0.3499999940395355;0.0;2.6031248569488525
592;0.0;0.0;0.0;0.30353599786758423;-0.0634399950504303;1.1438720226287842;0.0;0.0;0.0
594;0.0;0.0;0.0;0.29182398319244385;-0.19227199256420135;1.1233760118484497;0.0;0.0;0.0
596;0.0;0.0;0.0;0.13663999736309052;-0.1844639927148819;1.1233760118484497;0.0;0.0;0.0
599;0.15225599706172943;0.013907999731600285;1.0008879899978638;0.30353599786758423;-0.11028799414634705;1.1594879627227783;0.07000000029802322;-0.2800000011920929;2.6031248569488525
601;0.0;0.0;0.0;0.44017598032951355;-0.17665599286556244;1.2160959243774414;0.0;0.0;0.0
603;0.0;0.0;0.0;0.00878399983048439;-0.3835679888725281;0.9076799750328064;0.0;0.0;0.0
605;0.0;0.0;0.0;0.3630719780921936;-0.1844639927148819;1.1916959285736084;0.0;0.0;0.0
607;0.1466439962387085;-0.09003599733114243;0.9779520034790039;0.3786879777908325;-0.1180959939956665;1.1428959369659424;-0.42000001668930054;-0.6299999952316284;0.8531250357627869
609;0.0;0.0;0.0;0.13663999736309052;-0.3718560039997101;1.0169919729232788;0.0;0.0;0.0
611;0.0;0.0;0.0;0.447983980178833;-0.10638399422168732;1.2444000244140625;0.0;0.0;0.0
613;0.0;0.0;0.0;0.12883199751377106;-0.21959999203681946;1.0169919729232788;0.0;0.0;0.0
616;0.1995919942855835;-0.06880799680948257;0.9984479546546936;0.3903999924659729;-0.08295999467372894;1.207311987876892;0.42000001668930054;-0.7699999809265137;-0.7568749785423279
618;0.0;0.0;0.0;0.3474559783935547;-0.18836799263954163;1.0531039237976074;0.0;0.0;0.0
620;0.0;0.0;0.0;0.2654719948768616;-0.11419199407100677;1.097999930381775;0.0;0.0;0.0
622;0.0;0.0;0.0;0.32793599367141724;-0.18055999279022217;1.175104022026062;0.0;0.0;0.0
624;0.16713999211788177;-0.0331839993596077;0.9813680052757263;0.19519999623298645;-0.15323199331760406;1.0901919603347778;-1.0499999523162842;-0.6299999952316284;-1.3168751001358032
626;0.0;0.0;0.0;0.2420479953289032;-0.1454239934682846;1.1712000370025635;0.0;0.0;0.0
628;0.0;0.0;0.0;0.30451199412345886;-0.11419199407100677;1.126304030418396;0.0;0.0;0.0
630;0.0;0.0;0.0;0.2420479953289032;-0.020495999604463577;1.0169919729232788;0.0;0.0;0.0
633;0.20276398956775665;0.059779997915029526;0.9901520013809204;0.5768159627914429;0.06929600238800049;1.1389919519424438;0.6299999952316284;-2.1700000762939453;-2.436875104904175
635;0.0;0.0;0.0;0.35819199681282043;-0.020495999604463577;1.1028800010681152;0.0;0.0;0.0
637;0.0;0.0;0.0;0.3659999966621399;-0.04782399907708168;1.1194720268249512;0.0;0.0;0.0
639;0.0;0.0;0.0;0.29572799801826477;-0.2000799924135208;1.1028800010681152;0.0;0.0;0.0
641;0.2071560025215149;0.04172400012612343;0.9847840070724487;0.13663999736309052;-0.18836799263954163;1.1233760118484497;-1.75;0.07000000029802322;-0.6168749928474426
643;0.0;0.0;0.0;0.2176479995250702;-0.1727519929409027;1.1311839818954468;0.0;0.0;0.0
645;0.0;0.0;0.0;0.5602239966392517;-0.04001599922776222;1.1360639333724976;0.0;0.0;0.0
647;0.0;0.0;0.0;0.14444799721240997;-0.1844639927148819;1.042367935180664;0.0;0.0;0.0
650;0.19397999346256256;0.0024399999529123306;0.9750239849090576;0.4470079839229584;-0.04001599922776222;1.1360639333724976;-0.07000000029802322;-0.9100000262260437;-0.6868749856948853
652;0.0;0.0;0.0;0.33476799726486206;-0.05172799900174141;1.1643680334091187;0.0;0.0;0.0
654;0.0;0.0;0.0;0.350383996963501;-0.13371199369430542;1.139967918395996;0.0;0.0;0.0
656;0.0;0.0;0.0;0.019519999623298645;-0.16494399309158325;1.017967939376831;0.0;0.0;0.0
658;0.2105719894170761;0.04147999733686447;0.9901520013809204;0.5797439813613892;-0.10247999429702759;1.1028800010681152;0.0;-0.21000000834465027;3.1631250381469727
660;0.0;0.0;0.0;0.26449599862098694;0.006831999868154526;1.1926720142364502;0.0;0.0;0.0
662;0.0;0.0;0.0;0.2840159833431244;-0.028303999453783035;1.0872639417648315;0.0;0.0;0.0
665;0.0;0.0;0.0;0.37380799651145935;-0.08686399459838867;1.0462720394134521;0.0;0.0;0.0
667;0.17080000042915344;0.07807999849319458;0.9757559895515442;0.3269599974155426;-0.0009759999811649323;1.1926720142364502;-0.3499999940395355;0.2800000011920929;6.033124923706055
669;0.0;0.0;0.0;0.2723039984703064;-0.11419199407100677;1.0872639417648315;0.0;0.0;0.0
671;0.0;0.0;0.0;0.20203199982643127;-0.1844639927148819;1.066767930984497;0.0;0.0;0.0
673;0.0;0.0;0.0;0.19812799990177155;-0.10247999429702759;1.0589599609375;0.0;0.0;0.0
675;0.1546960026025772;0.03415999934077263;0.9847840070724487;0.411871999502182;-0.04391999915242195;1.2453759908676147;0.49000000953674316;0.07000000029802322;12.19312572479248
677;0.0;0.0;0.0;0.12492799758911133;-0.24302399158477783;0.9818559885025024;0.0;0.0;0.0
679;0.0;0.0;0.0;0.25278398394584656;-0.07515199482440948;1.1350879669189453;0.0;0.0;0.0
681;0.0;0.0;0.0;0.2879199981689453;-0.1180959939956665;1.1643680334091187;0.0;0.0;0.0
684;0.10906799882650375;-0.027327999472618103;0.9818559885025024;0.19422399997711182;-0.26254400610923767;1.09116792678833;1.4700000286102295;-0.07000000029802322;14.783125877380371
686;0.0;0.0;0.0;0.30743998289108276;-0.14932799339294434;1.1233760118484497;0.0;0.0;0.0
688;0.0;0.0;0.0;0.2176479995250702;-0.15323199331760406;1.139967918395996;0.0;0.0;0.0
690;0.0;0.0;0.0;0.26449599862098694;-0.2547360062599182;1.0501760244369507;0.0;0.0;0.0
692;0.1349319964647293;-0.0453839972615242;0.9974719882011414;0.19422399997711182;-0.11419199407100677;1.2248799800872803;0.6299999952316284;0.2800000011920929;14.083125114440918
694;0.0;0.0;0.0;0.2879199981689453;-0.23131199181079865;1.0540800094604492;0.0;0.0;0.0
696;0.0;0.0;0.0;0.23716799914836884;-0.1454239934682846;1.1194720268249512;0.0;0.0;0.0
698;0.0;0.0;0.0;0.14444799721240997;-0.29767999053001404;1.0784800052642822;0.0;0.0;0.0
701;0.13346800208091736;-0.051239997148513794;0.9886879920959473;0.3386719822883606;-0.032207999378442764;1.2170720100402832;0.8400000333786011;0.7699999809265137;10.233125686645508
703;0.0;0.0;0.0;0.3542879819869995;-0.32500800490379333;1.0140639543533325;0.0;0.0;0.0
705;0.0;0.0;0.0;0.12883199751377106;-0.020495999604463577;1.2648959159851074;0.0;0.0;0.0
707;0.0;0.0;0.0;0.6031680107116699;-0.23131199181079865;1.0462720394134521;0.0;0.0;0.0
709;0.1937360018491745;-0.06539200246334076;0.9755119681358337;0.11321599781513214;-0.2547360062599182;1.0384639501571655;0.07000000029802322;0.3499999940395355;4.983124732971191
711;0.0;0.0;0.0;0.45481598377227783;-0.1727519929409027;1.1555839776992798;0.0;0.0;0.0
713;0.0;0.0;0.0;0.027327999472618103;-0.2000799924135208;1.1438720226287842;0.0;0.0;0.0
715;0.0;0.0;0.0;0.24887999892234802;-0.25863999128341675;1.0628639459609985;0.0;0.0;0.0
718;0.11834000051021576;-0.09101200103759766;0.9762439727783203;0.30743998289108276;-0.2117919921875;1.1350879669189453;0.2800000011920929;1.399999976158142;5.473124980926514
720;0.0;0.0;0.0;0.011711999773979187;-0.1727519929409027;1.1028800010681152;0.0;0.0;0.0
722;0.0;0.0;0.0;0.35819199681282043;-0.12590399384498596;1.2365919351577759;0.0;0.0;0.0
724;0.0;0.0;0.0;0.2176479995250702;-0.21569599211215973;1.09116792678833;0.0;0.0;0.0
726;0.13932399451732635;-0.05050799995660782;1.0062559843063354;0.5250880122184753;-0.2781600058078766;1.0579839944839478;0.07000000029802322;0.6299999952316284;0.08312500268220901
728;0.0;0.0;0.0;0.14444799721240997;-0.14932799339294434;1.2004799842834473;0.0;0.0;0.0
730;0.0;0.0;0.0;0.3816159963607788;-0.27425599098205566;1.0872639417648315;0.0;0.0;0.0
732;0.0;0.0;0.0;0.29182398319244385;-0.2937760055065155;1.083359956741333;0.0;0.0;0.0
735;0.14273999631404877;-0.09296400099992752;0.9982039928436279;0.11711999773979187;-0.18055999279022217;1.2326879501342773;0.3499999940395355;0.5600000023841858;-0.6168749928474426
737;0.0;0.0;0.0;0.27620798349380493;-0.4147999882698059;1.0218719244003296;0.0;0.0;0.0
739;0.0;0.0;0.0;0.29572799801826477;-0.2508319914340973;1.1438720226287842;0.0;0.0;0.0
741;0.0;0.0;0.0;0.019519999623298645;-0.12199999392032623;1.1926720142364502;0.0;0.0;0.0
743;0.10199199616909027;-0.1327359974384308;1.0011320114135742;0.22155199944972992;-0.2898719906806946;1.115567922592163;0.49000000953674316;0.14000000059604645;-0.546875
745;0.0;0.0;0.0;0.19812799990177155;-0.4108960032463074;1.0706720352172852;0.0;0.0;0.0
747;0.0;0.0;0.0;-0.019519999623298645;-0.3484320044517517;1.0745760202407837;0.0;0.0;0.0
749;0.0;0.0;0.0;0.10540799796581268;-0.14151999354362488;1.2736799716949463;0.0;0.0;0.0
752;-0.014151999726891518;-0.13517600297927856;1.006011962890625;0.3152479827404022;-0.1571359932422638;1.2160959243774414;-0.07000000029802322;-0.14000000059604645;2.5331249237060547
754;0.0;0.0;0.0;-0.07320000231266022;-0.5514400005340576;0.871567964553833;0.0;0.0;0.0
756;0.0;0.0;0.0;0.3113439977169037;-0.08295999467372894;1.2932000160217285;0.0;0.0;0.0
758;0.0;0.0;0.0;0.2683999836444855;-0.387472003698349;1.0628639459609985;0.0;0.0;0.0
760;0.04513999819755554;-0.16567599773406982;0.9916160106658936;-0.09662400186061859;-0.2391199916601181;1.2082879543304443;-0.07000000029802322;-0.8400000333786011;0.013125000521540642
762;0.0;0.0;0.0;0.29182398319244385;-0.29767999053001404;1.0706720352172852;0.0;0.0;0.0
764;0.0;0.0;0.0;0.26449599862098694;-0.4304159879684448;1.0140639543533325;0.0;0.0;0.0
766;0.0;0.0;0.0;0.2566879987716675;-0.11419199407100677;1.28929603099823;0.0;0.0;0.0
769;0.1327359974384308;-0.18934398889541626;0.9501360058784485;0.3152479827404022;-0.35624000430107117;1.0384639501571655;-0.7699999809265137;-1.8899999856948853;-10.906874656677246
771;0.0;0.0;0.0;0.05075199902057648;-0.3718560039997101;1.0062559843063354;0.0;0.0;0.0
773;0.0;0.0;0.0;0.2996319830417633;-0.09467199444770813;1.3058879375457764;0.0;0.0;0.0
775;0.0;0.0;0.0;0.21374399960041046;-0.43432000279426575;1.034559965133667;0.0;0.0;0.0
777;0.07539600133895874;-0.130295991897583;1.0155279636383057;0.12492799758911133;-0.4382239878177643;0.9408639669418335;-0.699999988079071;0.3499999940395355;-16.086875915527344
779;0.0;0.0;0.0;0.2449759989976883;-0.16884799301624298;1.2531839609146118;0.0;0.0;0.0
781;0.0;0.0;0.0;0.34647998213768005;-0.14151999354362488;1.1799839735031128;0.0;0.0;0.0
783;0.0;0.0;0.0;-0.08198399841785431;-0.32500800490379333;1.0540800094604492;0.0;0.0;0.0
786;0.09272000193595886;-0.12761199474334717;0.986735999584198;0.43139198422431946;-0.2391199916601181;1.1477760076522827;0.8400000333786011;0.42000001668930054;-23.086875915527344
788;0.0;0.0;0.0;0.12883199751377106;-0.15323199331760406;1.1760799884796143;0.0;0.0;0.0
790;0.0;0.0;0.0;-0.13566400110721588;-0.1844639927148819;1.0989760160446167;0.0;0.0;0.0
792;0.0;0.0;0.0;0.48214399814605713;-0.21959999203681946;1.0140639543533325;0.0;0.0;0.0
794;0.005367999896407127;-0.04172400012612343;1.0016199350357056;-0.08198399841785431;-0.09857599437236786;1.1926720142364502;-0.3499999940395355;0.8400000333786011;-22.52687644958496
796;0.0;0.0;0.0;0.03903999924659729;-0.0634399950504303;1.2287839651107788;0.0;0.0;0.0
798;0.0;0.0;0.0;0.15225599706172943;-0.13761599361896515;1.034559965133667;0.0;0.0;0.0
801;0.0;0.0;0.0;-0.13176000118255615;-0.04391999915242195;1.139967918395996;0.0;0.0;0.0
803;-0.058803997933864594;0.027084000408649445;0.9894199967384338;0.15518400073051453;-0.0907679945230484;1.09116792678833;-0.7699999809265137;0.2800000011920929;-15.036874771118164
805;0.0;0.0;0.0;0.023423999547958374;-0.03611199930310249;1.1311839818954468;0.0;0.0;0.0
807;0.0;0.0;0.0;-0.11614400148391724;-0.04391999915242195;1.1233760118484497;0.0;0.0;0.0
809;0.0;0.0;0.0;0.22545599937438965;-0.09467199444770813;1.0540800094604492;0.0;0.0;0.0
811;-0.0907679945230484;0.0878399983048439;0.9967399835586548;0.003903999924659729;0.02635199949145317;1.2043839693069458;-0.14000000059604645;0.6299999952316284;-9.226874351501465
813;0.0;0.0;0.0;0.08588799834251404;-0.05172799900174141;1.1272799968719482;0.0;0.0;0.0
815;0.0;0.0;0.0;0.11711999773979187;-0.13371199369430542;1.0823839902877808;0.0;0.0;0.0
818;0.0;0.0;0.0;0.09759999811649323;-0.020495999604463577;1.1360639333724976;0.0;0.0;0.0
820;-0.024887999519705772;0.08173999935388565;0.9964959621429443;0.062463998794555664;-0.0634399950504303;1.1721760034561157;0.07000000029802322;1.5399999618530273;3.023124933242798
822;0.0;0.0;0.0;-0.007807999849319458;0.006831999868154526;1.2043839693069458;0.0;0.0;0.0
824;0.0;0.0;0.0;0.34647998213768005;-0.31329599022865295;0.9164639711380005;0.0;0.0;0.0
826;0.0;0.0;0.0;-0.2332639992237091;0.06929600238800049;1.285391926765442;0.0;0.0;0.0
828;-0.06612399965524673;0.02659599855542183;0.9884439706802368;-0.04294399917125702;-0.0634399950504303;1.1838879585266113;-0.9100000262260437;0.42000001668930054;14.503125190734863
830;0.0;0.0;0.0;0.2840159833431244;-0.3718560039997101;0.936959981918335;0.0;0.0;0.0
832;0.0;0.0;0.0;-0.11224000155925751;-0.07124799489974976;1.2004799842834473;0.0;0.0;0.0
835;0.0;0.0;0.0;-0.04294399917125702;-0.1298079937696457;1.1516799926757812;0.0;0.0;0.0
837;-0.09223199635744095;0.010491999797523022;1.0016199350357056;0.19812799990177155;0.1786080002784729;1.2326879501342773;2.0299999713897705;1.9600000381469727;19.54312515258789
839;0.0;0.0;0.0;-0.48214399814605713;0.049775999039411545;1.0462720394134521;0.0;0.0;0.0
841;0.0;0.0;0.0;-0.5250880122184753;0.053679998964071274;1.0501760244369507;0.0;0.0;0.0
843;0.0;0.0;0.0;-0.2879199981689453;0.13176000118255615;1.2365919351577759;0.0;0.0;0.0
845;-0.5260639786720276;0.20227599143981934;1.0011320114135742;-0.5250880122184753;-0.09467199444770813;1.1360639333724976;2.870000123977661;1.5399999618530273;71.76312255859375
847;0.0;0.0;0.0;-0.16299200057983398;-0.16884799301624298;1.0628639459609985;0.0;0.0;0.0
849;0.0;0.0;0.0;0.0936959981918335;-0.07515199482440948;1.1721760034561157;0.0;0.0;0.0
852;0.0;0.0;0.0;0.08979199826717377;-0.08295999467372894;1.1682720184326172;0.0;0.0;0.0
854;-0.14151999354362488;0.04562800005078316;1.0013760328292847;0.054655998945236206;-0.05172799900174141;1.1682720184326172;3.9200000762939453;1.1200000047683716;61.47312545776367
856;0.0;0.0;0.0;0.17470400035381317;-0.12590399384498596;1.0784800052642822;0.0;0.0;0.0
858;0.0;0.0;0.0;0.18641600012779236;-0.1180959939956665;1.115567922592163;0.0;0.0;0.0
860;0.0;0.0;0.0;0.2879199981689453;-0.1727519929409027;1.1106879711151123;0.0;0.0;0.0
862;0.051239997148513794;-0.010979999788105488;0.9869799613952637;0.031231999397277832;-0.2781600058078766;1.1360639333724976;2.240000009536743;2.0999999046325684;57.6931266784668
864;0.0;0.0;0.0;0.0;-0.21569599211215973;1.1838879585266113;0.0;0.0;0.0
866;0.0;0.0;0.0;-0.003903999924659729;-0.36795198917388916;1.1067839860916138;0.0;0.0;0.0
869;0.0;0.0;0.0;-0.0663679987192154;-0.35233598947525024;1.1643680334091187;0.0;0.0;0.0
871;-0.1559159904718399;-0.17202000319957733;1.0145519971847534;-0.10443200170993805;-0.34062400460243225;1.1438720226287842;2.5199999809265137;1.8899999856948853;56.50312805175781
873;0.0;0.0;0.0;0.027327999472618103;-0.18836799263954163;1.0989760160446167;0.0;0.0;0.0
875;0.0;0.0;0.0;0.13663999736309052;-0.1844639927148819;1.1272799968719482;0.0;0.0;0.0
877;0.0;0.0;0.0;0.07417599856853485;-0.24302399158477783;1.1194720268249512;0.0;0.0;0.0
879;-0.05050799995660782;-0.09613599628210068;0.9918599724769592;0.08979199826717377;-0.2508319914340973;1.1311839818954468;1.5399999618530273;1.0499999523162842;47.12312698364258
881;0.0;0.0;0.0;0.08198399841785431;-0.2664479911327362;1.1272799968719482;0.0;0.0;0.0
883;0.0;0.0;0.0;-0.023423999547958374;-0.20788799226284027;1.139967918395996;0.0;0.0;0.0
886;0.0;0.0;0.0;-0.015615999698638916;-0.16884799301624298;1.1311839818954468;0.0;0.0;0.0
888;-0.08588799834251404;-0.0861319974064827;1.0008879899978638;0.0663679987192154;-0.17665599286556244;1.115567922592163;1.1200000047683716;1.5399999618530273;40.12312698364258
890;0.0;0.0;0.0;-0.054655998945236206;-0.1298079937696457;1.115567922592163;0.0;0.0;0.0
892;0.0;0.0;0.0;0.08588799834251404;-0.14932799339294434;1.1194720268249512;0.0;0.0;0.0
894;0.0;0.0;0.0;-0.0663679987192154;-0.07905599474906921;1.1477760076522827;0.0;0.0;0.0
896;-0.11907199770212173;0.013663999736309052;0.9979599714279175;0.07807999849319458;-0.11028799414634705;1.115567922592163;1.5399999618530273;1.1200000047683716;30.74312400817871
898;0.0;0.0;0.0;0.12492799758911133;-0.14151999354362488;1.1067839860916138;0.0;0.0;0.0
900;0.0;0.0;0.0;0.0936959981918335;-0.1180959939956665;1.115567922592163;0.0;0.0;0.0
903;0.0;0.0;0.0;0.1483519971370697;-0.12199999392032623;1.1438720226287842;0.0;0.0;0.0
905;-0.007807999849319458;0.003659999929368496;0.9896639585494995;0.03903999924659729;-0.12199999392032623;1.1194720268249512;0.9800000190734863;1.2599999904632568;24.723125457763672
907;0.0;0.0;0.0;0.08198399841785431;-0.11028799414634705;1.115567922592163;0.0;0.0;0.0
909;0.0;0.0;0.0;0.027327999472618103;-0.12590399384498596;1.1116639375686646;0.0;0.0;0.0
911;0.0;0.0;0.0;0.09759999811649323;-0.11028799414634705;1.1233760118484497;0.0;0.0;0.0
913;-0.045871999114751816;0.013175999745726585;0.9913719892501831;0.1327359974384308;-0.13371199369430542;1.1311839818954468;0.8400000333786011;0.3499999940395355;19.893123626708984
915;0.0;0.0;0.0;0.03513599932193756;-0.09467199444770813;1.1360639333724976;0.0;0.0;0.0
917;0.0;0.0;0.0;0.05075199902057648;-0.10247999429702759;1.0989760160446167;0.0;0.0;0.0
920;0.0;0.0;0.0;0.04684799909591675;-0.08295999467372894;1.1516799926757812;0.0;0.0;0.0
922;-0.06758800148963928;0.0378200002014637;1.0045479536056519;0.027327999472618103;-0.07515199482440948;1.1360639333724976;0.5600000023841858;0.42000001668930054;14.783125877380371
924;0.0;0.0;0.0;0.07417599856853485;-0.16494399309158325;1.0989760160446167;0.0;0.0;0.0
926;0.0;0.0;0.0;0.11321599781513214;-0.27035200595855713;1.09116792678833;0.0;0.0;0.0
928;0.0;0.0;0.0;0.054655998945236206;-0.18055999279022217;1.1887680292129517;0.0;0.0;0.0
930;-0.043431997299194336;-0.06880799680948257;0.9896639585494995;0.10150399804115295;-0.23131199181079865;1.1272799968719482;0.42000001668930054;0.21000000834465027;9.04312515258789
933;0.0;0.0;0.0;0.04294399917125702;-0.26254400610923767;1.1106879711151123;0.0;0.0;0.0
935;0.0;0.0;0.0;0.10931199789047241;-0.19227199256420135;1.1233760118484497;0.0;0.0;0.0
937;0.0;0.0;0.0;0.023423999547958374;-0.17665599286556244;1.1272799968719482;0.0;0.0;0.0
939;-0.04367600008845329;-0.07637199759483337;0.9962520003318787;0.10540799796581268;-0.2235039919614792;1.1311839818954468;0.3499999940395355;0.9800000190734863;4.843124866485596
941;0.0;0.0;0.0;0.05075199902057648;-0.1844639927148819;1.115567922592163;0.0;0.0;0.0
943;0.0;0.0;0.0;0.08198399841785431;-0.25863999128341675;1.1194720268249512;0.0;0.0;0.0
945;0.0;0.0;0.0;0.05075199902057648;-0.18055999279022217;1.1233760118484497;0.0;0.0;0.0
947;-0.04318799823522568;-0.0832040011882782;0.9945439696311951;0.08588799834251404;-0.16884799301624298;1.139967918395996;0.3499999940395355;-0.2800000011920929;-0.05687499791383743
949;0.0;0.0;0.0;0.062463998794555664;-0.1844639927148819;1.0872639417648315;0.0;0.0;0.0
951;0.0;0.0;0.0;0.08588799834251404;-0.13761599361896515;1.1477760076522827;0.0;0.0;0.0
954;0.0;0.0;0.0;0.1327359974384308;-0.09467199444770813;1.1721760034561157;0.0;0.0;0.0
956;-0.029279999434947968;-0.007319999858736992;0.9960079789161682;0.09759999811649323;-0.11028799414634705;1.1360639333724976;-0.14000000059604645;1.5399999618530273;-5.796875
958;0.0;0.0;0.0;0.13663999736309052;-0.13371199369430542;1.0989760160446167;0.0;0.0;0.0
960;0.0;0.0;0.0;0.15615999698638916;-0.05953599885106087;1.1477760076522827;0.0;0.0;0.0
962;0.0;0.0;0.0;0.15615999698638916;-0.07905599474906921;1.1194720268249512;0.0;0.0;0.0
964;0.0331839993596077;0.04196799919009209;0.9891759753227234;0.17177599668502808;-0.16103999316692352;1.083359956741333;-1.0499999523162842;0.49000000953674316;-6.706875324249268
967;0.0;0.0;0.0;0.10931199789047241;-0.2391199916601181;1.1594879627227783;0.0;0.0;0.0
969;0.0;0.0;0.0;0.1668960005044937;-0.2820639908313751;1.0784800052642822;0.0;0.0;0.0
971;0.0;0.0;0.0;0.09759999811649323;-0.11419199407100677;1.1604639291763306;0.0;0.0;0.0
973;-0.013663999736309052;-0.07149200141429901;0.9991799592971802;0.03903999924659729;-0.14151999354362488;1.1799839735031128;-1.4700000286102295;3.430000066757202;-9.996874809265137
975;0.0;0.0;0.0;0.023423999547958374;-0.32500800490379333;1.0296800136566162;0.0;0.0;0.0
977;0.0;0.0;0.0;0.007807999849319458;-0.27035200595855713;1.0823839902877808;0.0;0.0;0.0
979;0.0;0.0;0.0;0.031231999397277832;-0.14932799339294434;1.2082879543304443;0.0;0.0;0.0
981;-0.0756400004029274;-0.06661199778318405;0.9921039938926697;0.1210239976644516;-0.09467199444770813;1.1360639333724976;0.14000000059604645;1.190000057220459;-5.306875228881836
983;0.0;0.0;0.0;0.07807999849319458;-0.11028799414634705;1.1233760118484497;0.0;0.0;0.0
986;0.0;0.0;0.0;0.18251200020313263;-0.07515199482440948;1.115567922592163;0.0;0.0;0.0
988;0.0;0.0;0.0;0.12492799758911133;-0.032207999378442764;1.139967918395996;0.0;0.0;0.0
990;0.004879999905824661;0.06563600152730942;1.0013760328292847;0.15615999698638916;-0.07905599474906921;1.1067839860916138;-0.3499999940395355;0.8400000333786011;-0.2668749988079071
992;0.0;0.0;0.0;0.14054399728775024;-0.11028799414634705;1.0706720352172852;0.0;0.0;0.0
994;0.0;0.0;0.0;0.15615999698638916;-0.01268799975514412;1.1682720184326172;0.0;0.0;0.0
996;0.0;0.0;0.0;0.1483519971370697;-0.07124799489974976;1.1272799968719482;0.0;0.0;0.0
998;0.021959999576210976;0.05148399993777275;0.9877119660377502;0.1210239976644516;-0.14932799339294434;1.1516799926757812;-0.6299999952316284;0.49000000953674316;3.023124933242798
1001;0.0;0.0;0.0;0.0936959981918335;-0.17665599286556244;1.0706720352172852;0.0;0.0;0.0
1003;0.0;0.0;0.0;0.16787199676036835;-0.12199999392032623;1.1272799968719482;0.0;0.0;0.0
1005;0.0;0.0;0.0;0.07417599856853485;-0.2508319914340973;1.115567922592163;0.0;0.0;0.0
1007;-0.01659199967980385;-0.02147199958562851;0.9921039938926697;0.08979199826717377;-0.12199999392032623;1.2004799842834473;0.7699999809265137;0.699999988079071;4.073124885559082
1009;0.0;0.0;0.0;0.07417599856853485;-0.26254400610923767;1.1067839860916138;0.0;0.0;0.0
1011;0.0;0.0;0.0;0.13663999736309052;-0.2664479911327362;1.1194720268249512;0.0;0.0;0.0
1013;0.0;0.0;0.0;0.05075199902057648;-0.13761599361896515;1.2043839693069458;0.0;0.0;0.0
1015;0.0004879999905824661;-0.07807999849319458;0.9955199956893921;0.11321599781513214;-0.2117919921875;1.0823839902877808;0.3499999940395355;1.399999976158142;5.683125019073486
1017;0.0;0.0;0.0;0.24107199907302856;-0.2000799924135208;1.0501760244369507;0.0;0.0;0.0
1020;0.0;0.0;0.0;-0.05075199902057648;-0.16103999316692352;1.2248799800872803;0.0;0.0;0.0
1022;0.0;0.0;0.0;0.2176479995250702;-0.2937760055065155;1.0540800094604492;0.0;0.0;0.0
1024;-0.004635999910533428;-0.07246799767017365;1.0006439685821533;0.1756799966096878;-0.11419199407100677;1.1682720184326172;0.14000000059604645;1.190000057220459;6.103125095367432
1026;0.0;0.0;0.0;0.10540799796581268;-0.12199999392032623;1.0872639417648315;0.0;0.0;0.0
1028;0.0;0.0;0.0;0.18641600012779236;-0.18055999279022217;1.1116639375686646;0.0;0.0;0.0
1030;0.0;0.0;0.0;0.062463998794555664;-0.27425599098205566;1.0540800094604492;0.0;0.0;0.0
1032;0.015859998762607574;-0.035868000239133835;0.986735999584198;0.12883199751377106;-0.10247999429702759;1.2043839693069458;-0.2800000011920929;0.2800000011920929;4.563125133514404
1034;0.0;0.0;0.0;0.27620798349380493;-0.12199999392032623;1.0462720394134521;0.0;0.0;0.0
1037;0.0;0.0;0.0;0.08198399841785431;-0.16884799301624298;1.0989760160446167;0.0;0.0;0.0
1039;0.0;0.0;0.0;0.0663679987192154;-0.19227199256420135;1.0989760160446167;0.0;0.0;0.0
1041;0.030743999406695366;-0.017079999670386314;0.9772199988365173;0.14347200095653534;-0.18836799263954163;1.1272799968719482;0.42000001668930054;0.5600000023841858;1.5531249046325684
1043;0.0;0.0;0.0;0.19422399997711182;-0.020495999604463577;1.139967918395996;0.0;0.0;0.0
1045;0.0;0.0;0.0;0.19422399997711182;-0.04782399907708168;1.139967918395996;0.0;0.0;0.0
1047;0.0;0.0;0.0;0.15225599706172943;-0.13761599361896515;1.0989760160446167;0.0;0.0;0.0
1049;0.035868000239133835;0.042211998254060745;1.0006439685821533;-0.023423999547958374;-0.10638399422168732;1.1799839735031128;0.7699999809265137;0.8400000333786011;0.6431249976158142
1052;0.0;0.0;0.0;0.22935999929904938;-0.10638399422168732;1.0706720352172852;0.0;0.0;0.0
1054;0.0;0.0;0.0;0.11711999773979187;-0.05953599885106087;1.1477760076522827;0.0;0.0;0.0
1056;0.0;0.0;0.0;0.10540799796581268;-0.01659199967980385;1.1477760076522827;0.0;0.0;0.0
1058;0.052216000854969025;0.08173999935388565;0.9943000078201294;0.33476799726486206;0.022447999566793442;1.0823839902877808;0.07000000029802322;-0.42000001668930054;-0.12687499821186066
1060;0.0;0.0;0.0;0.18641600012779236;0.11224000155925751;1.1838879585266113;0.0;0.0;0.0
1062;0.0;0.0;0.0;0.350383996963501;-0.15323199331760406;0.9164639711380005;0.0;0.0;0.0
1064;0.0;0.0;0.0;-0.03513599932193756;0.1512800008058548;1.2697759866714478;0.0;0.0;0.0
1066;0.08466799557209015;0.15371999144554138;0.9835639595985413;0.19812799990177155;0.04196799919009209;1.1555839776992798;0.0;0.6299999952316284;0.7131249904632568
1069;0.0;0.0;0.0;0.3699039816856384;-0.05953599885106087;0.9242720007896423;0.0;0.0;0.0
1071;0.0;0.0;0.0;-0.1668960005044937;0.15908800065517426;1.3019839525222778;0.0;0.0;0.0
1073;0.0;0.0;0.0;0.2683999836444855;-0.05563199892640114;1.0540800094604492;0.0;0.0;0.0
1075;0.010979999788105488;0.16152799129486084;0.9882000088691711;0.15615999698638916;-0.01268799975514412;1.0706720352172852;-0.07000000029802322;1.1200000047683716;3.2331249713897705
1077;0.0;0.0;0.0;-0.07417599856853485;0.02635199949145317;1.1682720184326172;0.0;0.0;0.0
1079;0.0;0.0;0.0;0.27620798349380493;0.053679998964071274;1.1272799968719482;0.0;0.0;0.0
1081;0.0;0.0;0.0;0.23716799914836884;0.06148799881339073;1.1116639375686646;0.0;0.0;0.0
1083;0.03391600027680397;0.15640400350093842;0.9801479578018188;0.015615999698638916;0.057583998888731;1.1682720184326172;0.2800000011920929;1.0499999523162842;4.773125171661377
1086;0.0;0.0;0.0;0.3113439977169037;0.010735999792814255;1.0501760244369507;0.0;0.0;0.0
1088;0.0;0.0;0.0;-0.1395680010318756;-0.020495999604463577;1.1555839776992798;0.0;0.0;0.0
1090;0.0;0.0;0.0;0.1327359974384308;-0.0907679945230484;1.0501760244369507;0.0;0.0;0.0
1092;-0.023180000483989716;0.12663599848747253;0.9889319539070129;0.10150399804115295;0.0849120020866394;1.2248799800872803;0.42000001668930054;0.21000000834465027;7.433125019073486
1094;0.0;0.0;0.0;0.1327359974384308;-0.08295999467372894;1.09116792678833;0.0;0.0;0.0
1096;0.0;0.0;0.0;0.03513599932193756;-0.10247999429702759;1.1116639375686646;0.0;0.0;0.0
1098;0.0;0.0;0.0;0.054655998945236206;-0.12199999392032623;1.1516799926757812;0.0;0.0;0.0
1100;-0.023180000483989716;0.053679998964071274;0.98990797996521;0.2449759989976883;-0.07905599474906921;1.0384639501571655;0.2800000011920929;0.699999988079071;4.983124732971191
1103;0.0;0.0;0.0;0.13663999736309052;-0.0009759999811649323;1.1760799884796143;0.0;0.0;0.0
1105;0.0;0.0;0.0;0.1483519971370697;-0.04391999915242195;1.1194720268249512;0.0;0.0;0.0
1107;0.0;0.0;0.0;0.2332639992237091;-0.04391999915242195;1.115567922592163;0.0;0.0;0.0
1109;0.0453839972615242;0.11467999964952469;1.0016199350357056;0.17080000042915344;-0.024399999529123306;1.1477760076522827;0.49000000953674316;0.49000000953674316;4.773125171661377
1111;0.0;0.0;0.0;0.08979199826717377;-0.0634399950504303;1.115567922592163;0.0;0.0;0.0
1113;0.0;0.0;0.0;0.27620798349380493;-0.10638399422168732;1.0823839902877808;0.0;0.0;0.0
1115;0.0;0.0;0.0;0.0;-0.07515199482440948;1.1594879627227783;0.0;0.0;0.0
1117;0.02757199853658676;0.062219999730587006;0.9789279699325562;0.058559998869895935;-0.11028799414634705;1.1594879627227783;0.6299999952316284;0.14000000059604645;4.353125095367432
1120;0.0;0.0;0.0;0.0936959981918335;-0.16103999316692352;1.1350879669189453;0.0;0.0;0.0
1122;0.0;0.0;0.0;0.22935999929904938;-0.04782399907708168;1.066767930984497;0.0;0.0;0.0
1124;0.0;0.0;0.0;0.11321599781513214;-0.024399999529123306;1.1643680334091187;0.0;0.0;0.0
1126;-0.008295999839901924;0.04367600008845329;0.998691976070404;0.05075199902057648;-0.1180959939956665;1.1555839776992798;0.8400000333786011;-0.07000000029802322;3.2331249713897705
1128;0.0;0.0;0.0;0.0936959981918335;-0.15323199331760406;1.0784800052642822;0.0;0.0;0.0
1130;0.0;0.0;0.0;0.03513599932193756;-0.05953599885106087;1.1760799884796143;0.0;0.0;0.0
1132;0.0;0.0;0.0;0.2566879987716675;-0.1298079937696457;1.1028800010681152;0.0;0.0;0.0
1134;0.014151999726891518;0.04050400108098984;0.9943000078201294;0.2840159833431244;0.0029279999434947968;1.1028800010681152;-0.3499999940395355;0.8400000333786011;3.583124876022339
1137;0.0;0.0;0.0;0.058559998869895935;-0.08686399459838867;1.1360639333724976;0.0;0.0;0.0
1139;0.0;0.0;0.0;0.2449759989976883;-0.032207999378442764;1.1233760118484497;0.0;0.0;0.0
1141;0.0;0.0;0.0;0.10931199789047241;-0.04001599922776222;1.1311839818954468;0.0;0.0;0.0
1143;0.058559998869895935;0.0832040011882782;0.9935680031776428;0.24887999892234802;-0.00878399983048439;1.1311839818954468;0.2800000011920929;0.7699999809265137;1.9031249284744263
1145;0.0;0.0;0.0;0.3542879819869995;0.0029279999434947968;1.139967918395996;0.0;0.0;0.0
1147;0.0;0.0;0.0;0.21374399960041046;-0.06734399497509003;1.0706720352172852;0.0;0.0;0.0
1149;0.0;0.0;0.0;-0.08198399841785431;-0.10247999429702759;1.115567922592163;0.0;0.0;0.0
1151;0.03367199748754501;0.08198399841785431;0.97843998670578;0.003903999924659729;-0.10638399422168732;1.1360639333724976;-1.0499999523162842;1.75;-1.5268750190734863
1154;0.0;0.0;0.0;0.34647998213768005;-0.004879999905824661;1.0872639417648315;0.0;0.0;0.0
1156;0.0;0.0;0.0;0.12492799758911133;0.0029279999434947968;1.1233760118484497;0.0;0.0;0.0
1158;0.0;0.0;0.0;0.2723039984703064;-0.01659199967980385;1.0950720310211182;0.0;0.0;0.0
1160;0.06929600238800049;0.11663199961185455;0.9906399846076965;0.1210239976644516;0.03415999934077263;1.139967918395996;0.42000001668930054;-0.2800000011920929;-5.866875171661377
1162;0.0;0.0;0.0;0.15615999698638916;-0.0009759999811649323;1.1360639333724976;0.0;0.0;0.0
1164;0.0;0.0;0.0;0.18641600012779236;-0.08295999467372894;1.042367935180664;0.0;0.0;0.0
1166;0.0;0.0;0.0;0.1327359974384308;-0.0634399950504303;1.1360639333724976;0.0;0.0;0.0
1168;0.0378200002014637;0.10711599886417389;0.9838079810142517;0.10150399804115295;-0.00878399983048439;1.1721760034561157;-0.21000000834465027;-0.21000000834465027;-4.886875152587891
1171;0.0;0.0;0.0;0.2566879987716675;-0.03611199930310249;1.1516799926757812;0.0;0.0;0.0
1173;0.0;0.0;0.0;0.30353599786758423;-0.07905599474906921;1.0540800094604492;0.0;0.0;0.0
1175;0.0;0.0;0.0;0.11321599781513214;0.0029279999434947968;1.1760799884796143;0.0;0.0;0.0
1177;0.06661199778318405;0.08222799748182297;0.9943000078201294;-0.03903999924659729;-0.11419199407100677;1.1028800010681152;-0.5600000023841858;0.699999988079071;-5.446875095367432
1179;0.0;0.0;0.0;-0.027327999472618103;-0.20398399233818054;1.0872639417648315;0.0;0.0;0.0
1181;0.0;0.0;0.0;0.28011199831962585;-0.08295999467372894;1.09116792678833;0.0;0.0;0.0
1183;0.0;0.0;0.0;0.15615999698638916;-0.024399999529123306;1.1721760034561157;0.0;0.0;0.0
1185;0.017324000597000122;0.03513599932193756;0.9938119649887085;0.2683999836444855;-0.06734399497509003;1.115567922592163;-0.21000000834465027;0.0;-8.316874504089355
1188;0.0;0.0;0.0;0.062463998794555664;-0.12199999392032623;1.0872639417648315;0.0;0.0;0.0
1190;0.0;0.0;0.0;0.04684799909591675;-0.08686399459838867;1.1594879627227783;0.0;0.0;0.0
1192;0.0;0.0;0.0;0.09759999811649323;-0.20398399233818054;1.042367935180664;0.0;0.0;0.0
1194;-0.01195599976927042;0.035868000239133835;0.9872239828109741;0.19422399997711182;0.04196799919009209;1.2209759950637817;0.0;-0.42000001668930054;-7.966875076293945
1196;0.0;0.0;0.0;0.14444799721240997;-0.07905599474906921;1.1311839818954468;0.0;0.0;0.0
1198;0.0;0.0;0.0;0.18348799645900726;-0.22740799188613892;0.9896639585494995;0.0;0.0;0.0
1200;0.0;0.0;0.0;-0.07807999849319458;-0.028303999453783035;1.2209759950637817;0.0;0.0;0.0
1202;0.034648001194000244;0.0348920002579689;0.9877119660377502;0.24107199907302856;-0.05953599885106087;1.0989760160446167;-0.49000000953674316;0.49000000953674316;-10.066874504089355
1205;0.0;0.0;0.0;0.3425759971141815;-0.04391999915242195;1.09116792678833;0.0;0.0;0.0
1207;0.0;0.0;0.0;0.08198399841785431;-0.032207999378442764;1.1926720142364502;0.0;0.0;0.0
1209;0.0;0.0;0.0;0.29182398319244385;-0.14151999354362488;1.0296800136566162;0.0;0.0;0.0
1211;0.06539200246334076;0.07710400223731995;0.9962520003318787;0.058559998869895935;-0.020495999604463577;1.2043839693069458;-0.3499999940395355;0.2800000011920929;-13.286874771118164
1213;0.0;0.0;0.0;0.14054399728775024;-0.0907679945230484;1.09116792678833;0.0;0.0;0.0
1215;0.0;0.0;0.0;0.22155199944972992;-0.11028799414634705;1.0989760160446167;0.0;0.0;0.0
1217;0.0;0.0;0.0;0.07417599856853485;-0.03611199930310249;1.1594879627227783;0.0;0.0;0.0
1219;0.03562399744987488;0.057339999824762344;0.9894199967384338;0.17177599668502808;-0.04001599922776222;1.09116792678833;-0.8400000333786011;-0.49000000953674316;-15.946874618530273
1222;0.0;0.0;0.0;0.22935999929904938;-0.05563199892640114;1.0989760160446167;0.0;0.0;0.0
1224;0.0;0.0;0.0;0.18641600012779236;-0.08686399459838867;1.09116792678833;0.0;0.0;0.0
1226;0.0;0.0;0.0;0.05075199902057648;0.04196799919009209;1.1594879627227783;0.0;0.0;0.0
1228;0.042211998254060745;0.09564799815416336;0.9855159521102905;0.1512800008058548;-0.01268799975514412;1.1311839818954468;-0.5600000023841858;0.0;-16.50687599182129
1230;0.0;0.0;0.0;0.18641600012779236;-0.028303999453783035;1.0950720310211182;0.0;0.0;0.0
1232;0.0;0.0;0.0;0.260591983795166;0.03806399926543236;1.1594879627227783;0.0;0.0;0.0
1234;0.0;0.0;0.0;0.0663679987192154;0.014639999717473984;1.1067839860916138;0.0;0.0;0.0
1236;0.07344400137662888;0.11785199493169785;0.9886879920959473;0.31915199756622314;-0.04391999915242195;1.1067839860916138;-1.1200000047683716;-0.9800000190734863;-16.016876220703125
1239;0.0;0.0;0.0;0.11321599781513214;-0.004879999905824661;1.0872639417648315;0.0;0.0;0.0
1241;0.0;0.0;0.0;0.0;0.010735999792814255;1.1799839735031128;0.0;0.0;0.0
1243;0.0;0.0;0.0;0.22155199944972992;-0.04391999915242195;1.066767930984497;0.0;0.0;0.0
1245;0.019519999623298645;0.12248799949884415;0.9930799603462219;0.17177599668502808;0.0302559994161129;1.1438720226287842;-0.6299999952316284;0.8400000333786011;-14.196874618530273
1247;0.0;0.0;0.0;0.007807999849319458;0.02635199949145317;1.1067839860916138;0.0;0.0;0.0
1249;0.0;0.0;0.0;-0.12004800140857697;-0.01268799975514412;1.1116639375686646;0.0;0.0;0.0
1251;0.0;0.0;0.0;0.03903999924659729;0.02635199949145317;1.1516799926757812;0.0;0.0;0.0
1253;-0.09198799729347229;0.13298000395298004;0.9833199977874756;0.1512800008058548;-0.08686399459838867;1.0013760328292847;-0.9800000190734863;-0.3499999940395355;-11.256875038146973
1256;0.0;0.0;0.0;0.10540799796581268;0.057583998888731;1.1965759992599487;0.0;0.0;0.0
1258;0.0;0.0;0.0;0.3269599974155426;0.10052800178527832;1.1477760076522827;0.0;0.0;0.0
1260;0.0;0.0;0.0;0.027327999472618103;0.045871999114751816;1.1028800010681152;0.0;0.0;0.0
1262;0.06002400070428848;0.18397599458694458;0.9950319528579712;0.35819199681282043;0.022447999566793442;1.1067839860916138;0.3499999940395355;-0.3499999940395355;-7.196875095367432
1264;0.0;0.0;0.0;0.03513599932193756;0.1239520013332367;1.1760799884796143;0.0;0.0;0.0
1266;0.0;0.0;0.0;0.25278398394584656;-0.004879999905824661;1.0462720394134521;0.0;0.0;0.0
1268;0.0;0.0;0.0;-0.019519999623298645;0.07320000231266022;1.1877919435501099;0.0;0.0;0.0
1270;0.05197199806571007;0.1739719957113266;0.9869799613952637;0.3659999966621399;-0.028303999453783035;1.0784800052642822;-0.49000000953674316;1.6800000667572021;-2.926875114440918
1273;0.0;0.0;0.0;0.12492799758911133;0.014639999717473984;1.115567922592163;0.0;0.0;0.0
1275;0.0;0.0;0.0;0.03903999924659729;0.0302559994161129;1.1516799926757812;0.0;0.0;0.0
1277;0.0;0.0;0.0;0.3699039816856384;-0.07124799489974976;1.042367935180664;0.0;0.0;0.0
1279;0.026839999482035637;0.130295991897583;0.9781959652900696;0.015615999698638916;0.057583998888731;1.1877919435501099;0.2800000011920929;0.699999988079071;-2.786875009536743
1281;0.0;0.0;0.0;0.3542879819869995;-0.024399999529123306;1.1233760118484497;0.0;0.0;0.0
1283;0.0;0.0;0.0;0.07417599856853485;0.014639999717473984;1.09116792678833;0.0;0.0;0.0
1285;0.0;0.0;0.0;0.2683999836444855;-0.0009759999811649323;1.115567922592163;0.0;0.0;0.0
1287;0.09223199635744095;0.14566799998283386;0.9884439706802368;0.21374399960041046;0.0029279999434947968;1.1028800010681152;-0.14000000059604645;0.07000000029802322;-2.7168750762939453
1290;0.0;0.0;0.0;0.1327359974384308;-0.020495999604463577;1.0706720352172852;0.0;0.0;0.0
1292;0.0;0.0;0.0;0.05075199902057648;0.08881600201129913;1.2121919393539429;0.0;0.0;0.0
1294;0.0;0.0;0.0;0.22155199944972992;0.049775999039411545;1.0950720310211182;0.0;0.0;0.0
1296;0.023667998611927032;0.14395999908447266;0.9803919792175293;0.18641600012779236;-0.11028799414634705;0.9652639627456665;-0.42000001668930054;0.8400000333786011;-5.026875019073486
1298;0.0;0.0;0.0;-0.09759999811649323;0.15908800065517426;1.2648959159851074;0.0;0.0;0.0
1300;0.0;0.0;0.0;0.3269599974155426;-0.03611199930310249;1.042367935180664;0.0;0.0;0.0
1302;0.0;0.0;0.0;0.08979199826717377;0.018543999642133713;1.09116792678833;0.0;0.0;0.0
1304;0.009759999811649323;0.1751919984817505;1.0006439685821533;0.1210239976644516;0.09662400186061859;1.2004799842834473;0.7699999809265137;1.3300000429153442;-9.366874694824219
1307;0.0;0.0;0.0;0.2723039984703064;0.0302559994161129;1.1194720268249512;0.0;0.0;0.0
1309;0.0;0.0;0.0;0.15615999698638916;0.03415999934077263;1.0540800094604492;0.0;0.0;0.0
1311;0.0;0.0;0.0;0.1668960005044937;0.10443200170993805;1.1350879669189453;0.0;0.0;0.0
1313;0.06417199969291687;0.1890999972820282;0.9796599745750427;0.20983999967575073;0.08881600201129913;1.1555839776992798;-0.7699999809265137;0.21000000834465027;-9.786874771118164
1315;0.0;0.0;0.0;0.18348799645900726;0.1512800008058548;1.1516799926757812;0.0;0.0;0.0
1317;0.0;0.0;0.0;0.2996319830417633;0.0029279999434947968;0.9974719882011414;0.0;0.0;0.0
1319;0.0;0.0;0.0;0.11711999773979187;0.17080000042915344;1.1926720142364502;0.0;0.0;0.0
1321;0.1012599989771843;0.2227720022201538;0.9811239838600159;0.45481598377227783;0.0302559994161129;1.0257760286331177;-0.14000000059604645;0.49000000953674316;-7.406875133514404
1324;0.0;0.0;0.0;0.2176479995250702;0.12785600125789642;1.1438720226287842;0.0;0.0;0.0
1326;0.0;0.0;0.0;0.29182398319244385;0.0849120020866394;1.1643680334091187;0.0;0.0;0.0
1328;0.0;0.0;0.0;0.3230559825897217;0.11224000155925751;1.0501760244369507;0.0;0.0;0.0
1330;0.15518400073051453;0.22765199840068817;0.9789279699325562;0.17080000042915344;0.04196799919009209;1.09116792678833;0.699999988079071;0.2800000011920929;-1.2468750476837158
1332;0.0;0.0;0.0;0.2840159833431244;0.17080000042915344;1.1965759992599487;0.0;0.0;0.0
1334;0.0;0.0;0.0;0.411871999502182;-0.06734399497509003;0.9525759816169739;0.0;0.0;0.0
1336;0.0;0.0;0.0;0.007807999849319458;0.045871999114751816;1.1799839735031128;0.0;0.0;0.0
1338;0.15615999698638916;0.17299599945545197;0.9701439738273621;0.350383996963501;0.10052800178527832;1.1350879669189453;1.3300000429153442;-0.21000000834465027;4.42312479019165
1341;0.0;0.0;0.0;0.3113439977169037;-0.032207999378442764;1.0579839944839478;0.0;0.0;0.0
1343;0.0;0.0;0.0;0.18641600012779236;-0.12590399384498596;1.1194720268249512;0.0;0.0;0.0
1345;0.0;0.0;0.0;0.5328959822654724;-0.0634399950504303;1.0784800052642822;0.0;0.0;0.0
1347;0.15957599878311157;0.10565199702978134;0.9901520013809204;0.22545599937438965;0.010735999792814255;1.1682720184326172;1.2599999904632568;-0.49000000953674316;4.213124752044678
1349;0.0;0.0;0.0;0.29182398319244385;-0.05172799900174141;1.0784800052642822;0.0;0.0;0.0
1351;0.0;0.0;0.0;0.260591983795166;0.12004800140857697;1.1643680334091187;0.0;0.0;0.0
1353;0.0;0.0;0.0;0.3659999966621399;-0.1298079937696457;1.0784800052642822;0.0;0.0;0.0
1356;0.19397999346256256;0.11614400148391724;0.97843998670578;0.3542879819869995;0.010735999792814255;1.1360639333724976;0.3499999940395355;-0.3499999940395355;6.103125095367432
1358;0.0;0.0;0.0;0.33476799726486206;-0.05172799900174141;1.0589599609375;0.0;0.0;0.0
1360;0.0;0.0;0.0;0.27620798349380493;0.03806399926543236;1.1926720142364502;0.0;0.0;0.0
1362;0.0;0.0;0.0;0.4470079839229584;-0.06734399497509003;1.0823839902877808;0.0;0.0;0.0
1364;0.21886800229549408;0.10858000069856644;0.9860039949417114;0.260591983795166;-0.01659199967980385;1.1477760076522827;1.190000057220459;-0.7699999809265137;7.713124752044678
1366;0.0;0.0;0.0;0.423583984375;-0.16103999316692352;1.0706720352172852;0.0;0.0;0.0
1368;0.0;0.0;0.0;0.35819199681282043;-0.2000799924135208;1.0950720310211182;0.0;0.0;0.0
1370;0.0;0.0;0.0;0.350383996963501;0.08100800216197968;1.2414720058441162;0.0;0.0;0.0
1373;0.25863999128341675;0.0348920002579689;0.9750239849090576;0.44310399889945984;-0.11028799414634705;1.0706720352172852;1.4700000286102295;-0.2800000011920929;6.943124771118164
1375;0.0;0.0;0.0;0.19812799990177155;-0.09467199444770813;1.0745760202407837;0.0;0.0;0.0
1377;0.0;0.0;0.0;0.33086398243904114;-0.09467199444770813;1.2209759950637817;0.0;0.0;0.0
1379;0.0;0.0;0.0;0.40113598108291626;-0.19227199256420135;1.0989760160446167;0.0;0.0;0.0
1381;0.2147199958562851;0.0021959999576210976;0.9842959642410278;0.423583984375;-0.14932799339294434;1.0013760328292847;0.9100000262260437;-0.21000000834465027;7.293125152587891
1383;0.0;0.0;0.0;0.3230559825897217;-0.05172799900174141;1.1965759992599487;0.0;0.0;0.0
1385;0.0;0.0;0.0;0.4050399959087372;-0.04001599922776222;1.0989760160446167;0.0;0.0;0.0
1387;0.0;0.0;0.0;0.31915199756622314;-0.08686399459838867;1.1360639333724976;0.0;0.0;0.0
1390;0.24473199248313904;0.06075599789619446;0.9842959642410278;0.3152479827404022;-0.08686399459838867;1.042367935180664;1.1200000047683716;1.1200000047683716;8.69312572479248
1392;0.0;0.0;0.0;0.30743998289108276;-0.19617599248886108;1.1272799968719482;0.0;0.0;0.0
1394;0.0;0.0;0.0;0.4001599848270416;0.08881600201129913;1.1643680334091187;0.0;0.0;0.0
1396;0.0;0.0;0.0;0.3972319960594177;0.018543999642133713;1.1067839860916138;0.0;0.0;0.0
1398;0.22789599001407623;0.09930799901485443;0.9872239828109741;0.2879199981689453;-0.04782399907708168;1.0501760244369507;1.6100000143051147;0.8400000333786011;9.463125228881836
1400;0.0;0.0;0.0;0.33086398243904114;0.0849120020866394;1.1233760118484497;0.0;0.0;0.0
1402;0.0;0.0;0.0;0.41284799575805664;0.022447999566793442;1.1194720268249512;0.0;0.0;0.0
1404;0.0;0.0;0.0;0.29572799801826477;-0.01268799975514412;1.1233760118484497;0.0;0.0;0.0
1407;0.22033199667930603;0.14566799998283386;0.9723399877548218;0.33086398243904114;-0.04391999915242195;1.0872639417648315;1.8899999856948853;0.9100000262260437;12.823125839233398
1409;0.0;0.0;0.0;0.3972319960594177;-0.07515199482440948;1.0823839902877808;0.0;0.0;0.0
1411;0.0;0.0;0.0;0.2449759989976883;-0.0907679945230484;1.1438720226287842;0.0;0.0;0.0
1413;0.0;0.0;0.0;0.3152479827404022;-0.1571359932422638;1.1067839860916138;0.0;0.0;0.0
1415;0.18397599458694458;0.030988000333309174;0.985759973526001;0.2449759989976883;-0.16494399309158325;1.0706720352172852;1.6100000143051147;1.3300000429153442;14.503125190734863
1417;0.0;0.0;0.0;0.34647998213768005;-0.1180959939956665;1.1477760076522827;0.0;0.0;0.0
1419;0.0;0.0;0.0;0.2566879987716675;-0.2235039919614792;1.1477760076522827;0.0;0.0;0.0
1421;0.0;0.0;0.0;0.3230559825897217;-0.28596800565719604;1.0989760160446167;0.0;0.0;0.0
1424;0.17665599286556244;-0.060999996960163116;0.9921039938926697;0.3152479827404022;-0.10247999429702759;1.1067839860916138;1.6100000143051147;0.7699999809265137;12.613125801086426
1426;0.0;0.0;0.0;0.44310399889945984;-0.11419199407100677;1.1272799968719482;0.0;0.0;0.0
1428;0.0;0.0;0.0;0.29572799801826477;-0.04391999915242195;1.1028800010681152;0.0;0.0;0.0
1430;0.0;0.0;0.0;0.27620798349380493;-0.01268799975514412;1.1194720268249512;0.0;0.0;0.0
1432;0.20935200154781342;0.0710039958357811;0.9913719892501831;0.24107199907302856;-0.03611199930310249;1.1682720184326172;2.5199999809265137;0.0;12.2631254196167
1434;0.0;0.0;0.0;0.30353599786758423;-0.13761599361896515;1.1028800010681152;0.0;0.0;0.0
1436;0.0;0.0;0.0;0.30743998289108276;-0.12590399384498596;1.1116639375686646;0.0;0.0;0.0
1438;0.0;0.0;0.0;0.3230559825897217;-0.18055999279022217;1.1233760118484497;0.0;0.0;0.0
1441;0.17470400035381317;-0.0014639999717473984;0.9855159521102905;0.3230559825897217;-0.19617599248886108;1.1116639375686646;2.380000114440918;-0.2800000011920929;11.493125915527344
1443;0.0;0.0;0.0;0.22545599937438965;-0.18055999279022217;1.115567922592163;0.0;0.0;0.0
1445;0.0;0.0;0.0;0.33476799726486206;-0.08295999467372894;1.115567922592163;0.0;0.0;0.0
1447;0.0;0.0;0.0;0.3386719822883606;-0.09857599437236786;1.1555839776992798;0.0;0.0;0.0
1449;0.17031200230121613;0.006099999882280827;0.9906399846076965;0.2176479995250702;-0.16103999316692352;1.1360639333724976;2.940000057220459;-0.9100000262260437;9.673125267028809
1451;0.0;0.0;0.0;0.29182398319244385;-0.2117919921875;1.0950720310211182;0.0;0.0;0.0
1453;0.0;0.0;0.0;0.24887999892234802;-0.18836799263954163;1.139967918395996;0.0;0.0;0.0
1455;0.0;0.0;0.0;0.33476799726486206;-0.11028799414634705;1.1116639375686646;0.0;0.0;0.0
1458;0.14761999249458313;-0.02781599946320057;0.9833199977874756;0.24887999892234802;-0.14151999354362488;1.1116639375686646;2.5199999809265137;0.07000000029802322;8.973125457763672
1460;0.0;0.0;0.0;0.3230559825897217;-0.13371199369430542;1.115567922592163;0.0;0.0;0.0
1462;0.0;0.0;0.0;0.2683999836444855;-0.16884799301624298;1.1311839818954468;0.0;0.0;0.0
1464;0.0;0.0;0.0;0.22545599937438965;-0.21959999203681946;1.0989760160446167;0.0;0.0;0.0
1466;0.15567199885845184;-0.04440800100564957;0.9933239817619324;0.33476799726486206;-0.22740799188613892;1.1555839776992798;3.009999990463257;-1.8899999856948853;9.253125190734863
1468;0.0;0.0;0.0;0.13663999736309052;-0.26254400610923767;1.0989760160446167;0.0;0.0;0.0
1470;0.0;0.0;0.0;0.2332639992237091;-0.24302399158477783;1.1194720268249512;0.0;0.0;0.0
1472;0.0;0.0;0.0;0.2723039984703064;-0.2547360062599182;1.1311839818954468;0.0;0.0;0.0
1475;0.11687599867582321;-0.10687199980020523;0.9850279688835144;0.2449759989976883;-0.23131199181079865;1.1028800010681152;1.8200000524520874;-0.9100000262260437;6.73312520980835
1477;0.0;0.0;0.0;0.34647998213768005;-0.2664479911327362;1.132159948348999;0.0;0.0;0.0
1479;0.0;0.0;0.0;0.20203199982643127;-0.27425599098205566;1.0989760160446167;0.0;0.0;0.0
1481;0.0;0.0;0.0;0.4167519807815552;-0.22740799188613892;1.1438720226287842;0.0;0.0;0.0
1483;0.1449359953403473;-0.12029200047254562;0.9877119660377502;0.18251200020313263;-0.27425599098205566;1.1360639333724976;1.6100000143051147;-0.699999988079071;3.7931249141693115
1485;0.0;0.0;0.0;0.22545599937438965;-0.29767999053001404;1.0579839944839478;0.0;0.0;0.0
1487;0.0;0.0;0.0;0.2879199981689453;-0.20788799226284027;1.1760799884796143;0.0;0.0;0.0
1489;0.0;0.0;0.0;0.1600639969110489;-0.20788799226284027;1.09116792678833;0.0;0.0;0.0
1492;0.13176000118255615;-0.09101200103759766;0.9923479557037354;0.3113439977169037;-0.16494399309158325;1.0989760160446167;0.49000000953674316;-0.42000001668930054;2.883125066757202
1494;0.0;0.0;0.0;0.260591983795166;-0.05563199892640114;1.139967918395996;0.0;0.0;0.0
1496;0.0;0.0;0.0;0.2449759989976883;-0.08295999467372894;1.0784800052642822;0.0;0.0;0.0
1498;0.0;0.0;0.0;0.19422399997711182;-0.024399999529123306;1.1233760118484497;0.0;0.0;0.0
1500;0.1239520013332367;0.07685999572277069;0.986735999584198;0.2840159833431244;0.06148799881339073;1.2170720100402832;0.9800000190734863;0.42000001668930054;4.563125133514404
1502;0.0;0.0;0.0;0.09759999811649323;-0.07515199482440948;1.0589599609375;0.0;0.0;0.0
1504;0.0;0.0;0.0;0.33086398243904114;-0.0634399950504303;1.0784800052642822;0.0;0.0;0.0
1506;0.0;0.0;0.0;0.3113439977169037;0.010735999792814255;1.1028800010681152;0.0;0.0;0.0
1509;0.10979999601840973;0.09955199807882309;0.9752680063247681;0.21374399960041046;-0.020495999604463577;1.115567922592163;1.5399999618530273;0.14000000059604645;6.593124866485596
1511;0.0;0.0;0.0;0.2176479995250702;-0.04001599922776222;1.1067839860916138;0.0;0.0;0.0
1513;0.0;0.0;0.0;0.1903200000524521;-0.08686399459838867;1.139967918395996;0.0;0.0;0.0
1515;0.0;0.0;0.0;0.14054399728775024;-0.12199999392032623;1.1643680334091187;0.0;0.0;0.0
1517;0.08100800216197968;0.038307998329401016;1.0111359357833862;0.2449759989976883;-0.19617599248886108;1.1067839860916138;1.6800000667572021;1.4700000286102295;9.113125801086426
1519;0.0;0.0;0.0;0.27620798349380493;-0.08295999467372894;1.1926720142364502;0.0;0.0;0.0
1521;0.0;0.0;0.0;0.07807999849319458;-0.18055999279022217;1.034559965133667;0.0;0.0;0.0
1523;0.0;0.0;0.0;0.3542879819869995;-0.12590399384498596;1.2414720058441162;0.0;0.0;0.0
1526;0.0697840005159378;-0.028303999453783035;0.9799039959907532;0.0;-0.3054879903793335;1.0589599609375;1.2599999904632568;-0.07000000029802322;9.183125495910645
1528;0.0;0.0;0.0;0.3425759971141815;-0.20398399233818054;1.0745760202407837;0.0;0.0;0.0
1530;0.0;0.0;0.0;0.19422399997711182;-0.11419199407100677;1.2287839651107788;0.0;0.0;0.0
1532;0.0;0.0;0.0;-0.023423999547958374;-0.2508319914340973;1.034559965133667;0.0;0.0;0.0
1534;0.05831599980592728;-0.05050799995660782;1.0035719871520996;0.19812799990177155;-0.17665599286556244;1.1760799884796143;1.1200000047683716;0.0;6.873125076293945
1536;0.0;0.0;0.0;0.21374399960041046;-0.1844639927148819;1.1555839776992798;0.0;0.0;0.0
1538;0.0;0.0;0.0;0.423583984375;-0.18836799263954163;1.066767930984497;0.0;0.0;0.0
1541;0.0;0.0;0.0;-0.023423999547958374;-0.19617599248886108;1.1311839818954468;0.0;0.0;0.0
1543;0.09223199635744095;-0.048312000930309296;0.9818559885025024;0.38551998138427734;-0.15323199331760406;1.1516799926757812;1.6100000143051147;-0.14000000059604645;4.143125057220459
1545;0.0;0.0;0.0;0.08198399841785431;-0.19227199256420135;1.115567922592163;0.0;0.0;0.0
1547;0.0;0.0;0.0;0.25278398394584656;-0.17665599286556244;1.1516799926757812;0.0;0.0;0.0
1549;0.0;0.0;0.0;0.031231999397277832;-0.17665599286556244;1.0579839944839478;0.0;0.0;0.0
1551;0.0634399950504303;-0.035868000239133835;0.9972279667854309;0.2879199981689453;-0.14151999354362488;1.1799839735031128;1.1200000047683716;0.07000000029802322;3.7931249141693115
1553;0.0;0.0;0.0;0.0;-0.2937760055065155;1.1516799926757812;0.0;0.0;0.0
1555;0.0;0.0;0.0;0.43139198422431946;-0.23521599173545837;0.9896639585494995;0.0;0.0;0.0
1557;0.0;0.0;0.0;0.29182398319244385;-0.00878399983048439;1.1838879585266113;0.0;0.0;0.0
1560;0.08954799920320511;-0.030988000333309174;0.9906399846076965;0.2683999836444855;-0.07905599474906921;1.1643680334091187;0.42000001668930054;-0.2800000011920929;-2.296875
1562;0.0;0.0;0.0;0.0936959981918335;-0.17665599286556244;1.0706720352172852;0.0;0.0;0.0
1564;0.0;0.0;0.0;0.17958399653434753;-0.20398399233818054;1.1594879627227783;0.0;0.0;0.0
1566;0.0;0.0;0.0;0.08588799834251404;-0.23521599173545837;1.0950720310211182;0.0;0.0;0.0
1568;0.07539600133895874;-0.05514399707317352;0.981611967086792;0.40113598108291626;-0.2235039919614792;1.0823839902877808;0.9800000190734863;-0.699999988079071;0.5731250047683716
1570;0.0;0.0;0.0;0.007807999849319458;-0.23131199181079865;1.1643680334091187;0.0;0.0;0.0
1572;0.0;0.0;0.0;0.2332639992237091;-0.23521599173545837;1.1516799926757812;0.0;0.0;0.0
1575;0.0;0.0;0.0;0.15615999698638916;-0.2820639908313751;1.066767930984497;0.0;0.0;0.0
1577;0.044895999133586884;-0.10687199980020523;0.9977160096168518;0.31915199756622314;-0.2000799924135208;1.1643680334091187;0.3499999940395355;-0.21000000834465027;0.503125011920929
1579;0.0;0.0;0.0;0.062463998794555664;-0.26254400610923767;1.0628639459609985;0.0;0.0;0.0
1581;0.0;0.0;0.0;0.40113598108291626;-0.18836799263954163;1.1555839776992798;0.0;0.0;0.0
1583;0.0;0.0;0.0;0.17080000042915344;-0.19617599248886108;1.1106879711151123;0.0;0.0;0.0
1585;0.09442799538373947;-0.09125600010156631;0.9877119660377502;0.24887999892234802;-0.22740799188613892;1.1516799926757812;-0.21000000834465027;0.3499999940395355;1.9031249284744263
1587;0.0;0.0;0.0;0.26449599862098694;-0.21959999203681946;1.1067839860916138;0.0;0.0;0.0
1589;0.0;0.0;0.0;0.15908800065517426;-0.20398399233818054;1.1438720226287842;0.0;0.0;0.0
1592;0.0;0.0;0.0;0.2449759989976883;-0.28596800565719604;1.0501760244369507;0.0;0.0;0.0
1594;0.09882000088691711;-0.11004399508237839;0.9769759774208069;0.14737600088119507;-0.20398399233818054;1.2287839651107788;-0.14000000059604645;-0.3499999940395355;5.543125152587891
1596;0.0;0.0;0.0;0.14444799721240997;-0.29767999053001404;1.0296800136566162;0.0;0.0;0.0
1598;0.0;0.0;0.0;0.12492799758911133;-0.20398399233818054;1.2414720058441162;0.0;0.0;0.0
1600;0.0;0.0;0.0;0.10931199789047241;-0.30158400535583496;1.066767930984497;0.0;0.0;0.0
1602;0.04391999915242195;-0.12809999287128448;1.0003999471664429;0.26449599862098694;-0.32500800490379333;1.0384639501571655;-0.3499999940395355;0.9100000262260437;2.6031248569488525
1604;0.0;0.0;0.0;0.2683999836444855;-0.22740799188613892;1.1965759992599487;0.0;0.0;0.0
1606;0.0;0.0;0.0;0.10150399804115295;-0.27035200595855713;1.1682720184326172;0.0;0.0;0.0
1609;0.0;0.0;0.0;-0.04294399917125702;-0.3172000050544739;1.1516799926757812;0.0;0.0;0.0
1611;0.015859998762607574;-0.15347599983215332;1.0147960186004639;0.18348799645900726;-0.3601439893245697;1.0540800094604492;-0.14000000059604645;0.49000000953674316;-2.6468751430511475
1613;0.0;0.0;0.0;0.2723039984703064;-0.19617599248886108;1.2326879501342773;0.0;0.0;0.0
1615;0.0;0.0;0.0;0.1210239976644516;-0.3484320044517517;1.066767930984497;0.0;0.0;0.0
1617;0.0;0.0;0.0;0.28011199831962585;-0.29767999053001404;1.1116639375686646;0.0;0.0;0.0
1619;0.10809199512004852;-0.17006799578666687;0.9835639595985413;0.3152479827404022;-0.3054879903793335;1.0872639417648315;-1.2599999904632568;-0.14000000059604645;-12.516874313354492
1621;0.0;0.0;0.0;0.1786080002784729;-0.26254400610923767;1.1838879585266113;0.0;0.0;0.0
1623;0.0;0.0;0.0;0.2332639992237091;-0.2937760055065155;1.09116792678833;0.0;0.0;0.0
1626;0.0;0.0;0.0;0.29572799801826477;0.20983999967575073;1.1116639375686646;0.0;0.0;0.0
1628;0.05563199892640114;0.029279999434947968;0.9923479557037354;-0.27620798349380493;0.28011199831962585;1.1233760118484497;-1.399999976158142;-1.0499999523162842;0.15312500298023224
1630;0.0;0.0;0.0;0.10150399804115295;0.049775999039411545;1.0745760202407837;0.0;0.0;0.0
1632;0.0;0.0;0.0;-0.9252479672431946;-0.024399999529123306;1.2570879459381104;0.0;0.0;0.0
1634;0.0;0.0;0.0;-0.33476799726486206;-0.1727519929409027;1.0589599609375;0.0;0.0;0.0
1636;-0.4352959990501404;0.1332239955663681;0.9967399835586548;0.0663679987192154;-0.028303999453783035;1.1555839776992798;-0.2800000011920929;2.1700000762939453;63.29312515258789
1638;0.0;0.0;0.0;-0.07027199864387512;-0.004879999905824661;1.1194720268249512;0.0;0.0;0.0
1640;0.0;0.0;0.0;0.28011199831962585;-0.19227199256420135;1.09116792678833;0.0;0.0;0.0
1643;0.0;0.0;0.0;0.3386719822883606;-0.19617599248886108;1.1594879627227783;0.0;0.0;0.0
1645;0.08100800216197968;0.01659199967980385;1.002351999282837;0.2840159833431244;-0.14151999354362488;1.1682720184326172;0.14000000059604645;3.1500000953674316;48.87312698364258
1647;0.0;0.0;0.0;0.29182398319244385;-0.2508319914340973;1.0462720394134521;0.0;0.0;0.0
1649;0.0;0.0;0.0;0.28011199831962585;-0.12199999392032623;1.1233760118484497;0.0;0.0;0.0
1651;0.0;0.0;0.0;0.3425759971141815;-0.05563199892640114;1.1594879627227783;0.0;0.0;0.0
1653;0.12468399852514267;0.019763998687267303;0.9925919771194458;-0.019519999623298645;-0.07124799489974976;1.1477760076522827;1.190000057220459;1.2599999904632568;52.933128356933594
1655;0.0;0.0;0.0;0.17080000042915344;-0.0634399950504303;1.0872639417648315;0.0;0.0;0.0
1657;0.0;0.0;0.0;0.1786080002784729;-0.04391999915242195;1.1272799968719482;0.0;0.0;0.0
1660;0.0;0.0;0.0;0.3230559825897217;-0.10247999429702759;1.0501760244369507;0.0;0.0;0.0
1662;0.03635599836707115;0.06148799881339073;0.9918599724769592;-0.10052800178527832;-0.0634399950504303;1.2248799800872803;2.1700000762939453;1.6800000667572021;48.9431266784668
1664;0.0;0.0;0.0;0.2879199981689453;-0.20398399233818054;1.0384639501571655;0.0;0.0;0.0
1666;0.0;0.0;0.0;0.031231999397277832;-0.2117919921875;1.1272799968719482;0.0;0.0;0.0
1668;0.0;0.0;0.0;-0.20983999967575073;-0.2391199916601181;1.1594879627227783;0.0;0.0;0.0
1670;-0.10833600163459778;-0.04367600008845329;1.0030839443206787;-0.003903999924659729;-0.1180959939956665;1.1438720226287842;3.5;1.4700000286102295;49.57312774658203
1672;0.0;0.0;0.0;-0.10052800178527832;-0.18055999279022217;1.1233760118484497;0.0;0.0;0.0
1674;0.0;0.0;0.0;-0.05075199902057648;-0.21569599211215973;1.139967918395996;0.0;0.0;0.0
1677;0.0;0.0;0.0;0.22155199944972992;-0.14151999354362488;1.115567922592163;0.0;0.0;0.0
1679;-0.08979199826717377;-0.052216000854969025;0.9847840070724487;0.22155199944972992;-0.2508319914340973;1.09116792678833;-1.190000057220459;0.3499999940395355;35.50312805175781
1681;0.0;0.0;0.0;0.41284799575805664;-0.2547360062599182;1.066767930984497;0.0;0.0;0.0
1683;0.0;0.0;0.0;0.21374399960041046;-0.14151999354362488;1.1360639333724976;0.0;0.0;0.0
1685;0.0;0.0;0.0;0.15615999698638916;-0.13371199369430542;1.1272799968719482;0.0;0.0;0.0
1687;0.12004800140857697;-0.05270399898290634;0.9813680052757263;0.14444799721240997;-0.16494399309158325;1.0784800052642822;1.0499999523162842;1.6800000667572021;27.52312469482422
1689;0.0;0.0;0.0;0.12883199751377106;-0.1298079937696457;1.1721760034561157;0.0;0.0;0.0
1691;0.0;0.0;0.0;0.0;-0.09467199444770813;1.1682720184326172;0.0;0.0;0.0
1694;0.0;0.0;0.0;0.04684799909591675;-0.1298079937696457;1.1194720268249512;0.0;0.0;0.0
1696;-0.05270399898290634;0.003659999929368496;0.998691976070404;0.062463998794555664;-0.15323199331760406;1.1311839818954468;1.5399999618530273;1.8899999856948853;28.223125457763672
1698;0.0;0.0;0.0;0.03513599932193756;-0.13761599361896515;1.1438720226287842;0.0;0.0;0.0
1700;0.0;0.0;0.0;-0.027327999472618103;-0.0907679945230484;1.1360639333724976;0.0;0.0;0.0
1702;0.0;0.0;0.0;0.1600639969110489;-0.05563199892640114;1.1272799968719482;0.0;0.0;0.0
1704;-0.053435999900102615;0.02513200044631958;0.9989359974861145;0.10931199789047241;-0.11028799414634705;1.1067839860916138;0.49000000953674316;1.399999976158142;19.473125457763672
1706;0.0;0.0;0.0;0.13663999736309052;-0.1571359932422638;1.1438720226287842;0.0;0.0;0.0
1708;0.0;0.0;0.0;0.12492799758911133;-0.1180959939956665;1.139967918395996;0.0;0.0;0.0
1711;0.0;0.0;0.0;0.08198399841785431;-0.10247999429702759;1.1272799968719482;0.0;0.0;0.0
1713;0.018300000578165054;0.016835998743772507;0.9935680031776428;0.1903200000524521;-0.09467199444770813;1.139967918395996;1.0499999523162842;1.190000057220459;16.463125228881836
1715;0.0;0.0;0.0;0.11711999773979187;-0.11028799414634705;1.1067839860916138;0.0;0.0;0.0
1717;0.0;0.0;0.0;0.08198399841785431;-0.1180959939956665;1.1233760118484497;0.0;0.0;0.0
1719;0.0;0.0;0.0;0.07417599856853485;-0.10638399422168732;1.1067839860916138;0.0;0.0;0.0
1721;-0.008539999835193157;0.028060000389814377;0.990884006023407;0.12883199751377106;-0.0907679945230484;1.1311839818954468;0.699999988079071;1.2599999904632568;14.783125877380371
1724;0.0;0.0;0.0;0.1210239976644516;-0.09467199444770813;1.1194720268249512;0.0;0.0;0.0
1725;0.0;0.0;0.0;0.11711999773979187;-0.10247999429702759;1.0950720310211182;0.0;0.0;0.0
1728;0.0;0.0;0.0;0.12492799758911133;-0.09857599437236786;1.139967918395996;0.0;0.0;0.0
1730;-0.005123999901115894;0.03537999838590622;0.9916160106658936;0.023423999547958374;-0.10247999429702759;1.1233760118484497;1.399999976158142;1.4700000286102295;14.713125228881836
1732;0.0;0.0;0.0;-0.019519999623298645;-0.07905599474906921;1.1272799968719482;0.0;0.0;0.0
1734;0.0;0.0;0.0;-0.1239520013332367;-0.07124799489974976;1.1438720226287842;0.0;0.0;0.0
1736;0.0;0.0;0.0;0.023423999547958374;-0.11419199407100677;1.1067839860916138;0.0;0.0;0.0
1738;-0.14225199818611145;0.0287919994443655;0.9974719882011414;0.062463998794555664;-0.13371199369430542;1.1233760118484497;0.42000001668930054;2.0999999046325684;12.403125762939453
1740;0.0;0.0;0.0;0.08198399841785431;-0.16103999316692352;1.0989760160446167;0.0;0.0;0.0
1742;0.0;0.0;0.0;0.11711999773979187;-0.14151999354362488;1.139967918395996;0.0;0.0;0.0
1745;0.0;0.0;0.0;0.09759999811649323;-0.17665599286556244;1.1116639375686646;0.0;0.0;0.0
1747;-0.020739998668432236;-0.028303999453783035;0.9943000078201294;0.10540799796581268;-0.16103999316692352;1.139967918395996;0.49000000953674316;1.3300000429153442;10.303125381469727
1749;0.0;0.0;0.0;0.10150399804115295;-0.14932799339294434;1.1350879669189453;0.0;0.0;0.0
1751;0.0;0.0;0.0;0.10540799796581268;-0.16494399309158325;1.1360639333724976;0.0;0.0;0.0
1753;0.0;0.0;0.0;0.10540799796581268;-0.12590399384498596;1.1360639333724976;0.0;0.0;0.0
1755;0.0004879999905824661;-0.020739998668432236;0.9979599714279175;0.14054399728775024;-0.16494399309158325;1.115567922592163;0.6299999952316284;0.9100000262260437;11.423125267028809
1758;0.0;0.0;0.0;0.10150399804115295;-0.13761599361896515;1.139967918395996;0.0;0.0;0.0
1760;0.0;0.0;0.0;0.1327359974384308;-0.1454239934682846;1.1233760118484497;0.0;0.0;0.0
1762;0.0;0.0;0.0;0.1210239976644516;-0.1454239934682846;1.1116639375686646;0.0;0.0;0.0
1764;0.007807999849319458;-0.007563999854028225;0.9938119649887085;0.10540799796581268;-0.09857599437236786;1.1067839860916138;0.699999988079071;1.190000057220459;11.843125343322754
1766;0.0;0.0;0.0;0.1210239976644516;-0.08295999467372894;1.1194720268249512;0.0;0.0;0.0
1768;0.0;0.0;0.0;0.12492799758911133;-0.08295999467372894;1.1194720268249512;0.0;0.0;0.0
1770;0.0;0.0;0.0;0.18251200020313263;-0.08295999467372894;1.1311839818954468;0.0;0.0;0.0
1772;0.018300000578165054;0.04294399917125702;0.9935680031776428;0.1210239976644516;-0.0907679945230484;1.1233760118484497;1.1200000047683716;0.5600000023841858;10.583125114440918
1775;0.0;0.0;0.0;0.1483519971370697;-0.12590399384498596;1.1116639375686646;0.0;0.0;0.0
1777;0.0;0.0;0.0;0.1327359974384308;-0.10638399422168732;1.1233760118484497;0.0;0.0;0.0
1779;0.0;0.0;0.0;0.14054399728775024;-0.11419199407100677;1.1194720268249512;0.0;0.0;0.0
1781;0.02757199853658676;0.017079999670386314;0.9918599724769592;0.1483519971370697;-0.16884799301624298;1.0989760160446167;1.3300000429153442;0.6299999952316284;9.533125877380371
1783;0.0;0.0;0.0;0.15615999698638916;-0.16494399309158325;1.1194720268249512;0.0;0.0;0.0
1785;0.0;0.0;0.0;0.1668960005044937;-0.16494399309158325;1.1116639375686646;0.0;0.0;0.0
1787;0.0;0.0;0.0;0.15615999698638916;-0.16494399309158325;1.1233760118484497;0.0;0.0;0.0
1789;0.025863999500870705;-0.037087999284267426;0.9943000078201294;0.10931199789047241;-0.21959999203681946;1.1438720226287842;0.42000001668930054;1.0499999523162842;7.293125152587891
1791;0.0;0.0;0.0;0.16396799683570862;-0.2508319914340973;1.1067839860916138;0.0;0.0;0.0
1794;0.0;0.0;0.0;0.1903200000524521;-0.23521599173545837;1.0950720310211182;0.0;0.0;0.0
1796;0.0;0.0;0.0;0.18641600012779236;-0.2937760055065155;1.115567922592163;0.0;0.0;0.0
1798;0.058559998869895935;-0.12468399852514267;0.9884439706802368;0.16396799683570862;-0.2898719906806946;1.0950720310211182;-0.42000001668930054;0.7699999809265137;2.5331249237060547
1800;0.0;0.0;0.0;0.13663999736309052;-0.23131199181079865;1.1194720268249512;0.0;0.0;0.0
1802;0.0;0.0;0.0;0.18641600012779236;-0.21959999203681946;1.1067839860916138;0.0;0.0;0.0
1804;0.0;0.0;0.0;0.13663999736309052;-0.1844639927148819;1.1194720268249512;0.0;0.0;0.0
1806;0.0287919994443655;-0.09149999916553497;0.9923479557037354;0.13663999736309052;-0.16103999316692352;1.1311839818954468;0.0;0.8400000333786011;4.143125057220459
1809;0.0;0.0;0.0;0.18251200020313263;-0.19227199256420135;1.1272799968719482;0.0;0.0;0.0
1811;0.0;0.0;0.0;0.17470400035381317;-0.2117919921875;1.115567922592163;0.0;0.0;0.0
1813;0.0;0.0;0.0;0.21374399960041046;-0.16494399309158325;1.1028800010681152;0.0;0.0;0.0
1815;0.05929199978709221;-0.05075199902057648;0.9918599724769592;0.19812799990177155;-0.1298079937696457;1.1438720226287842;-0.49000000953674316;0.6299999952316284;3.9331250190734863
1817;0.0;0.0;0.0;0.20983999967575073;-0.10247999429702759;1.1116639375686646;0.0;0.0;0.0
1819;0.0;0.0;0.0;0.1786080002784729;-0.14932799339294434;1.1350879669189453;0.0;0.0;0.0
1821;0.0;0.0;0.0;0.17080000042915344;-0.2000799924135208;1.1028800010681152;0.0;0.0;0.0
1823;0.06734399497509003;-0.02757199853658676;0.9903959631919861;0.1786080002784729;-0.2000799924135208;1.115567922592163;-0.5600000023841858;0.699999988079071;3.8631248474121094
1826;0.0;0.0;0.0;0.1786080002784729;-0.1727519929409027;1.139967918395996;0.0;0.0;0.0
1828;0.0;0.0;0.0;0.22545599937438965;-0.19617599248886108;1.1194720268249512;0.0;0.0;0.0
1830;0.0;0.0;0.0;0.15908800065517426;-0.19227199256420135;1.1350879669189453;0.0;0.0;0.0
1832;0.06563600152730942;-0.060999996960163116;0.9950319528579712;0.18251200020313263;-0.16103999316692352;1.1438720226287842;-0.2800000011920929;1.3300000429153442;3.3731250762939453
1834;0.0;0.0;0.0;0.18641600012779236;-0.1727519929409027;1.115567922592163;0.0;0.0;0.0
1836;0.0;0.0;0.0;0.17470400035381317;-0.16103999316692352;1.1028800010681152;0.0;0.0;0.0
1838;0.0;0.0;0.0;0.17470400035381317;-0.17665599286556244;1.1028800010681152;0.0;0.0;0.0
1840;0.06441599875688553;-0.03147599846124649;1.0003999471664429;0.20203199982643127;-0.11028799414634705;1.1926720142364502;-0.9100000262260437;1.0499999523162842;3.1631250381469727
1843;0.0;0.0;0.0;0.17080000042915344;-0.18836799263954163;1.1028800010681152;0.0;0.0;0.0
1845;0.0;0.0;0.0;0.18251200020313263;-0.2781600058078766;1.0872639417648315;0.0;0.0;0.0
1847;0.0;0.0;0.0;0.1327359974384308;-0.26254400610923767;1.1477760076522827;0.0;0.0;0.0
1849;0.04879999905824661;-0.10540799796581268;0.9911279678344727;0.15518400073051453;-0.2547360062599182;1.1233760118484497;-2.6600000858306885;3.7100000381469727;2.463124990463257
1851;0.0;0.0;0.0;0.13663999736309052;-0.2781600058078766;1.1116639375686646;0.0;0.0;0.0
1853;0.0;0.0;0.0;0.12883199751377106;-0.22740799188613892;1.1194720268249512;0.0;0.0;0.0
1855;0.0;0.0;0.0;0.15908800065517426;-0.1454239934682846;1.1477760076522827;0.0;0.0;0.0
1857;0.028547998517751694;-0.09101200103759766;0.9928359985351562;0.12883199751377106;-0.19227199256420135;1.139967918395996;-0.6299999952316284;1.6800000667572021;1.413124918937683
1860;0.0;0.0;0.0;0.10150399804115295;-0.21959999203681946;1.115567922592163;0.0;0.0;0.0
1862;0.0;0.0;0.0;0.1600639969110489;-0.18055999279022217;1.1272799968719482;0.0;0.0;0.0
1864;0.0;0.0;0.0;0.08979199826717377;-0.23131199181079865;1.1233760118484497;0.0;0.0;0.0
1866;0.0014639999717473984;-0.07685999572277069;0.9967399835586548;0.07807999849319458;-0.20398399233818054;1.1360639333724976;-0.9800000190734863;1.5399999618530273;-0.4768750071525574
1868;0.0;0.0;0.0;0.12492799758911133;-0.25863999128341675;1.0989760160446167;0.0;0.0;0.0
1870;0.0;0.0;0.0;0.14444799721240997;-0.2000799924135208;1.1594879627227783;0.0;0.0;0.0
1872;0.0;0.0;0.0;0.17080000042915344;-0.12199999392032623;1.1272799968719482;0.0;0.0;0.0
1874;0.019276000559329987;-0.06368400156497955;0.9967399835586548;0.15615999698638916;-0.19227199256420135;1.1194720268249512;-1.0499999523162842;1.1200000047683716;-3.2068750858306885
1877;0.0;0.0;0.0;0.13663999736309052;-0.14151999354362488;1.1272799968719482;0.0;0.0;0.0
1879;0.0;0.0;0.0;0.12492799758911133;-0.10638399422168732;1.1067839860916138;0.0;0.0;0.0
1881;0.0;0.0;0.0;0.17080000042915344;-0.03611199930310249;1.1350879669189453;0.0;0.0;0.0
1883;0.021959999576210976;0.029767999425530434;0.9957639575004578;0.11711999773979187;-0.08295999467372894;1.1116639375686646;-1.3300000429153442;1.6800000667572021;-4.396874904632568
1885;0.0;0.0;0.0;0.12492799758911133;-0.1180959939956665;1.1272799968719482;0.0;0.0;0.0
1887;0.0;0.0;0.0;0.1327359974384308;-0.0907679945230484;1.1194720268249512;0.0;0.0;0.0
1889;0.0;0.0;0.0;0.18251200020313263;-0.05953599885106087;1.115567922592163;0.0;0.0;0.0
1891;0.028547998517751694;0.04318799823522568;0.9894199967384338;0.15225599706172943;-0.10638399422168732;1.1028800010681152;-1.5399999618530273;1.9600000381469727;-4.116875171661377
1894;0.0;0.0;0.0;0.10931199789047241;-0.06734399497509003;1.1438720226287842;0.0;0.0;0.0
1896;0.0;0.0;0.0;0.1327359974384308;-0.05172799900174141;1.1116639375686646;0.0;0.0;0.0
1898;0.0;0.0;0.0;0.1668960005044937;-0.11419199407100677;1.107759952545166;0.0;0.0;0.0
1900;0.00878399983048439;0.05441199988126755;0.9930799603462219;0.1210239976644516;-0.07905599474906921;1.139967918395996;-1.0499999523162842;1.6100000143051147;-2.1568751335144043
1902;0.0;0.0;0.0;0.11321599781513214;-0.18055999279022217;1.0628639459609985;0.0;0.0;0.0
1904;0.0;0.0;0.0;0.10931199789047241;-0.0907679945230484;1.1877919435501099;0.0;0.0;0.0
1906;0.0;0.0;0.0;0.21374399960041046;-0.13371199369430542;1.0540800094604492;0.0;0.0;0.0
1908;0.0348920002579689;0.00951599981635809;0.9896639585494995;0.14054399728775024;-0.11419199407100677;1.1594879627227783;-0.3499999940395355;0.5600000023841858;-1.386875033378601
1911;0.0;0.0;0.0;0.15615999698638916;-0.0634399950504303;1.1594879627227783;0.0;0.0;0.0
1913;0.0;0.0;0.0;0.17080000042915344;-0.16494399309158325;1.0501760244369507;0.0;0.0;0.0
1915;0.0;0.0;0.0;0.07807999849319458;-0.06734399497509003;1.1477760076522827;0.0;0.0;0.0
1917;0.04758000001311302;0.04196799919009209;0.9847840070724487;0.27620798349380493;-0.020495999604463577;1.09116792678833;-0.2800000011920929;1.3300000429153442;-0.05687499791383743
1919;0.0;0.0;0.0;0.04684799909591675;-0.07515199482440948;1.1555839776992798;0.0;0.0;0.0
1921;0.0;0.0;0.0;0.07417599856853485;-0.10247999429702759;1.1194720268249512;0.0;0.0;0.0
1923;0.0;0.0;0.0;0.2723039984703064;-0.10638399422168732;1.0872639417648315;0.0;0.0;0.0
1925;-0.004147999919950962;0.044895999133586884;0.9982039928436279;0.03903999924659729;-0.06734399497509003;1.1194720268249512;-0.699999988079071;2.0299999713897705;0.22312501072883606
1928;0.0;0.0;0.0;0.15615999698638916;-0.05563199892640114;1.1438720226287842;0.0;0.0;0.0
1930;0.0;0.0;0.0;0.1668960005044937;0.0029279999434947968;1.1643680334091187;0.0;0.0;0.0
1932;0.0;0.0;0.0;0.1600639969110489;-0.05953599885106087;1.0296800136566162;0.0;0.0;0.0
1934;0.03245199844241142;0.09955199807882309;0.9928359985351562;0.04294399917125702;0.014639999717473984;1.2082879543304443;-0.21000000834465027;1.3300000429153442;0.22312501072883606
1936;0.0;0.0;0.0;0.33086398243904114;-0.1180959939956665;0.9896639585494995;0.0;0.0;0.0
1938;0.0;0.0;0.0;-0.054655998945236206;0.0029279999434947968;1.2453759908676147;0.0;0.0;0.0
1940;0.0;0.0;0.0;0.08979199826717377;-0.07515199482440948;1.0745760202407837;0.0;0.0;0.0
1942;-0.005123999901115894;0.08417999744415283;0.9781959652900696;0.22935999929904938;-0.05172799900174141;1.1116639375686646;-0.699999988079071;1.5399999618530273;0.7831249833106995
1945;0.0;0.0;0.0;0.05075199902057648;-0.05172799900174141;1.1721760034561157;0.0;0.0;0.0
1947;0.0;0.0;0.0;0.019519999623298645;-0.08686399459838867;1.1233760118484497;0.0;0.0;0.0
1949;0.0;0.0;0.0;0.22935999929904938;-0.11028799414634705;1.0745760202407837;0.0;0.0;0.0
1951;-0.03391600027680397;0.06026799976825714;1.001863956451416;-0.0663679987192154;-0.032207999378442764;1.2043839693069458;0.0;1.8200000524520874;0.7831249833106995
1953;0.0;0.0;0.0;0.19422399997711182;-0.04391999915242195;1.0872639417648315;0.0;0.0;0.0
1955;0.0;0.0;0.0;0.08198399841785431;-0.04391999915242195;1.1594879627227783;0.0;0.0;0.0
1957;0.0;0.0;0.0;0.1668960005044937;-0.05953599885106087;1.1194720268249512;0.0;0.0;0.0
1959;-0.00878399983048439;0.06954000145196915;0.9906399846076965;-0.019519999623298645;-0.09467199444770813;1.1194720268249512;0.0;0.7699999809265137;0.9231250286102295
1962;0.0;0.0;0.0;0.19812799990177155;-0.10247999429702759;1.1477760076522827;0.0;0.0;0.0
1964;0.0;0.0;0.0;0.1210239976644516;-0.09857599437236786;1.09116792678833;0.0;0.0;0.0
1966;0.0;0.0;0.0;0.07417599856853485;-0.07515199482440948;1.1555839776992798;0.0;0.0;0.0
1968;0.0058559998869895935;0.038307998329401016;0.9852719902992249;0.19422399997711182;-0.1180959939956665;1.0989760160446167;0.14000000059604645;1.3300000429153442;1.6931250095367432
1970;0.0;0.0;0.0;0.10540799796581268;-0.07905599474906921;1.1272799968719482;0.0;0.0;0.0
1972;0.0;0.0;0.0;0.14444799721240997;-0.07124799489974976;1.1799839735031128;0.0;0.0;0.0
1974;0.0;0.0;0.0;0.15908800065517426;-0.10247999429702759;1.0872639417648315;0.0;0.0;0.0
1976;0.0012199999764561653;0.046115998178720474;0.9974719882011414;0.058559998869895935;-0.03611199930310249;1.1760799884796143;0.3499999940395355;1.8200000524520874;2.393125057220459
1979;0.0;0.0;0.0;0.17177599668502808;-0.11419199407100677;1.0501760244369507;0.0;0.0;0.0
1981;0.0;0.0;0.0;0.05075199902057648;-0.12590399384498596;1.2043839693069458;0.0;0.0;0.0
1983;0.0;0.0;0.0;0.1668960005044937;-0.1180959939956665;1.0579839944839478;0.0;0.0;0.0
1985;-0.007319999858736992;0.02635199949145317;0.9935680031776428;0.04294399917125702;-0.09467199444770813;1.1516799926757812;0.42000001668930054;1.3300000429153442;2.813124895095825
1987;0.0;0.0;0.0;0.1668960005044937;-0.12590399384498596;1.1311839818954468;0.0;0.0;0.0
1989;0.0;0.0;0.0;0.08198399841785431;-0.05953599885106087;1.115567922592163;0.0;0.0;0.0
1991;0.0;0.0;0.0;0.1327359974384308;-0.07515199482440948;1.1555839776992798;0.0;0.0;0.0
1993;0.01439599972218275;0.025863999500870705;0.990884006023407;0.18251200020313263;-0.13761599361896515;1.0706720352172852;0.14000000059604645;1.2599999904632568;1.8331249952316284
1996;0.0;0.0;0.0;0.019519999623298645;-0.10247999429702759;1.1350879669189453;0.0;0.0;0.0
1998;0.0;0.0;0.0;0.11321599781513214;-0.07905599474906921;1.1838879585266113;0.0;0.0;0.0
2000;0.0;0.0;0.0;0.23716799914836884;-0.1454239934682846;1.0501760244369507;0.0;0.0;0.0
2002;-0.006099999882280827;0.03367199748754501;0.9972279667854309;0.04684799909591675;-0.07124799489974976;1.1516799926757812;-0.21000000834465027;1.0499999523162842;-0.7568749785423279
2004;0.0;0.0;0.0;0.16299200057983398;-0.10638399422168732;1.1116639375686646;0.0;0.0;0.0
2006;0.0;0.0;0.0;0.2332639992237091;-0.07124799489974976;1.0823839902877808;0.0;0.0;0.0
2008;0.0;0.0;0.0;0.031231999397277832;0.057583998888731;1.2609919309616089;0.0;0.0;0.0
2010;0.05392399802803993;0.06831999868154526;0.981611967086792;0.3113439977169037;-0.10638399422168732;1.0013760328292847;-0.699999988079071;0.6299999952316284;-2.1568751335144043
2013;0.0;0.0;0.0;0.09759999811649323;-0.0009759999811649323;1.1594879627227783;0.0;0.0;0.0
2015;0.0;0.0;0.0;0.17080000042915344;-0.00878399983048439;1.1116639375686646;0.0;0.0;0.0
2017;0.0;0.0;0.0;0.16787199676036835;0.014639999717473984;1.1233760118484497;0.0;0.0;0.0
2019;0.028060000389814377;0.11419199407100677;0.9921039938926697;0.14444799721240997;-0.032207999378442764;1.1194720268249512;-0.7699999809265137;1.1200000047683716;-1.6668751239776611
2021;0.0;0.0;0.0;0.062463998794555664;-0.04782399907708168;1.0989760160446167;0.0;0.0;0.0
2023;0.0;0.0;0.0;0.08588799834251404;-0.0634399950504303;1.1516799926757812;0.0;0.0;0.0
2025;0.0;0.0;0.0;0.13663999736309052;-0.1454239934682846;1.0589599609375;0.0;0.0;0.0
2027;-0.02659599855542183;0.07417599856853485;0.9972279667854309;-0.015615999698638916;0.018543999642133713;1.2814879417419434;-0.5600000023841858;1.9600000381469727;0.013125000521540642
2030;0.0;0.0;0.0;0.18348799645900726;-0.13371199369430542;1.0501760244369507;0.0;0.0;0.0
2032;0.0;0.0;0.0;0.11321599781513214;-0.0634399950504303;1.066767930984497;0.0;0.0;0.0
2034;0.0;0.0;0.0;0.031231999397277832;-0.00878399983048439;1.2082879543304443;0.0;0.0;0.0
2036;-0.007563999854028225;0.07344400137662888;0.9916160106658936;0.18251200020313263;-0.01659199967980385;1.1516799926757812;-0.9100000262260437;2.309999942779541;1.1331249475479126
2038;0.0;0.0;0.0;0.07807999849319458;-0.04391999915242195;1.1360639333724976;0.0;0.0;0.0
2040;0.0;0.0;0.0;0.1210239976644516;-0.07905599474906921;1.0140639543533325;0.0;0.0;0.0
2042;0.0;0.0;0.0;0.1395680010318756;0.03806399926543236;1.1682720184326172;0.0;0.0;0.0
2044;-0.005123999901115894;0.11126399785280228;0.9921039938926697;0.04684799909591675;0.02635199949145317;1.1682720184326172;-0.2800000011920929;1.8200000524520874;0.7831249833106995
2047;0.0;0.0;0.0;0.18641600012779236;-0.04001599922776222;1.0257760286331177;0.0;0.0;0.0
2049;0.0;0.0;0.0;-0.03903999924659729;-0.032207999378442764;1.1682720184326172;0.0;0.0;0.0
2051;0.0;0.0;0.0;0.062463998794555664;-0.04391999915242195;1.139967918395996;0.0;0.0;0.0
2053;-0.04294399917125702;0.08832799643278122;0.9723399877548218;0.08979199826717377;-0.14151999354362488;1.0013760328292847;-0.699999988079071;1.4700000286102295;-0.8968750238418579
2055;0.0;0.0;0.0;-0.007807999849319458;-0.04782399907708168;1.1838879585266113;0.0;0.0;0.0
2057;0.0;0.0;0.0;0.0;-0.01659199967980385;1.1799839735031128;0.0;0.0;0.0
2059;0.0;0.0;0.0;0.22935999929904938;-0.13371199369430542;1.0462720394134521;0.0;0.0;0.0
2061;-0.05709599703550339;0.07149200141429901;1.0025960206985474;-0.019519999623298645;-0.0634399950504303;1.1643680334091187;-0.3499999940395355;0.699999988079071;-3.6968750953674316
2064;0.0;0.0;0.0;0.07027199864387512;-0.10247999429702759;1.1360639333724976;0.0;0.0;0.0
2066;0.0;0.0;0.0;0.23716799914836884;-0.07124799489974976;1.042367935180664;0.0;0.0;0.0
2068;0.0;0.0;0.0;-0.10833600163459778;0.0302559994161129;1.2814879417419434;0.0;0.0;0.0
2070;-0.03757599741220474;0.057339999824762344;0.9906399846076965;0.18641600012779236;-0.11028799414634705;1.0062559843063354;-1.0499999523162842;0.9100000262260437;-5.306875228881836
2072;0.0;0.0;0.0;-0.05075199902057648;0.0849120020866394;1.309791922569275;0.0;0.0;0.0
2074;0.0;0.0;0.0;0.19129599630832672;-0.2117919921875;0.9525759816169739;0.0;0.0;0.0
2076;0.0;0.0;0.0;-0.10443200170993805;-0.004879999905824661;1.2043839693069458;0.0;0.0;0.0
2078;-0.06856399774551392;0.08442399650812149;1.0104039907455444;0.17080000042915344;-0.032207999378442764;1.09116792678833;-0.9800000190734863;1.190000057220459;-7.056875228881836
2081;0.0;0.0;0.0;0.12492799758911133;0.014639999717473984;1.1838879585266113;0.0;0.0;0.0
2083;0.0;0.0;0.0;0.11711999773979187;-0.03611199930310249;1.1516799926757812;0.0;0.0;0.0
2085;0.0;0.0;0.0;0.1903200000524521;-0.16494399309158325;0.8842560052871704;0.0;0.0;0.0
2087;0.007075999863445759;0.1134599968791008;0.9877119660377502;-0.03903999924659729;0.11614400148391724;1.3176000118255615;-0.699999988079071;0.49000000953674316;-4.886875152587891
2089;0.0;0.0;0.0;0.25278398394584656;-0.01659199967980385;1.0540800094604492;0.0;0.0;0.0
2091;0.0;0.0;0.0;0.0;-0.0009759999811649323;1.1926720142364502;0.0;0.0;0.0
2093;0.0;0.0;0.0;0.08979199826717377;-0.07124799489974976;1.0384639501571655;0.0;0.0;0.0
2095;-0.023667998611927032;0.11419199407100677;0.9840520024299622;0.062463998794555664;-0.00878399983048439;1.1838879585266113;-0.7699999809265137;1.2599999904632568;-0.19687500596046448
2098;0.0;0.0;0.0;-0.011711999773979187;0.03415999934077263;1.1594879627227783;0.0;0.0;0.0
2100;0.0;0.0;0.0;-0.023423999547958374;-0.08686399459838867;1.1477760076522827;0.0;0.0;0.0
2102;0.0;0.0;0.0;0.20203199982643127;-0.25863999128341675;0.9086560010910034;0.0;0.0;0.0
2104;-0.1273680031299591;0.08125200122594833;1.0047919750213623;-0.23716799914836884;0.10833600163459778;1.370303988456726;-0.7699999809265137;2.450000047683716;3.583124876022339
2106;0.0;0.0;0.0;0.2840159833431244;-0.11028799414634705;1.0257760286331177;0.0;0.0;0.0
2108;0.0;0.0;0.0;0.11321599781513214;-0.0907679945230484;1.0745760202407837;0.0;0.0;0.0
2110;0.0;0.0;0.0;-0.1395680010318756;-0.13371199369430542;1.2248799800872803;0.0;0.0;0.0
2113;-0.03513599932193756;0.023667998611927032;0.9801479578018188;0.1903200000524521;-0.2117919921875;0.9691680073738098;-0.2800000011920929;1.1200000047683716;1.763124942779541
2115;0.0;0.0;0.0;0.003903999924659729;-0.0634399950504303;1.1799839735031128;0.0;0.0;0.0
2117;0.0;0.0;0.0;0.12492799758911133;-0.03611199930310249;1.2697759866714478;0.0;0.0;0.0
2119;0.0;0.0;0.0;0.3269599974155426;-0.2117919921875;0.9525759816169739;0.0;0.0;0.0
2121;-0.022935999557375908;0.01756799966096878;1.0025960206985474;-0.18641600012779236;-0.07124799489974976;1.2775839567184448;0.0;1.6100000143051147;-0.9668750166893005
2123;0.0;0.0;0.0;0.260591983795166;-0.19227199256420135;1.0013760328292847;0.0;0.0;0.0
2125;0.0;0.0;0.0;-0.062463998794555664;-0.024399999529123306;1.2004799842834473;0.0;0.0;0.0
2127;0.0;0.0;0.0;0.07027199864387512;-0.10638399422168732;1.1272799968719482;0.0;0.0;0.0
2129;-0.04294399917125702;0.010735999792814255;0.9764879941940308;0.23716799914836884;-0.23521599173545837;0.9281759858131409;-0.7699999809265137;2.0999999046325684;-0.4768750071525574
2132;0.0;0.0;0.0;-0.13176000118255615;0.08100800216197968;1.3420000076293945;0.0;0.0;0.0
2134;0.0;0.0;0.0;0.2723039984703064;-0.1298079937696457;1.1116639375686646;0.0;0.0;0.0
2136;0.0;0.0;0.0;0.09759999811649323;-0.1180959939956665;1.1067839860916138;0.0;0.0;0.0
2138;-0.04318799823522568;0.0331839993596077;1.006011962890625;-0.14737600088119507;-0.13371199369430542;1.1028800010681152;-0.9800000190734863;1.5399999618530273;-2.0868749618530273
2140;0.0;0.0;0.0;0.2840159833431244;-0.19617599248886108;1.0257760286331177;0.0;0.0;0.0
2142;0.0;0.0;0.0;0.10931199789047241;-0.19227199256420135;1.1028800010681152;0.0;0.0;0.0
2144;0.0;0.0;0.0;0.26449599862098694;-0.004879999905824661;1.0706720352172852;0.0;0.0;0.0
2147;0.03611199930310249;0.01781199872493744;0.9757559895515442;-0.062463998794555664;-0.01659199967980385;1.2932000160217285;0.07000000029802322;2.240000009536743;-7.196875095367432
2149;0.0;0.0;0.0;0.6070719957351685;-0.09467199444770813;0.9086560010910034;0.0;0.0;0.0
2151;0.0;0.0;0.0;-0.2879199981689453;0.06148799881339073;1.2775839567184448;0.0;0.0;0.0
2153;0.0;0.0;0.0;0.11711999773979187;0.010735999792814255;1.2170720100402832;0.0;0.0;0.0
2155;0.02147199958562851;0.07930000126361847;0.9886879920959473;0.37380799651145935;-0.29767999053001404;0.8842560052871704;-0.14000000059604645;1.0499999523162842;-3.0668749809265137
2157;0.0;0.0;0.0;-0.19422399997711182;0.006831999868154526;1.2570879459381104;0.0;0.0;0.0
2159;0.0;0.0;0.0;0.19812799990177155;-0.1298079937696457;1.0823839902877808;0.0;0.0;0.0
2161;0.0;0.0;0.0;0.26449599862098694;-0.08295999467372894;1.115567922592163;0.0;0.0;0.0
2164;-0.028547998517751694;0.03660000115633011;0.9872239828109741;-0.08100800216197968;-0.12590399384498596;1.1555839776992798;0.5600000023841858;1.6100000143051147;-4.536875247955322
2166;0.0;0.0;0.0;0.19422399997711182;-0.2547360062599182;1.0384639501571655;0.0;0.0;0.0
2168;0.0;0.0;0.0;0.011711999773979187;-0.0009759999811649323;1.2043839693069458;0.0;0.0;0.0
2170;0.0;0.0;0.0;0.17080000042915344;-0.07515199482440948;1.0950720310211182;0.0;0.0;0.0
2172;-0.027327999472618103;0.021959999576210976;1.0008879899978638;0.062463998794555664;-0.11419199407100677;1.1594879627227783;-0.2800000011920929;1.190000057220459;-6.566874980926514
2174;0.0;0.0;0.0;0.16299200057983398;-0.14151999354362488;1.1311839818954468;0.0;0.0;0.0
2176;0.0;0.0;0.0;0.14444799721240997;-0.14151999354362488;1.0501760244369507;0.0;0.0;0.0
2178;0.0;0.0;0.0;0.16299200057983398;-0.004879999905824661;1.1233760118484497;0.0;0.0;0.0
2181;0.03001200035214424;0.03562399744987488;0.9979599714279175;-0.031231999397277832;-0.04782399907708168;1.285391926765442;-0.21000000834465027;0.6299999952316284;-10.55687427520752
2183;0.0;0.0;0.0;0.35819199681282043;-0.19227199256420135;0.9047519564628601;0.0;0.0;0.0
2185;0.0;0.0;0.0;-0.08198399841785431;-0.07124799489974976;1.1516799926757812;0.0;0.0;0.0
2187;0.0;0.0;0.0;0.14054399728775024;-0.1298079937696457;1.1311839818954468;0.0;0.0;0.0
2189;0.0004879999905824661;0.05685199797153473;0.9889319539070129;0.4089439809322357;0.049775999039411545;1.139967918395996;-0.49000000953674316;0.699999988079071;-13.70687484741211
2191;0.0;0.0;0.0;-0.04294399917125702;0.022447999566793442;1.2043839693069458;0.0;0.0;0.0
2193;0.0;0.0;0.0;0.3962559998035431;-0.06734399497509003;0.9486719965934753;0.0;0.0;0.0
2195;0.0;0.0;0.0;0.011711999773979187;0.02635199949145317;1.1721760034561157;0.0;0.0;0.0
2198;0.0936959981918335;0.10931199789047241;0.9801479578018188;0.3386719822883606;-0.020495999604463577;1.0501760244369507;-0.42000001668930054;0.49000000953674316;-15.036874771118164
2200;0.0;0.0;0.0;0.054655998945236206;0.09662400186061859;1.2287839651107788;0.0;0.0;0.0
2202;0.0;0.0;0.0;0.19129599630832672;-0.0907679945230484;1.0462720394134521;0.0;0.0;0.0
2204;0.0;0.0;0.0;0.28011199831962585;0.018543999642133713;1.042367935180664;0.0;0.0;0.0
2206;0.06905199587345123;0.140299990773201;0.9906399846076965;0.04294399917125702;0.07320000231266022;1.2404959201812744;0.07000000029802322;0.7699999809265137;-12.656874656677246
2208;0.0;0.0;0.0;0.38844799995422363;-0.10247999429702759;1.0540800094604492;0.0;0.0;0.0
2210;0.0;0.0;0.0;0.14054399728775024;-0.01268799975514412;1.0950720310211182;0.0;0.0;0.0
2212;0.0;0.0;0.0;0.11711999773979187;0.045871999114751816;1.2170720100402832;0.0;0.0;0.0
2215;0.09174399822950363;0.12541599571704865;0.9918599724769592;0.4274879992008209;-0.01659199967980385;1.0540800094604492;-0.9100000262260437;1.190000057220459;-11.95687484741211
2217;0.0;0.0;0.0;0.20983999967575073;-0.032207999378442764;1.115567922592163;0.0;0.0;0.0
2219;0.0;0.0;0.0;0.2723039984703064;-0.00878399983048439;1.066767930984497;0.0;0.0;0.0
2221;0.0;0.0;0.0;0.31915199756622314;0.10443200170993805;1.2365919351577759;0.0;0.0;0.0
2223;0.1617719978094101;0.13127200305461884;0.9796599745750427;0.29182398319244385;0.0029279999434947968;1.1067839860916138;-0.2800000011920929;0.5600000023841858;-11.326874732971191
2225;0.0;0.0;0.0;0.062463998794555664;0.014639999717473984;1.1682720184326172;0.0;0.0;0.0
2227;0.0;0.0;0.0;0.3699039816856384;-0.09467199444770813;0.895967960357666;0.0;0.0;0.0
2229;0.0;0.0;0.0;0.1786080002784729;0.11614400148391724;1.2570879459381104;0.0;0.0;0.0
2232;0.10858000069856644;0.14273999631404877;0.9840520024299622;0.3269599974155426;0.0029279999434947968;1.09116792678833;-1.399999976158142;0.9100000262260437;-10.276874542236328
2234;0.0;0.0;0.0;0.30743998289108276;0.03415999934077263;1.042367935180664;0.0;0.0;0.0
2236;0.0;0.0;0.0;0.24887999892234802;0.13566400110721588;1.2004799842834473;0.0;0.0;0.0
2238;0.0;0.0;0.0;0.48214399814605713;0.006831999868154526;0.9896639585494995;0.0;0.0;0.0
2240;0.21203599870204926;0.1861719936132431;0.9657520055770874;0.2996319830417633;-0.01659199967980385;1.0013760328292847;-0.21000000834465027;0.7699999809265137;-9.506875038146973
2242;0.0;0.0;0.0;0.18641600012779236;0.12004800140857697;1.2082879543304443;0.0;0.0;0.0
2244;0.0;0.0;0.0;0.47043198347091675;0.06148799881339073;1.0989760160446167;0.0;0.0;0.0
2246;0.0;0.0;0.0;0.27620798349380493;0.07710400223731995;1.1360639333724976;0.0;0.0;0.0
2249;0.17885199189186096;0.183243989944458;0.9872239828109741;0.10931199789047241;0.04196799919009209;1.1682720184326172;1.2599999904632568;0.7699999809265137;-8.386874198913574
2251;0.0;0.0;0.0;0.3816159963607788;-0.004879999905824661;1.0872639417648315;0.0;0.0;0.0
2253;0.0;0.0;0.0;0.16299200057983398;-0.020495999604463577;1.1682720184326172;0.0;0.0;0.0
2255;0.0;0.0;0.0;0.4001599848270416;-0.13371199369430542;0.9486719965934753;0.0;0.0;0.0
2257;0.1542080044746399;0.10687199980020523;0.9882000088691711;0.11321599781513214;0.053679998964071274;1.2775839567184448;-0.8400000333786011;0.8400000333786011;-8.946874618530273
2259;0.0;0.0;0.0;0.6344000101089478;-0.10638399422168732;0.920367956161499;0.0;0.0;0.0
2261;0.0;0.0;0.0;0.08198399841785431;0.049775999039411545;1.3019839525222778;0.0;0.0;0.0
2263;0.0;0.0;0.0;0.5289919972419739;-0.10638399422168732;1.0823839902877808;0.0;0.0;0.0
2266;0.23643599450588226;0.09198799729347229;0.9964959621429443;0.4938559830188751;-0.04391999915242195;1.0706720352172852;-0.07000000029802322;0.49000000953674316;-11.116874694824219
2268;0.0;0.0;0.0;0.15225599706172943;0.03806399926543236;1.2170720100402832;0.0;0.0;0.0
2270;0.0;0.0;0.0;0.4938559830188751;-0.10247999429702759;1.017967939376831;0.0;0.0;0.0
2272;0.0;0.0;0.0;0.37380799651145935;0.018543999642133713;1.066767930984497;0.0;0.0;0.0
2274;0.23179998993873596;0.13761599361896515;0.9811239838600159;0.260591983795166;0.10833600163459778;1.1116639375686646;-0.6299999952316284;0.5600000023841858;-11.606874465942383
2276;0.0;0.0;0.0;0.423583984375;0.0849120020866394;1.0706720352172852;0.0;0.0;0.0
2278;0.0;0.0;0.0;0.30353599786758423;0.1786080002784729;1.115567922592163;0.0;0.0;0.0
2280;0.0;0.0;0.0;0.17080000042915344;0.205935999751091;1.1926720142364502;0.0;0.0;0.0
2283;0.21276798844337463;0.2518079876899719;0.9620919823646545;0.47043198347091675;0.06929600238800049;1.0628639459609985;0.21000000834465027;0.42000001668930054;-9.786874771118164
2285;0.0;0.0;0.0;0.19812799990177155;0.10052800178527832;1.0989760160446167;0.0;0.0;0.0
2287;0.0;0.0;0.0;0.260591983795166;0.17080000042915344;1.0950720310211182;0.0;0.0;0.0
2289;0.0;0.0;0.0;0.29572799801826477;0.11614400148391724;1.1555839776992798;0.0;0.0;0.0
2291;0.14908400177955627;0.24985599517822266;0.9850279688835144;0.36209598183631897;0.08100800216197968;1.010159969329834;0.5600000023841858;0.0;-5.516875267028809
2293;0.0;0.0;0.0;0.019519999623298645;0.1668960005044937;1.2326879501342773;0.0;0.0;0.0
2295;0.0;0.0;0.0;0.4782399833202362;0.07710400223731995;0.9047519564628601;0.0;0.0;0.0
2297;0.0;0.0;0.0;0.054655998945236206;0.24887999892234802;1.3019839525222778;0.0;0.0;0.0
2300;0.16103999316692352;0.2710839807987213;0.9716079831123352;0.4938559830188751;0.057583998888731;0.9974719882011414;0.14000000059604645;-2.309999942779541;-5.796875
2302;0.0;0.0;0.0;0.20983999967575073;0.1668960005044937;1.1721760034561157;0.0;0.0;0.0
2304;0.0;0.0;0.0;0.45871999859809875;-0.0009759999811649323;1.0384639501571655;0.0;0.0;0.0
2306;0.0;0.0;0.0;0.17080000042915344;0.1239520013332367;1.0706720352172852;0.0;0.0;0.0
2308;0.16323599219322205;0.26278799772262573;0.9925919771194458;0.007807999849319458;0.30353599786758423;1.28929603099823;1.6800000667572021;-1.8899999856948853;-0.12687499821186066
2310;0.0;0.0;0.0;0.3777119815349579;0.049775999039411545;1.0296800136566162;0.0;0.0;0.0
2312;0.0;0.0;0.0;0.011711999773979187;0.045871999114751816;1.09116792678833;0.0;0.0;0.0
2314;0.0;0.0;0.0;0.16396799683570862;-0.0009759999811649323;1.1116639375686646;0.0;0.0;0.0
2317;0.03415999934077263;0.18641600012779236;0.9786840081214905;0.2683999836444855;0.014639999717473984;1.1233760118484497;0.07000000029802322;-1.0499999523162842;7.993124961853027
2319;0.0;0.0;0.0;0.30353599786758423;0.0302559994161129;1.0589599609375;0.0;0.0;0.0
2321;0.0;0.0;0.0;0.3386719822883606;-0.04391999915242195;1.0745760202407837;0.0;0.0;0.0
2323;0.0;0.0;0.0;0.2449759989976883;-0.07124799489974976;1.1643680334091187;0.0;0.0;0.0
2325;0.2030079960823059;0.08832799643278122;0.974291980266571;0.4509119987487793;-0.09467199444770813;1.1272799968719482;2.240000009536743;-3.7100000381469727;4.843124866485596
2327;0.0;0.0;0.0;0.24887999892234802;-0.16884799301624298;1.1477760076522827;0.0;0.0;0.0
2329;0.0;0.0;0.0;0.3113439977169037;-0.12590399384498596;1.0989760160446167;0.0;0.0;0.0
2332;0.0;0.0;0.0;0.3933279812335968;-0.10638399422168732;1.1477760076522827;0.0;0.0;0.0
2334;0.2083759903907776;0.0019519999623298645;0.9991799592971802;0.3425759971141815;-0.09467199444770813;1.1438720226287842;1.2599999904632568;-3.009999990463257;-4.046875
2336;0.0;0.0;0.0;0.3230559825897217;-0.20398399233818054;1.0950720310211182;0.0;0.0;0.0
2338;0.0;0.0;0.0;0.3230559825897217;-0.16494399309158325;1.1516799926757812;0.0;0.0;0.0
2340;0.0;0.0;0.0;0.2683999836444855;-0.2235039919614792;1.066767930984497;0.0;0.0;0.0
2342;0.1925159990787506;-0.03513599932193756;0.9921039938926697;0.33086398243904114;-0.14151999354362488;1.1067839860916138;-0.699999988079071;-1.9600000381469727;-11.466875076293945
2344;0.0;0.0;0.0;0.2840159833431244;-0.14151999354362488;1.1350879669189453;0.0;0.0;0.0
2346;0.0;0.0;0.0;0.37380799651145935;-0.1727519929409027;1.0540800094604492;0.0;0.0;0.0
2349;0.0;0.0;0.0;0.22935999929904938;-0.08295999467372894;1.1799839735031128;0.0;0.0;0.0
2351;0.19324800372123718;-0.021715998649597168;0.9838079810142517;0.3699039816856384;-0.1454239934682846;1.034559965133667;0.07000000029802322;-2.799999952316284;-19.236875534057617
2353;0.0;0.0;0.0;0.2879199981689453;0.049775999039411545;1.2043839693069458;0.0;0.0;0.0
2355;0.0;0.0;0.0;0.4050399959087372;0.1395680010318756;1.0745760202407837;0.0;0.0;0.0
2357;0.0;0.0;0.0;0.1210239976644516;0.049775999039411545;1.115567922592163;0.0;0.0;0.0
2359;0.1698240041732788;0.16835999488830566;0.9964959621429443;0.1903200000524521;-0.004879999905824661;1.2404959201812744;-0.7699999809265137;-2.0299999713897705;-23.43687629699707
2361;0.0;0.0;0.0;0.38551998138427734;-0.07905599474906921;0.9652639627456665;0.0;0.0;0.0
2363;0.0;0.0;0.0;-0.07027199864387512;-0.00878399983048439;1.115567922592163;0.0;0.0;0.0
2366;0.0;0.0;0.0;0.42846399545669556;0.08881600201129913;1.0628639459609985;0.0;0.0;0.0
2368;0.08710800111293793;0.13761599361896515;0.9679479598999023;0.22545599937438965;0.11614400148391724;1.2043839693069458;-0.6299999952316284;-3.2200000286102295;-23.43687629699707
2370;0.0;0.0;0.0;0.054655998945236206;0.006831999868154526;1.09116792678833;0.0;0.0;0.0
2372;0.0;0.0;0.0;0.27620798349380493;-0.00878399983048439;1.1194720268249512;0.0;0.0;0.0
2374;0.0;0.0;0.0;0.2879199981689453;-0.0634399950504303;1.115567922592163;0.0;0.0;0.0
2376;0.07685999572277069;0.13224799931049347;0.9943000078201294;0.1327359974384308;-0.0907679945230484;1.1555839776992798;-0.14000000059604645;-3.569999933242798;-22.876874923706055
2378;0.0;0.0;0.0;0.20983999967575073;0.03806399926543236;1.1233760118484497;0.0;0.0;0.0
2380;0.0;0.0;0.0;0.3542879819869995;0.10443200170993805;1.1028800010681152;0.0;0.0;0.0
2383;0.0;0.0;0.0;0.015615999698638916;-0.18055999279022217;0.9896639585494995;0.0;0.0;0.0
