Timestamp(ms);LG-Accel x(g);LG-Accel y(g);LG-Accel z(g);HG-Accel x(g);HG-Accel y(g);HG-Accel z(g);Gyro x(dps);Gyro y(dps);Gyro z(dps)
72;0.0;0.0;0.0;0.16494399309158325;-0.30060797929763794;1.1848639249801636;0.0;0.0;0.0
75;0.0;0.0;0.0;0.14640000462532043;-0.2810879945755005;1.221951961517334;0.0;0.0;0.0
77;0.0;0.0;0.0;0.16494399309158325;-0.22252799570560455;1.2375680208206177;0.0;0.0;0.0
79;0.0;0.0;0.0;0.1542080044746399;-0.2030079960823059;1.2746559381484985;0.0;0.0;0.0
81;0.0;0.0;0.0;0.15811198949813843;-0.18348799645900726;1.270751953125;0.0;0.0;0.0
83;0.0;0.0;0.0;0.1756799966096878;-0.1698240041732788;1.2688000202178955;0.0;0.0;0.0
85;0.0;0.0;0.0;0.16396799683570862;-0.16591998934745789;1.3010079860687256;0.0;0.0;0.0
87;0.0;0.0;0.0;0.14444799721240997;-0.13078400492668152;1.3127199411392212;0.0;0.0;0.0
89;0.03269600123167038;-0.024887999519705772;1.1694920063018799;0.17177599668502808;-0.16591998934745789;1.3088159561157227;0.0;0.0;0.0
92;0.0;0.0;0.0;0.15615999698638916;-0.1542080044746399;1.3166239261627197;0.0;0.0;0.0
94;0.0;0.0;0.0;0.15615999698638916;-0.13468798995018005;1.3332159519195557;0.0;0.0;0.0
96;0.0;0.0;0.0;0.12492799758911133;-0.10735999792814255;1.3332159519195557;0.0;0.0;0.0
98;0.028060000389814377;0.008051999844610691;1.1999919414520264;0.1600639969110489;-0.12297599762678146;1.3781119585037231;0.0;0.0;0.0
100;0.0;0.0;0.0;0.1483519971370697;-0.12297599762678146;1.3410239219665527;0.0;0.0;0.0
102;0.0;0.0;0.0;0.1483519971370697;-0.11126399785280228;1.3176000118255615;0.0;0.0;0.0
104;0.0;0.0;0.0;0.17177599668502808;-0.13859200477600098;1.3088159561157227;0.0;0.0;0.0
107;0.03269600123167038;0.00878399983048439;1.1807159185409546;0.15615999698638916;-0.13078400492668152;1.2766079902648926;0.0;0.0;0.0
109;0.0;0.0;0.0;0.14054399728775024;-0.13468798995018005;1.2688000202178955;0.0;0.0;0.0
111;0.0;0.0;0.0;0.13663999736309052;-0.15030398964881897;1.272704005241394;0.0;0.0;0.0
113;0.0;0.0;0.0;0.16396799683570862;-0.1698240041732788;1.2444000244140625;0.0;0.0;0.0
115;0.03806399926543236;-0.020495999604463577;1.1272799968719482;0.16396799683570862;-0.1698240041732788;1.223904013633728;0.0;0.0;0.0
117;0.0;0.0;0.0;0.17958399653434753;-0.18544000387191772;1.2160959243774414;0.0;0.0;0.0
119;0.0;0.0;0.0;0.2147199958562851;-0.17763200402259827;1.199504017829895;0.0;0.0;0.0
121;0.0;0.0;0.0;0.22252799570560455;-0.19715198874473572;1.2034080028533936;0.0;0.0;0.0
124;0.07588399946689606;-0.045871999114751816;1.0789679288864136;0.22252799570560455;-0.17372798919677734;1.223904013633728;0.0;0.0;0.0
126;0.0;0.0;0.0;0.2147199958562851;-0.13859200477600098;1.248304009437561;0.0;0.0;0.0
128;0.0;0.0;0.0;0.230335995554924;-0.1424959897994995;1.231711983680725;0.0;0.0;0.0
130;0.0;0.0;0.0;0.24985599517822266;-0.13468798995018005;1.199504017829895;0.0;0.0;0.0
132;0.11028799414634705;-0.023180000483989716;1.0948280096054077;0.22643199563026428;-0.15030398964881897;1.2278079986572266;-4.458125114440918;-1.881250023841858;23.126249313354492
134;0.0;0.0;0.0;0.22252799570560455;-0.1268799901008606;1.223904013633728;0.0;0.0;0.0
136;0.0;0.0;0.0;0.23814399540424347;-0.1424959897994995;1.2200000286102295;0.0;0.0;0.0
138;0.0;0.0;0.0;0.23814399540424347;-0.11126399785280228;1.2356159687042236;0.0;0.0;0.0
141;0.1163880005478859;0.00634399987757206;1.0928759574890137;0.230335995554924;-0.11907199770212173;1.223904013633728;-0.048124998807907104;0.9187500476837158;21.936248779296875
143;0.0;0.0;0.0;0.28889599442481995;-0.1424959897994995;1.2034080028533936;0.0;0.0;0.0
145;0.0;0.0;0.0;0.23814399540424347;-0.115167997777462;1.199504017829895;0.0;0.0;0.0
147;0.0;0.0;0.0;0.22643199563026428;-0.13859200477600098;1.199504017829895;0.0;0.0;0.0
149;0.12419600039720535;0.013907999731600285;1.0782359838485718;0.2537599802017212;-0.09955199807882309;1.2160959243774414;4.571875095367432;1.2687499523162842;20.886249542236328
151;0.0;0.0;0.0;0.2576639950275421;-0.11126399785280228;1.2034080028533936;0.0;0.0;0.0
153;0.0;0.0;0.0;0.2576639950275421;-0.10735999792814255;1.2160959243774414;0.0;0.0;0.0
155;0.0;0.0;0.0;0.27327999472618103;-0.08393599838018417;1.207311987876892;0.0;0.0;0.0
158;0.14322799444198608;0.03855200111865997;1.0826280117034912;0.27718400955200195;-0.08003199845552444;1.223904013633728;7.791874885559082;0.7787500023841858;20.74625015258789
160;0.0;0.0;0.0;0.2810879945755005;-0.08393599838018417;1.199504017829895;0.0;0.0;0.0
162;0.0;0.0;0.0;0.28889599442481995;-0.0605119988322258;1.2034080028533936;0.0;0.0;0.0
164;0.0;0.0;0.0;0.3084160089492798;-0.06831999868154526;1.182911992073059;0.0;0.0;0.0
166;0.1768999993801117;0.06319599598646164;1.0696959495544434;0.31622397899627686;-0.06831999868154526;1.2034080028533936;7.021874904632568;3.2987499237060547;20.326250076293945
168;0.0;0.0;0.0;0.30060797929763794;-0.07612799853086472;1.1877919435501099;0.0;0.0;0.0
170;0.0;0.0;0.0;0.3084160089492798;-0.05660799890756607;1.1712000370025635;0.0;0.0;0.0
172;0.0;0.0;0.0;0.29280000925064087;-0.08003199845552444;1.1633919477462769;0.0;0.0;0.0
175;0.19568799436092377;0.06661199778318405;1.0487120151519775;0.3084160089492798;-0.09174399822950363;1.1790080070495605;3.8718748092651367;8.758749961853027;20.676250457763672
177;0.0;0.0;0.0;0.3084160089492798;-0.0605119988322258;1.175104022026062;0.0;0.0;0.0
179;0.0;0.0;0.0;0.3084160089492798;-0.06831999868154526;1.1712000370025635;0.0;0.0;0.0
181;0.0;0.0;0.0;0.30451199412345886;-0.05270399898290634;1.1877919435501099;0.0;0.0;0.0
183;0.1756799966096878;0.059779997915029526;1.035048007965088;0.29280000925064087;-0.0605119988322258;1.1546080112457275;0.44187501072883606;14.498749732971191;21.236249923706055
185;0.0;0.0;0.0;0.2537599802017212;-0.06441599875688553;1.1546080112457275;0.0;0.0;0.0
187;0.0;0.0;0.0;0.2537599802017212;-0.0605119988322258;1.158511996269226;0.0;0.0;0.0
189;0.0;0.0;0.0;0.26156800985336304;-0.044895999133586884;1.1916959285736084;0.0;0.0;0.0
192;0.1437159925699234;0.0773480013012886;1.0391960144042969;0.2420479953289032;-0.040991999208927155;1.1868159770965576;-3.5481250286102295;17.368751525878906;21.236249923706055
194;0.0;0.0;0.0;0.2576639950275421;-0.04879999905824661;1.1790080070495605;0.0;0.0;0.0
196;0.0;0.0;0.0;0.27327999472618103;-0.02147199958562851;1.1712000370025635;0.0;0.0;0.0
198;0.0;0.0;0.0;0.2654719948768616;-0.05660799890756607;1.182911992073059;0.0;0.0;0.0
200;0.1378600001335144;0.08954799920320511;1.0513960123062134;0.2654719948768616;-0.06441599875688553;1.1877919435501099;-8.028124809265137;16.17875099182129;21.936248779296875
202;0.0;0.0;0.0;0.26156800985336304;-0.05953599885106087;1.175104022026062;0.0;0.0;0.0
204;0.0;0.0;0.0;0.24595199525356293;-0.0907679945230484;1.1672959327697754;0.0;0.0;0.0
206;0.0;0.0;0.0;0.2537599802017212;-0.07515199482440948;1.150704026222229;0.0;0.0;0.0
209;0.13590799272060394;0.0605119988322258;1.034071922302246;0.26156800985336304;-0.09467199444770813;1.1546080112457275;-10.33812427520752;13.0287504196167;21.936248779296875
211;0.0;0.0;0.0;0.24985599517822266;-0.10638399422168732;1.158511996269226;0.0;0.0;0.0
213;0.0;0.0;0.0;0.24595199525356293;-0.10247999429702759;1.1428959369659424;0.0;0.0;0.0
215;0.0;0.0;0.0;0.2420479953289032;-0.09857599437236786;1.150704026222229;0.0;0.0;0.0
217;0.13371199369430542;0.03855200111865997;1.0130879878997803;0.24595199525356293;-0.10638399422168732;1.150704026222229;-9.218124389648438;11.55875015258789;20.60624885559082
219;0.0;0.0;0.0;0.24595199525356293;-0.10638399422168732;1.126304030418396;0.0;0.0;0.0
221;0.0;0.0;0.0;0.2693759799003601;-0.11419199407100677;1.146799921989441;0.0;0.0;0.0
223;0.0;0.0;0.0;0.2654719948768616;-0.0907679945230484;1.1428959369659424;0.0;0.0;0.0
226;0.14518000185489655;0.028547998517751694;1.0094280242919922;0.28889599442481995;-0.10247999429702759;1.1350879669189453;-6.558125019073486;10.788749694824219;20.466249465942383
228;0.0;0.0;0.0;0.30451199412345886;-0.1180959939956665;1.1106879711151123;0.0;0.0;0.0
230;0.0;0.0;0.0;0.28889599442481995;-0.11419199407100677;1.122399926185608;0.0;0.0;0.0
232;0.0;0.0;0.0;0.3513599932193756;-0.09857599437236786;1.0901919603347778;0.0;0.0;0.0
234;0.19397999346256256;0.024156000465154648;0.9803919792175293;0.3396480083465576;-0.10247999429702759;1.1106879711151123;-2.8481252193450928;12.678750038146973;21.376249313354492
236;0.0;0.0;0.0;0.3240320086479187;-0.14640000462532043;1.1106879711151123;0.0;0.0;0.0
238;0.0;0.0;0.0;0.3240320086479187;-0.10735999792814255;1.101904034614563;0.0;0.0;0.0
240;0.0;0.0;0.0;0.3240320086479187;-0.13078400492668152;1.0940959453582764;0.0;0.0;0.0
243;0.20349599421024323;0.013419999741017818;0.9728279709815979;0.3396480083465576;-0.12297599762678146;1.101904034614563;1.8418750762939453;15.688750267028809;21.72624969482422
245;0.0;0.0;0.0;0.3123199939727783;-0.1268799901008606;1.1145919561386108;0.0;0.0;0.0
247;0.0;0.0;0.0;0.3240320086479187;-0.115167997777462;1.0814080238342285;0.0;0.0;0.0
249;0.0;0.0;0.0;0.30451199412345886;-0.14640000462532043;1.0862879753112793;0.0;0.0;0.0
251;0.1890999972820282;0.004635999910533428;0.9740479588508606;0.2967039942741394;-0.1424959897994995;1.1145919561386108;6.671875;15.12874984741211;20.676250457763672
253;0.0;0.0;0.0;0.30060797929763794;-0.1424959897994995;1.097999930381775;0.0;0.0;0.0
255;0.0;0.0;0.0;0.2693759799003601;-0.12297599762678146;1.1184959411621094;0.0;0.0;0.0
257;0.0;0.0;0.0;0.27327999472618103;-0.115167997777462;1.0940959453582764;0.0;0.0;0.0
260;0.15664799511432648;0.0058559998869895935;0.9647759795188904;0.27327999472618103;-0.0878399983048439;1.0901919603347778;11.151875495910645;10.088749885559082;18.7862491607666
262;0.0;0.0;0.0;0.2810879945755005;-0.1424959897994995;1.0814080238342285;0.0;0.0;0.0
264;0.0;0.0;0.0;0.27327999472618103;-0.11126399785280228;1.0618879795074463;0.0;0.0;0.0
266;0.0;0.0;0.0;0.2967039942741394;-0.11126399785280228;1.0570080280303955;0.0;0.0;0.0
268;0.15274399518966675;0.00317199993878603;0.9318360090255737;0.2810879945755005;-0.14640000462532043;1.0335839986801147;13.741875648498535;2.2487499713897705;17.0362491607666
270;0.0;0.0;0.0;0.284991979598999;-0.1298079937696457;1.0374879837036133;0.0;0.0;0.0
272;0.0;0.0;0.0;0.3123199939727783;-0.1454239934682846;1.0208959579467773;0.0;0.0;0.0
274;0.0;0.0;0.0;0.33183997869491577;-0.14151999354362488;1.0287039279937744;0.0;0.0;0.0
277;0.1937360018491745;-0.003903999924659729;0.9006040096282959;0.3474559783935547;-0.1454239934682846;1.0247999429702759;15.141875267028809;-4.751250267028809;15.8462495803833
279;0.0;0.0;0.0;0.3513599932193756;-0.13761599361896515;0.9925919771194458;0.0;0.0;0.0
281;0.0;0.0;0.0;0.3786879777908325;-0.15323199331760406;0.9808799624443054;0.0;0.0;0.0
283;0.0;0.0;0.0;0.4138239920139313;-0.1727519929409027;1.0052800178527832;0.0;0.0;0.0
285;0.2710839807987213;-0.013907999731600285;0.8661999702453613;0.45188799500465393;-0.15323199331760406;0.9720959663391113;15.211875915527344;-5.591249942779541;14.796249389648438
287;0.0;0.0;0.0;0.4440799951553345;-0.16103999316692352;0.9642879962921143;0.0;0.0;0.0
289;0.0;0.0;0.0;0.4635999798774719;-0.20398399233818054;0.9359839558601379;0.0;0.0;0.0
292;0.0;0.0;0.0;0.4714079797267914;-0.18055999279022217;0.9759999513626099;0.0;0.0;0.0
294;0.3337920010089874;-0.04025999829173088;0.8378959894180298;0.4909279942512512;-0.19617599248886108;0.9476959705352783;14.651875495910645;-0.7612499594688416;15.216249465942383
296;0.0;0.0;0.0;0.4714079797267914;-0.20398399233818054;0.9720959663391113;0.0;0.0;0.0
298;0.0;0.0;0.0;0.4714079797267914;-0.22740799188613892;0.9564799666404724;0.0;0.0;0.0
300;0.0;0.0;0.0;0.48311999440193176;-0.23131199181079865;0.9564799666404724;0.0;0.0;0.0
302;0.3508719801902771;-0.08686399459838867;0.8374080061912537;0.4909279942512512;-0.26254400610923767;0.9564799666404724;14.091875076293945;5.678750038146973;15.00624942779541
304;0.0;0.0;0.0;0.45871999859809875;-0.25863999128341675;0.9896639585494995;0.0;0.0;0.0
306;0.0;0.0;0.0;0.48214399814605713;-0.2391199916601181;1.0052800178527832;0.0;0.0;0.0
309;0.0;0.0;0.0;0.4938559830188751;-0.24302399158477783;0.985759973526001;0.0;0.0;0.0
311;0.35916799306869507;-0.11711999773979187;0.8666880130767822;0.4938559830188751;-0.27035200595855713;0.9935680031776428;13.181875228881836;10.648750305175781;12.766249656677246
313;0.0;0.0;0.0;0.47043198347091675;-0.2781600058078766;0.9935680031776428;0.0;0.0;0.0
315;0.0;0.0;0.0;0.48214399814605713;-0.2820639908313751;1.0257760286331177;0.0;0.0;0.0
317;0.0;0.0;0.0;0.4509119987487793;-0.2898719906806946;1.0384639501571655;0.0;0.0;0.0
319;0.34574800729751587;-0.14908400177955627;0.8876720070838928;0.45871999859809875;-0.33671998977661133;1.034559965133667;11.711874961853027;10.998749732971191;8.986249923706055
321;0.0;0.0;0.0;0.4060159921646118;-0.31036800146102905;1.0091840028762817;0.0;0.0;0.0
323;0.0;0.0;0.0;0.4635999798774719;-0.32207998633384705;1.0287039279937744;0.0;0.0;0.0
326;0.0;0.0;0.0;0.447983980178833;-0.32207998633384705;1.0003999471664429;0.0;0.0;0.0
328;0.3306199908256531;-0.18373200297355652;0.8898679614067078;0.4323679804801941;-0.30646398663520813;1.0043039321899414;10.801875114440918;5.958749771118164;3.9462499618530273
330;0.0;0.0;0.0;0.45188799500465393;-0.33769598603248596;1.0091840028762817;0.0;0.0;0.0
332;0.0;0.0;0.0;0.4753119945526123;-0.3298879861831665;0.9720959663391113;0.0;0.0;0.0
334;0.0;0.0;0.0;0.4714079797267914;-0.3533119857311249;0.9925919771194458;0.0;0.0;0.0
336;0.342087984085083;-0.2134999930858612;0.8622959852218628;0.4714079797267914;-0.33769598603248596;0.9759999513626099;11.361875534057617;-0.7612499594688416;-2.213749885559082
338;0.0;0.0;0.0;0.447983980178833;-0.3211039900779724;1.0003999471664429;0.0;0.0;0.0
340;0.0;0.0;0.0;0.49483197927474976;-0.32891198992729187;0.9515999555587769;0.0;0.0;0.0
343;0.0;0.0;0.0;0.49483197927474976;-0.32891198992729187;0.9759999513626099;0.0;0.0;0.0
345;0.366487979888916;-0.2054480016231537;0.8476560115814209;0.4635999798774719;-0.3211039900779724;0.9476959705352783;14.16187572479248;-6.571249961853027;-5.853750228881836
347;0.0;0.0;0.0;0.4753119945526123;-0.31329599022865295;0.9681919813156128;0.0;0.0;0.0
349;0.0;0.0;0.0;0.46750399470329285;-0.35233598947525024;0.9525759816169739;0.0;0.0;0.0
351;0.0;0.0;0.0;0.4909279942512512;-0.30158400535583496;0.9847840070724487;0.0;0.0;0.0
353;0.35697197914123535;-0.2000799924135208;0.8359439969062805;0.4753119945526123;-0.3484320044517517;0.9320799708366394;15.211875915527344;-9.37125015258789;-8.09375
355;0.0;0.0;0.0;0.45188799500465393;-0.35233598947525024;0.9515999555587769;0.0;0.0;0.0
357;0.0;0.0;0.0;0.4596959948539734;-0.3601439893245697;0.9564799666404724;0.0;0.0;0.0
360;0.0;0.0;0.0;0.44017598032951355;-0.37966400384902954;0.9320799708366394;0.0;0.0;0.0
362;0.3369639813899994;-0.230335995554924;0.8181319832801819;0.4323679804801941;-0.36795198917388916;0.9398880004882812;13.32187557220459;-9.37125015258789;-12.783750534057617
364;0.0;0.0;0.0;0.4635999798774719;-0.399183988571167;0.9281759858131409;0.0;0.0;0.0
366;0.0;0.0;0.0;0.44017598032951355;-0.3757599890232086;0.9437919855117798;0.0;0.0;0.0
368;0.0;0.0;0.0;0.45579198002815247;-0.36795198917388916;0.9437919855117798;0.0;0.0;0.0
370;0.3223240077495575;-0.24863599240779877;0.8091039657592773;0.42455998063087463;-0.3445279896259308;0.9476959705352783;10.871875762939453;-9.301250457763672;-18.943750381469727
372;0.0;0.0;0.0;0.4323679804801941;-0.3835679888725281;0.9232959747314453;0.0;0.0;0.0
374;0.0;0.0;0.0;0.4177280068397522;-0.35233598947525024;0.9642879962921143;0.0;0.0;0.0
377;0.0;0.0;0.0;0.42455998063087463;-0.399183988571167;0.9437919855117798;0.0;0.0;0.0
379;0.2949959933757782;-0.24302399158477783;0.8103240132331848;0.42455998063087463;-0.3835679888725281;0.9359839558601379;7.371874809265137;-10.701250076293945;-22.23375129699707
381;0.0;0.0;0.0;0.39430397748947144;-0.3718560039997101;0.9281759858131409;0.0;0.0;0.0
383;0.0;0.0;0.0;0.38259199261665344;-0.3835679888725281;0.9193919897079468;0.0;0.0;0.0
385;0.0;0.0;0.0;0.40991997718811035;-0.399183988571167;0.9320799708366394;0.0;0.0;0.0
387;0.27254799008369446;-0.25619998574256897;0.8022719621658325;0.374783992767334;-0.41870400309562683;0.9359839558601379;3.171875;-9.021249771118164;-25.383750915527344
389;0.0;0.0;0.0;0.37088000774383545;-0.41870400309562683;0.9320799708366394;0.0;0.0;0.0
391;0.0;0.0;0.0;0.3396480083465576;-0.4108960032463074;0.9154880046844482;0.0;0.0;0.0
394;0.0;0.0;0.0;0.3396480083465576;-0.42260798811912537;0.9515999555587769;0.0;0.0;0.0
396;0.23668000102043152;-0.2949959933757782;0.8020280003547668;0.29280000925064087;-0.44603198766708374;0.9320799708366394;-0.048124998807907104;-3.0012500286102295;-27.903751373291016
398;0.0;0.0;0.0;0.30451199412345886;-0.4655520021915436;0.9476959705352783;0.0;0.0;0.0
400;0.0;0.0;0.0;0.2810879945755005;-0.4694559872150421;0.9398880004882812;0.0;0.0;0.0
402;0.0;0.0;0.0;0.28889599442481995;-0.4694559872150421;0.9515999555587769;0.0;0.0;0.0
404;0.16835999488830566;-0.33305999636650085;0.8134959936141968;0.2537599802017212;-0.4928799867630005;0.9681919813156128;-2.008125066757202;3.8587498664855957;-28.673749923706055
407;0.0;0.0;0.0;0.24595199525356293;-0.44603198766708374;0.9759999513626099;0.0;0.0;0.0
408;0.0;0.0;0.0;0.26156800985336304;-0.5006880164146423;0.9642879962921143;0.0;0.0;0.0
411;0.0;0.0;0.0;0.24595199525356293;-0.4928799867630005;0.9564799666404724;0.0;0.0;0.0
413;0.1105320006608963;-0.34891998767852783;0.8359439969062805;0.2030079960823059;-0.4772639870643616;0.9886879920959473;-2.8481252193450928;7.638750076293945;-28.4637508392334
415;0.0;0.0;0.0;0.19129599630832672;-0.48897600173950195;0.9720959663391113;0.0;0.0;0.0
417;0.0;0.0;0.0;0.21081599593162537;-0.47336000204086304;0.9886879920959473;0.0;0.0;0.0
419;0.0;0.0;0.0;0.19519999623298645;-0.5163040161132812;0.9847840070724487;0.0;0.0;0.0
421;0.08247199654579163;-0.3677079975605011;0.8532679677009583;0.21081599593162537;-0.5045920014381409;1.0003999471664429;-3.198125123977661;8.05875015258789;-28.32375144958496
424;0.0;0.0;0.0;0.19129599630832672;-0.5202080011367798;0.9964959621429443;0.0;0.0;0.0
425;0.0;0.0;0.0;0.18348799645900726;-0.5397279858589172;0.9808799624443054;0.0;0.0;0.0
428;0.0;0.0;0.0;0.15615999698638916;-0.5358240008354187;0.9964959621429443;0.0;0.0;0.0
430;0.05685199797153473;-0.40186798572540283;0.855463981628418;0.15615999698638916;-0.5436319708824158;0.9759999513626099;-2.778125047683716;7.078750133514404;-28.18375015258789
432;0.0;0.0;0.0;0.1600639969110489;-0.563152015209198;0.9720959663391113;0.0;0.0;0.0
434;0.0;0.0;0.0;0.15225599706172943;-0.5748639702796936;0.9925919771194458;0.0;0.0;0.0
436;0.0;0.0;0.0;0.12883199751377106;-0.5748639702796936;0.9603840112686157;0.0;0.0;0.0
438;0.01781199872493744;-0.44652000069618225;0.8559519648551941;0.11321599781513214;-0.5982879996299744;0.9925919771194458;-1.5881249904632568;4.978749752044678;-28.113750457763672
440;0.0;0.0;0.0;0.12492799758911133;-0.6139039993286133;0.9808799624443054;0.0;0.0;0.0
442;0.0;0.0;0.0;0.10540799796581268;-0.6060959696769714;1.0052800178527832;0.0;0.0;0.0
445;0.0;0.0;0.0;0.13663999736309052;-0.6217119693756104;0.9847840070724487;0.0;0.0;0.0
447;-0.0058559998869895935;-0.4655520021915436;0.8569279909133911;0.09857599437236786;-0.6139039993286133;0.9847840070724487;-1.0281249284744263;1.96875;-27.973751068115234
449;0.0;0.0;0.0;0.13663999736309052;-0.6139039993286133;0.9603840112686157;0.0;0.0;0.0
451;0.0;0.0;0.0;0.10540799796581268;-0.6100000143051147;0.9886879920959473;0.0;0.0;0.0
453;0.0;0.0;0.0;0.12492799758911133;-0.6139039993286133;0.9925919771194458;0.0;0.0;0.0
455;-0.007319999858736992;-0.4799479842185974;0.8576599955558777;0.11711999773979187;-0.6060959696769714;0.9847840070724487;-1.4481250047683716;-0.3412500023841858;-27.763750076293945
457;0.0;0.0;0.0;0.12883199751377106;-0.6217119693756104;1.0052800178527832;0.0;0.0;0.0
459;0.0;0.0;0.0;0.10150399804115295;-0.6021919846534729;0.9847840070724487;0.0;0.0;0.0
462;0.0;0.0;0.0;0.0907679945230484;-0.6412320137023926;1.0091840028762817;0.0;0.0;0.0
464;-0.01659199967980385;-0.4928799867630005;0.8644919991493225;0.08295999467372894;-0.6217119693756104;1.0003999471664429;-2.568125009536743;-1.1112500429153442;-27.41374969482422
466;0.0;0.0;0.0;0.05172799900174141;-0.6334239840507507;0.9886879920959473;0.0;0.0;0.0
468;0.0;0.0;0.0;0.032207999378442764;-0.6412320137023926;1.0003999471664429;0.0;0.0;0.0
470;0.0;0.0;0.0;0.032207999378442764;-0.6295199990272522;1.0091840028762817;0.0;0.0;0.0
472;-0.08173999935388565;-0.5058119893074036;0.8783999681472778;0.00878399983048439;-0.6295199990272522;1.0052800178527832;-4.318125247955322;-5.381249904632568;-27.763750076293945
474;0.0;0.0;0.0;0.01268799975514412;-0.6412320137023926;1.0091840028762817;0.0;0.0;0.0
477;0.0;0.0;0.0;-0.010735999792814255;-0.6490399837493896;1.0208959579467773;0.0;0.0;0.0
479;0.0;0.0;0.0;0.028303999453783035;-0.6451359987258911;1.0003999471664429;0.0;0.0;0.0
481;-0.11663199961185455;-0.5126439929008484;0.8776679635047913;0.00878399983048439;-0.676367998123169;1.0052800178527832;-6.488125324249268;-12.731249809265137;-28.603750228881836
483;0.0;0.0;0.0;0.0009759999811649323;-0.6490399837493896;1.0052800178527832;0.0;0.0;0.0
485;0.0;0.0;0.0;0.024399999529123306;-0.6373279690742493;0.9847840070724487;0.0;0.0;0.0
487;0.0;0.0;0.0;0.00878399983048439;-0.6412320137023926;0.9886879920959473;0.0;0.0;0.0
489;-0.1105320006608963;-0.5128880143165588;0.8603439927101135;0.00878399983048439;-0.6529439687728882;0.9847840070724487;-8.308124542236328;-17.28125;-29.23375129699707
491;0.0;0.0;0.0;0.032207999378442764;-0.66075199842453;0.9476959705352783;0.0;0.0;0.0
494;0.0;0.0;0.0;0.01268799975514412;-0.6334239840507507;0.9681919813156128;0.0;0.0;0.0
496;0.0;0.0;0.0;0.04001599922776222;-0.6568480134010315;0.9642879962921143;0.0;0.0;0.0
498;-0.09418399631977081;-0.5153279900550842;0.838871955871582;0.03611199930310249;-0.6451359987258911;0.9476959705352783;-7.958125114440918;-19.6612491607666;-29.09375
500;0.0;0.0;0.0;0.01268799975514412;-0.6451359987258911;0.9359839558601379;0.0;0.0;0.0
502;0.0;0.0;0.0;0.028303999453783035;-0.6295199990272522;0.9437919855117798;0.0;0.0;0.0
504;0.0;0.0;0.0;0.04001599922776222;-0.66075199842453;0.9398880004882812;0.0;0.0;0.0
506;-0.08906000107526779;-0.5048359632492065;0.8122760057449341;0.01659199967980385;-0.6178079843521118;0.9564799666404724;-6.208125114440918;-19.311248779296875;-28.743751525878906
509;0.0;0.0;0.0;0.05172799900174141;-0.6148799657821655;0.9359839558601379;0.0;0.0;0.0
511;0.0;0.0;0.0;0.024399999529123306;-0.6070719957351685;0.9154880046844482;0.0;0.0;0.0
513;0.0;0.0;0.0;0.04001599922776222;-0.5992639660835266;0.9154880046844482;0.0;0.0;0.0
515;-0.07685999572277069;-0.4731159806251526;0.7990999817848206;0.04001599922776222;-0.610975980758667;0.9271999597549438;-5.018125057220459;-15.881250381469727;-29.653751373291016
517;0.0;0.0;0.0;0.07515199482440948;-0.5992639660835266;0.9271999597549438;0.0;0.0;0.0
519;0.0;0.0;0.0;0.05563199892640114;-0.5680319666862488;0.9193919897079468;0.0;0.0;0.0
521;0.0;0.0;0.0;0.04782399907708168;-0.5914559960365295;0.9232959747314453;0.0;0.0;0.0
523;-0.07588399946689606;-0.4462759792804718;0.7961719632148743;0.03611199930310249;-0.5758399963378906;0.9281759858131409;-5.648125171661377;-9.581250190734863;-31.543750762939453
526;0.0;0.0;0.0;0.03611199930310249;-0.5553439855575562;0.9437919855117798;0.0;0.0;0.0
528;0.0;0.0;0.0;0.020495999604463577;-0.5592479705810547;0.9642879962921143;0.0;0.0;0.0
530;0.0;0.0;0.0;-0.014639999717473984;-0.563152015209198;0.9759999513626099;0.0;0.0;0.0
532;-0.09662400186061859;-0.4374919831752777;0.8308199644088745;-0.014639999717473984;-0.5904799699783325;0.9720959663391113;-8.938124656677246;-2.9312500953674316;-31.473751068115234
534;0.0;0.0;0.0;-0.014639999717473984;-0.6021919846534729;0.9925919771194458;0.0;0.0;0.0
536;0.0;0.0;0.0;-0.03415999934077263;-0.586575984954834;0.9964959621429443;0.0;0.0;0.0
538;0.0;0.0;0.0;-0.014639999717473984;-0.6100000143051147;1.0169919729232788;0.0;0.0;0.0
540;-0.15054799616336823;-0.4513999819755554;0.8730319738388062;-0.06539200246334076;-0.5787680149078369;1.0208959579467773;-14.67812442779541;1.6887500286102295;-31.05375099182129
543;0.0;0.0;0.0;-0.07320000231266022;-0.5943840146064758;1.0413919687271118;0.0;0.0;0.0
545;0.0;0.0;0.0;-0.12004800140857697;-0.6334239840507507;1.0335839986801147;0.0;0.0;0.0
547;0.0;0.0;0.0;-0.10833600163459778;-0.6217119693756104;1.0618879795074463;0.0;0.0;0.0
549;-0.22252799570560455;-0.4794600009918213;0.9189040064811707;-0.11614400148391724;-0.6100000143051147;1.0531039237976074;-20.698123931884766;1.96875;-31.05375099182129
551;0.0;0.0;0.0;-0.14347200095653534;-0.6139039993286133;1.0696959495544434;0.0;0.0;0.0
553;0.0;0.0;0.0;-0.13859200477600098;-0.6334239840507507;1.0696959495544434;0.0;0.0;0.0
555;0.0;0.0;0.0;-0.15908800065517426;-0.6334239840507507;1.0618879795074463;0.0;0.0;0.0
557;-0.26376399397850037;-0.5021519660949707;0.9398880004882812;-0.16591998934745789;-0.6529439687728882;1.0901919603347778;-24.268125534057617;1.2687499523162842;-30.91374969482422
560;0.0;0.0;0.0;-0.1698240041732788;-0.66075199842453;1.1106879711151123;0.0;0.0;0.0
562;0.0;0.0;0.0;-0.18544000387191772;-0.6568480134010315;1.1428959369659424;0.0;0.0;0.0
564;0.0;0.0;0.0;-0.17763200402259827;-0.6451359987258911;1.1389919519424438;0.0;0.0;0.0
566;-0.301827996969223;-0.5194759964942932;0.98990797996521;-0.1815359890460968;-0.6568480134010315;1.1389919519424438;-25.66812515258789;-0.27125000953674316;-29.373750686645508
568;0.0;0.0;0.0;-0.2088640034198761;-0.6958879828453064;1.1389919519424438;0.0;0.0;0.0
570;0.0;0.0;0.0;-0.24399998784065247;-0.6919839978218079;1.146799921989441;0.0;0.0;0.0
572;0.0;0.0;0.0;-0.27132800221443176;-0.7036960124969482;1.1389919519424438;0.0;0.0;0.0
574;-0.36502400040626526;-0.5516839623451233;1.0182119607925415;-0.2752319872379303;-0.6997919678688049;1.1184959411621094;-24.89812469482422;-6.711250305175781;-25.173749923706055
577;0.0;0.0;0.0;-0.26742398738861084;-0.7310239672660828;1.1428959369659424;0.0;0.0;0.0
579;0.0;0.0;0.0;-0.2752319872379303;-0.7193120121955872;1.158511996269226;0.0;0.0;0.0
581;0.0;0.0;0.0;-0.2635200023651123;-0.7232159972190857;1.1428959369659424;0.0;0.0;0.0
583;-0.3891800045967102;-0.5831599831581116;1.0125999450683594;-0.2518079876899719;-0.7115039825439453;1.1428959369659424;-20.698123931884766;-17.631248474121094;-21.113750457763672
585;0.0;0.0;0.0;-0.2635200023651123;-0.6997919678688049;1.122399926185608;0.0;0.0;0.0
587;0.0;0.0;0.0;-0.20495998859405518;-0.6724640130996704;1.1145919561386108;0.0;0.0;0.0
589;0.0;0.0;0.0;-0.22448000311851501;-0.7193120121955872;1.122399926185608;0.0;0.0;0.0
591;-0.3381839990615845;-0.5692520141601562;0.9884439706802368;-0.18934398889541626;-0.6802719831466675;1.0814080238342285;-13.278124809265137;-28.4112491607666;-18.52375030517578
594;0.0;0.0;0.0;-0.17372798919677734;-0.6617279648780823;1.0940959453582764;0.0;0.0;0.0
596;0.0;0.0;0.0;-0.16201600432395935;-0.6734399795532227;1.0579839944839478;0.0;0.0;0.0
598;0.0;0.0;0.0;-0.14737600088119507;-0.6617279648780823;1.0491999387741089;0.0;0.0;0.0
600;-0.28645598888397217;-0.5316759943962097;0.9345200061798096;-0.1239520013332367;-0.6461119651794434;1.0208959579467773;-3.268125057220459;-37.44124984741211;-17.193750381469727
602;0.0;0.0;0.0;-0.1395680010318756;-0.610975980758667;1.0374879837036133;0.0;0.0;0.0
604;0.0;0.0;0.0;-0.11614400148391724;-0.6187840104103088;0.9964959621429443;0.0;0.0;0.0
606;0.0;0.0;0.0;-0.09272000193595886;-0.6265919804573059;0.9847840070724487;0.0;0.0;0.0
608;-0.23106800019741058;-0.4818999767303467;0.8801079988479614;-0.0849120020866394;-0.5602239966392517;0.9886879920959473;6.251874923706055;-43.741249084472656;-16.633750915527344
611;0.0;0.0;0.0;-0.07320000231266022;-0.563152015209198;1.0003999471664429;0.0;0.0;0.0
613;0.0;0.0;0.0;-0.006831999868154526;-0.5280159711837769;0.9886879920959473;0.0;0.0;0.0
615;0.0;0.0;0.0;-0.02635199949145317;-0.5241119861602783;0.9681919813156128;0.0;0.0;0.0
617;-0.15518400073051453;-0.4089439809322357;0.859611988067627;-0.022447999566793442;-0.5006880164146423;0.9886879920959473;9.961874961853027;-44.58124923706055;-16.14375114440918
619;0.0;0.0;0.0;0.00878399983048439;-0.4772639870643616;0.9886879920959473;0.0;0.0;0.0
621;0.0;0.0;0.0;0.024399999529123306;-0.4655520021915436;1.0130879878997803;0.0;0.0;0.0
623;0.0;0.0;0.0;0.020495999604463577;-0.5006880164146423;1.0208959579467773;0.0;0.0;0.0
625;-0.09686800092458725;-0.3403799831867218;0.868395984172821;0.03611199930310249;-0.43432000279426575;1.0130879878997803;5.411874771118164;-37.93124771118164;-15.723750114440918
628;0.0;0.0;0.0;0.05953599885106087;-0.4421280026435852;1.0247999429702759;0.0;0.0;0.0
630;0.0;0.0;0.0;0.05172799900174141;-0.46164798736572266;1.0413919687271118;0.0;0.0;0.0
632;0.0;0.0;0.0;0.05953599885106087;-0.44993600249290466;1.0491999387741089;0.0;0.0;0.0
634;-0.052216000854969025;-0.31378400325775146;0.9025560021400452;0.08295999467372894;-0.4421280026435852;1.0618879795074463;-3.6181252002716064;-25.541248321533203;-15.863750457763672
636;0.0;0.0;0.0;0.0936959981918335;-0.43432000279426575;1.0862879753112793;0.0;0.0;0.0
638;0.0;0.0;0.0;0.04782399907708168;-0.46164798736572266;1.0579839944839478;0.0;0.0;0.0
640;0.0;0.0;0.0;0.04782399907708168;-0.48897600173950195;1.0775039196014404;0.0;0.0;0.0
642;-0.06490399688482285;-0.3323279917240143;0.9435479640960693;0.04391999915242195;-0.4655520021915436;1.1058080196380615;-12.508124351501465;-11.751250267028809;-15.443750381469727
645;0.0;0.0;0.0;0.028303999453783035;-0.47043198347091675;1.097999930381775;0.0;0.0;0.0
647;0.0;0.0;0.0;0.01659199967980385;-0.47043198347091675;1.126304030418396;0.0;0.0;0.0
649;0.0;0.0;0.0;0.0009759999811649323;-0.4938559830188751;1.126304030418396;0.0;0.0;0.0
651;-0.10662800073623657;-0.35916799306869507;0.9930799603462219;-0.010735999792814255;-0.5055679678916931;1.1389919519424438;-18.038124084472656;-1.1812500953674316;-15.93375015258789
653;0.0;0.0;0.0;0.020495999604463577;-0.5094720125198364;1.1790080070495605;0.0;0.0;0.0
655;0.0;0.0;0.0;-0.045871999114751816;-0.513375997543335;1.158511996269226;0.0;0.0;0.0
657;0.0;0.0;0.0;-0.06148799881339073;-0.5055679678916931;1.1633919477462769;0.0;0.0;0.0
659;-0.14737600088119507;-0.370635986328125;1.0362679958343506;-0.06929600238800049;-0.5250880122184753;1.1956000328063965;-19.228124618530273;3.8587498664855957;-16.563751220703125
662;0.0;0.0;0.0;-0.09272000193595886;-0.5397279858589172;1.1916959285736084;0.0;0.0;0.0
664;0.0;0.0;0.0;-0.09662400186061859;-0.5045920014381409;1.207311987876892;0.0;0.0;0.0
666;0.0;0.0;0.0;-0.13176000118255615;-0.5514400005340576;1.2034080028533936;0.0;0.0;0.0
668;-0.2205759882926941;-0.3979640007019043;1.0582280158996582;-0.14347200095653534;-0.5787680149078369;1.1956000328063965;-17.408124923706055;0.6387500166893005;-15.723750114440918
670;0.0;0.0;0.0;-0.1395680010318756;-0.5202080011367798;1.199504017829895;0.0;0.0;0.0
672;0.0;0.0;0.0;-0.11224000155925751;-0.5123999714851379;1.199504017829895;0.0;0.0;0.0
674;0.0;0.0;0.0;-0.12004800140857697;-0.5163040161132812;1.2112159729003906;0.0;0.0;0.0
676;-0.2525399923324585;-0.39064398407936096;1.069208025932312;-0.09662400186061859;-0.5123999714851379;1.2034080028533936;-14.118124961853027;-9.021249771118164;-13.763750076293945
679;0.0;0.0;0.0;-0.12004800140857697;-0.4899519979953766;1.2034080028533936;0.0;0.0;0.0
681;0.0;0.0;0.0;-0.0849120020866394;-0.47043198347091675;1.199504017829895;0.0;0.0;0.0
683;0.0;0.0;0.0;-0.10833600163459778;-0.4352959990501404;1.199504017829895;0.0;0.0;0.0
685;-0.22252799570560455;-0.3398919999599457;1.0696959495544434;-0.10443200170993805;-0.4391999840736389;1.182911992073059;-11.108124732971191;-17.771249771118164;-11.313750267028809
687;0.0;0.0;0.0;-0.09272000193595886;-0.4626239836215973;1.1916959285736084;0.0;0.0;0.0
689;0.0;0.0;0.0;-0.0849120020866394;-0.43139198422431946;1.1877919435501099;0.0;0.0;0.0
691;0.0;0.0;0.0;-0.06148799881339073;-0.43139198422431946;1.175104022026062;0.0;0.0;0.0
693;-0.1978839933872223;-0.3050000071525574;1.0477359294891357;-0.07320000231266022;-0.4274879992008209;1.175104022026062;-8.028124809265137;-20.78125;-9.003750801086426
696;0.0;0.0;0.0;-0.06148799881339073;-0.4382239878177643;1.158511996269226;0.0;0.0;0.0
698;0.0;0.0;0.0;-0.06539200246334076;-0.399183988571167;1.1546080112457275;0.0;0.0;0.0
700;0.0;0.0;0.0;-0.049775999039411545;-0.4030880033969879;1.150704026222229;0.0;0.0;0.0
702;-0.1856839954853058;-0.2803559899330139;1.0265079736709595;-0.06148799881339073;-0.387472003698349;1.1428959369659424;-4.10812520980835;-19.521249771118164;-5.923749923706055
704;0.0;0.0;0.0;-0.045871999114751816;-0.3718560039997101;1.158511996269226;0.0;0.0;0.0
706;0.0;0.0;0.0;-0.014639999717473984;-0.3445279896259308;1.1712000370025635;0.0;0.0;0.0
708;0.0;0.0;0.0;-0.03806399926543236;-0.34062400460243225;1.1956000328063965;0.0;0.0;0.0
710;-0.1634799987077713;-0.22594399750232697;1.0352920293807983;-0.022447999566793442;-0.32500800490379333;1.1712000370025635;-0.46812501549720764;-16.44124984741211;-1.2337499856948853
713;0.0;0.0;0.0;-0.053679998964071274;-0.3172000050544739;1.1916959285736084;0.0;0.0;0.0
715;0.0;0.0;0.0;-0.053679998964071274;-0.33671998977661133;1.1672959327697754;0.0;0.0;0.0
717;0.0;0.0;0.0;-0.053679998964071274;-0.3172000050544739;1.1712000370025635;0.0;0.0;0.0
719;-0.15957599878311157;-0.1925159990787506;1.0479799509048462;-0.03806399926543236;-0.28596800565719604;1.1916959285736084;1.2818750143051147;-13.571249961853027;4.43625020980835
721;0.0;0.0;0.0;-0.0302559994161129;-0.2820639908313751;1.1956000328063965;0.0;0.0;0.0
723;0.0;0.0;0.0;-0.02635199949145317;-0.2664479911327362;1.1633919477462769;0.0;0.0;0.0
725;0.0;0.0;0.0;-0.0302559994161129;-0.2898719906806946;1.175104022026062;0.0;0.0;0.0
727;-0.15079200267791748;-0.15054799616336823;1.0579839944839478;-0.03415999934077263;-0.28596800565719604;1.1712000370025635;1.6318750381469727;-10.771249771118164;8.636249542236328
730;0.0;0.0;0.0;-0.010735999792814255;-0.3211039900779724;1.1633919477462769;0.0;0.0;0.0
732;0.0;0.0;0.0;-0.045871999114751816;-0.30158400535583496;1.175104022026062;0.0;0.0;0.0
734;0.0;0.0;0.0;-0.04196799919009209;-0.3172000050544739;1.1712000370025635;0.0;0.0;0.0
736;-0.1546960026025772;-0.1668960005044937;1.0426119565963745;-0.057583998888731;-0.3445279896259308;1.1546080112457275;0.37187498807907104;-5.661250114440918;7.096250057220459
738;0.0;0.0;0.0;-0.04196799919009209;-0.3093920052051544;1.175104022026062;0.0;0.0;0.0
740;0.0;0.0;0.0;-0.053679998964071274;-0.3054879903793335;1.199504017829895;0.0;0.0;0.0
742;0.0;0.0;0.0;-0.08100800216197968;-0.24692799150943756;1.1916959285736084;0.0;0.0;0.0
744;-0.187391996383667;-0.15664799511432648;1.0670119524002075;-0.07710400223731995;-0.27425599098205566;1.2160959243774414;1.0018750429153442;-3.1412501335144043;5.206250190734863
747;0.0;0.0;0.0;-0.12004800140857697;-0.21276798844337463;1.207311987876892;0.0;0.0;0.0
749;0.0;0.0;0.0;-0.13176000118255615;-0.2479040026664734;1.2522079944610596;0.0;0.0;0.0
751;0.0;0.0;0.0;-0.12785600125789642;-0.24009600281715393;1.2160959243774414;0.0;0.0;0.0
753;-0.24131599068641663;-0.10955599695444107;1.1011719703674316;-0.15811198949813843;-0.24009600281715393;1.2356159687042236;0.37187498807907104;-7.761250019073486;9.196249961853027
755;0.0;0.0;0.0;-0.10443200170993805;-0.23228800296783447;1.2200000286102295;0.0;0.0;0.0
757;0.0;0.0;0.0;-0.10443200170993805;-0.2088640034198761;1.2160959243774414;0.0;0.0;0.0
759;0.0;0.0;0.0;-0.08100800216197968;-0.19715198874473572;1.207311987876892;0.0;0.0;0.0
761;-0.2227720022201538;-0.08247199654579163;1.0921440124511719;-0.06929600238800049;-0.19324800372123718;1.2404959201812744;1.071874976158142;-13.851249694824219;13.326250076293945
764;0.0;0.0;0.0;-0.06929600238800049;-0.20788799226284027;1.248304009437561;0.0;0.0;0.0
766;0.0;0.0;0.0;-0.014639999717473984;-0.21569599211215973;1.182911992073059;0.0;0.0;0.0
768;0.0;0.0;0.0;-0.006831999868154526;-0.19617599248886108;1.207311987876892;0.0;0.0;0.0
770;-0.16152799129486084;-0.07197999954223633;1.071403980255127;-0.03415999934077263;-0.2235039919614792;1.1790080070495605;1.70187509059906;-16.021249771118164;17.876249313354492
772;0.0;0.0;0.0;-0.0302559994161129;-0.23131199181079865;1.1672959327697754;0.0;0.0;0.0
774;0.0;0.0;0.0;-0.010735999792814255;-0.22740799188613892;1.182911992073059;0.0;0.0;0.0
776;0.0;0.0;0.0;0.004879999905824661;-0.19227199256420135;1.1916959285736084;0.0;0.0;0.0
778;-0.12614800035953522;-0.07930000126361847;1.051151990890503;-0.006831999868154526;-0.1844639927148819;1.1672959327697754;3.9418749809265137;-14.761250495910645;19.346250534057617
781;0.0;0.0;0.0;-0.018543999642133713;-0.2000799924135208;1.1956000328063965;0.0;0.0;0.0
783;0.0;0.0;0.0;-0.014639999717473984;-0.2000799924135208;1.1790080070495605;0.0;0.0;0.0
785;0.0;0.0;0.0;-0.006831999868154526;-0.1727519929409027;1.1877919435501099;0.0;0.0;0.0
787;-0.12126799672842026;-0.05392399802803993;1.060912013053894;0.0009759999811649323;-0.16884799301624298;1.182911992073059;6.461874961853027;-15.251250267028809;21.44624900817871
789;0.0;0.0;0.0;-0.006831999868154526;-0.16884799301624298;1.182911992073059;0.0;0.0;0.0
791;0.0;0.0;0.0;0.024399999529123306;-0.16494399309158325;1.1868159770965576;0.0;0.0;0.0
793;0.0;0.0;0.0;0.004879999905824661;-0.16884799301624298;1.182911992073059;0.0;0.0;0.0
795;-0.1000399962067604;-0.02903600037097931;1.0645719766616821;0.05563199892640114;-0.15323199331760406;1.1916959285736084;6.811874866485596;-17.21124839782715;24.176250457763672
798;0.0;0.0;0.0;0.04684799909591675;-0.16884799301624298;1.1887680292129517;0.0;0.0;0.0
800;0.0;0.0;0.0;0.07417599856853485;-0.1571359932422638;1.1965759992599487;0.0;0.0;0.0
802;0.0;0.0;0.0;0.07807999849319458;-0.1298079937696457;1.1965759992599487;0.0;0.0;0.0
804;-0.04806799814105034;-0.014639999717473984;1.0521279573440552;0.08198399841785431;-0.10247999429702759;1.1721760034561157;6.321875095367432;-15.881250381469727;26.206249237060547
806;0.0;0.0;0.0;0.10540799796581268;-0.12199999392032623;1.2043839693069458;0.0;0.0;0.0
808;0.0;0.0;0.0;0.12883199751377106;-0.11028799414634705;1.1887680292129517;0.0;0.0;0.0
810;0.0;0.0;0.0;0.11711999773979187;-0.10247999429702759;1.1760799884796143;0.0;0.0;0.0
812;0.0004879999905824661;0.010979999788105488;1.0589599609375;0.1327359974384308;-0.1298079937696457;1.2043839693069458;5.621874809265137;-11.471250534057617;28.026248931884766
815;0.0;0.0;0.0;0.17958399653434753;-0.12199999392032623;1.1389919519424438;0.0;0.0;0.0
817;0.0;0.0;0.0;0.15225599706172943;-0.12590399384498596;1.1672959327697754;0.0;0.0;0.0
819;0.0;0.0;0.0;0.15615999698638916;-0.1298079937696457;1.1712000370025635;0.0;0.0;0.0
821;0.030743999406695366;0.010003999806940556;1.0455399751663208;0.1600639969110489;-0.11028799414634705;1.1712000370025635;5.061874866485596;-3.6312501430511475;28.306249618530273
823;0.0;0.0;0.0;0.1600639969110489;-0.10247999429702759;1.1916959285736084;0.0;0.0;0.0
825;0.0;0.0;0.0;0.16396799683570862;-0.1180959939956665;1.182911992073059;0.0;0.0;0.0
827;0.0;0.0;0.0;0.1600639969110489;-0.1180959939956665;1.2121919393539429;0.0;0.0;0.0
829;0.034648001194000244;0.030499998480081558;1.0628639459609985;0.14054399728775024;-0.08295999467372894;1.1956000328063965;3.9418749809265137;2.038749933242798;25.716249465942383
832;0.0;0.0;0.0;0.16396799683570862;-0.05660799890756607;1.1916959285736084;0.0;0.0;0.0
834;0.0;0.0;0.0;0.18348799645900726;-0.06441599875688553;1.2034080028533936;0.0;0.0;0.0
836;0.0;0.0;0.0;0.21862399578094482;-0.037087999284267426;1.199504017829895;0.0;0.0;0.0
838;0.06392800062894821;0.07466399669647217;1.0726239681243896;0.19519999623298645;-0.040991999208927155;1.2160959243774414;2.051874876022339;4.488749980926514;23.546249389648438
840;0.0;0.0;0.0;0.19129599630832672;-0.029279999434947968;1.1956000328063965;0.0;0.0;0.0
842;0.0;0.0;0.0;0.187391996383667;-0.02537599951028824;1.2034080028533936;0.0;0.0;0.0
844;0.0;0.0;0.0;0.187391996383667;-0.02537599951028824;1.199504017829895;0.0;0.0;0.0
846;0.07807999849319458;0.10247999429702759;1.073356032371521;0.18348799645900726;-0.01756799966096878;1.1790080070495605;0.16187499463558197;6.728750228881836;24.0362491607666
849;0.0;0.0;0.0;0.19910399615764618;-0.03611199930310249;1.1916959285736084;0.0;0.0;0.0
851;0.0;0.0;0.0;0.17958399653434753;-0.04001599922776222;1.1956000328063965;0.0;0.0;0.0
853;0.0;0.0;0.0;0.17177599668502808;-0.020495999604463577;1.199504017829895;0.0;0.0;0.0
855;0.06856399774551392;0.10613999515771866;1.0645719766616821;0.2030079960823059;-0.01268799975514412;1.1916959285736084;-1.238124966621399;9.178750038146973;26.06624984741211
857;0.0;0.0;0.0;0.17958399653434753;-0.01659199967980385;1.1790080070495605;0.0;0.0;0.0
859;0.0;0.0;0.0;0.1483519971370697;0.010735999792814255;1.2200000286102295;0.0;0.0;0.0
861;0.0;0.0;0.0;0.21862399578094482;0.010735999792814255;1.2160959243774414;0.0;0.0;0.0
864;0.06612399965524673;0.12834399938583374;1.0801880359649658;0.2147199958562851;0.010735999792814255;1.199504017829895;-2.2881250381469727;11.068750381469727;28.58625030517578
866;0.0;0.0;0.0;0.19519999623298645;-0.01268799975514412;1.2278079986572266;0.0;0.0;0.0
868;0.0;0.0;0.0;0.21081599593162537;-0.028303999453783035;1.248304009437561;0.0;0.0;0.0
870;0.0;0.0;0.0;0.23423999547958374;-0.024399999529123306;1.2404959201812744;0.0;0.0;0.0
872;0.09808799624443054;0.10809199512004852;1.1133719682693481;0.22252799570560455;-0.04001599922776222;1.2522079944610596;-4.738125324249268;14.148750305175781;31.0362491607666
874;0.0;0.0;0.0;0.19129599630832672;-0.05563199892640114;1.256111979484558;0.0;0.0;0.0
876;0.0;0.0;0.0;0.22252799570560455;-0.05953599885106087;1.2522079944610596;0.0;0.0;0.0
878;0.0;0.0;0.0;0.1756799966096878;-0.07515199482440948;1.2356159687042236;0.0;0.0;0.0
880;0.07685999572277069;0.07197999954223633;1.1172759532928467;0.21081599593162537;-0.04782399907708168;1.2356159687042236;-5.718125343322754;14.288749694824219;32.506248474121094
883;0.0;0.0;0.0;0.2030079960823059;-0.05563199892640114;1.231711983680725;0.0;0.0;0.0
885;0.0;0.0;0.0;0.23814399540424347;-0.03611199930310249;1.248304009437561;0.0;0.0;0.0
887;0.0;0.0;0.0;0.19519999623298645;0.0029279999434947968;1.2883199453353882;0.0;0.0;0.0
889;0.09027999639511108;0.09589199721813202;1.1348439455032349;0.23423999547958374;0.006831999868154526;1.2932000160217285;-2.9181251525878906;10.578749656677246;29.076250076293945
891;0.0;0.0;0.0;0.21862399578094482;-0.024399999529123306;1.2844159603118896;0.0;0.0;0.0
893;0.0;0.0;0.0;0.21081599593162537;-0.00878399983048439;1.256111979484558;0.0;0.0;0.0
895;0.0;0.0;0.0;0.26156800985336304;-0.004879999905824661;1.2805119752883911;0.0;0.0;0.0
898;0.12126799672842026;0.1273680031299591;1.140455961227417;0.2967039942741394;-0.004879999905824661;1.256111979484558;-2.148125171661377;7.21875;23.26624870300293
900;0.0;0.0;0.0;0.2967039942741394;0.010735999792814255;1.256111979484558;0.0;0.0;0.0
902;0.0;0.0;0.0;0.34355199337005615;-0.024399999529123306;1.2522079944610596;0.0;0.0;0.0
904;0.0;0.0;0.0;0.28889599442481995;-0.028303999453783035;1.2522079944610596;0.0;0.0;0.0
906;0.17933999001979828;0.1180959939956665;1.1211799383163452;0.230335995554924;-0.032207999378442764;1.2522079944610596;-2.078125;1.7587499618530273;19.276248931884766
908;0.0;0.0;0.0;0.29280000925064087;-0.03611199930310249;1.2200000286102295;0.0;0.0;0.0
910;0.0;0.0;0.0;0.4021120071411133;-0.0634399950504303;1.2404959201812744;0.0;0.0;0.0
912;0.0;0.0;0.0;0.374783992767334;-0.06734399497509003;1.231711983680725;0.0;0.0;0.0
915;0.236191987991333;0.08832799643278122;1.103611946105957;0.3786879777908325;-0.05172799900174141;1.2278079986572266;-2.008125066757202;-0.4112500250339508;10.386249542236328
917;0.0;0.0;0.0;0.436271995306015;-0.07124799489974976;1.2121919393539429;0.0;0.0;0.0
919;0.0;0.0;0.0;0.40991997718811035;-0.05563199892640114;1.2034080028533936;0.0;0.0;0.0
921;0.0;0.0;0.0;0.40991997718811035;-0.0907679945230484;1.199504017829895;0.0;0.0;0.0
923;0.2991439998149872;0.06075599789619446;1.0850679874420166;0.45579198002815247;-0.09467199444770813;1.2160959243774414;-1.5881249904632568;-2.791249990463257;10.806249618530273
925;0.0;0.0;0.0;0.4714079797267914;-0.09857599437236786;1.199504017829895;0.0;0.0;0.0
927;0.0;0.0;0.0;0.4870239794254303;-0.1180959939956665;1.199504017829895;0.0;0.0;0.0
929;0.0;0.0;0.0;0.5494880080223083;-0.12199999392032623;1.223904013633728;0.0;0.0;0.0
932;0.38259199261665344;0.02000799961388111;1.0826280117034912;0.545583963394165;-0.12590399384498596;1.199504017829895;-0.328125;-4.051249980926514;13.81624984741211
934;0.0;0.0;0.0;0.537775993347168;-0.1454239934682846;1.2278079986572266;0.0;0.0;0.0
936;0.0;0.0;0.0;0.545583963394165;-0.1180959939956665;1.1956000328063965;0.0;0.0;0.0
938;0.0;0.0;0.0;0.5065439939498901;-0.08686399459838867;1.2112159729003906;0.0;0.0;0.0
940;0.40406399965286255;0.01439599972218275;1.0765279531478882;0.4635999798774719;-0.0907679945230484;1.1877919435501099;0.44187501072883606;-0.7612499594688416;16.26624870300293
942;0.0;0.0;0.0;0.42846399545669556;-0.0634399950504303;1.1790080070495605;0.0;0.0;0.0
944;0.0;0.0;0.0;0.4440799951553345;-0.04001599922776222;1.1956000328063965;0.0;0.0;0.0
946;0.0;0.0;0.0;0.47921597957611084;-0.05172799900174141;1.2200000286102295;0.0;0.0;0.0
949;0.33598798513412476;0.07490799576044083;1.0618879795074463;0.4714079797267914;-0.05172799900174141;1.2160959243774414;1.9818750619888306;-1.4612500667572021;14.0962495803833
951;0.0;0.0;0.0;0.4714079797267914;-0.04782399907708168;1.207311987876892;0.0;0.0;0.0
953;0.0;0.0;0.0;0.5026400089263916;-0.05563199892640114;1.207311987876892;0.0;0.0;0.0
955;0.0;0.0;0.0;0.4909279942512512;-0.04001599922776222;1.1956000328063965;0.0;0.0;0.0
957;0.3655119836330414;0.0832040011882782;1.0723799467086792;0.5104479789733887;-0.05172799900174141;1.1916959285736084;0.5818750262260437;0.5687500238418579;10.5962495803833
959;0.0;0.0;0.0;0.47921597957611084;-0.04391999915242195;1.199504017829895;0.0;0.0;0.0
961;0.0;0.0;0.0;0.4635999798774719;-0.08686399459838867;1.1877919435501099;0.0;0.0;0.0
963;0.0;0.0;0.0;0.5026400089263916;-0.04391999915242195;1.1956000328063965;0.0;0.0;0.0
966;0.35648399591445923;0.07807999849319458;1.048467993736267;0.4323679804801941;-0.05172799900174141;1.1302080154418945;-2.9881250858306885;2.668750047683716;14.726249694824219
968;0.0;0.0;0.0;0.49483197927474976;-0.07515199482440948;1.1058080196380615;0.0;0.0;0.0
970;0.0;0.0;0.0;0.44017598032951355;-0.0634399950504303;1.1350879669189453;0.0;0.0;0.0
972;0.0;0.0;0.0;0.436271995306015;-0.08295999467372894;1.101904034614563;0.0;0.0;0.0
974;0.3442839980125427;0.06465999782085419;0.9891759753227234;0.45579198002815247;-0.0907679945230484;1.0940959453582764;-4.668125152587891;2.3187499046325684;22.076250076293945
976;0.0;0.0;0.0;0.4440799951553345;-0.06734399497509003;1.0940959453582764;0.0;0.0;0.0
978;0.0;0.0;0.0;0.4753119945526123;-0.028303999453783035;1.0657919645309448;0.0;0.0;0.0
980;0.0;0.0;0.0;0.48311999440193176;-0.04782399907708168;1.0775039196014404;0.0;0.0;0.0
983;0.34404000639915466;0.07637199759483337;0.9542839527130127;0.48311999440193176;-0.024399999529123306;1.0579839944839478;-6.418125152587891;3.088749885559082;30.756250381469727
985;0.0;0.0;0.0;0.447983980178833;-0.03611199930310249;1.0491999387741089;0.0;0.0;0.0
987;0.0;0.0;0.0;0.4870239794254303;-0.020495999604463577;1.0696959495544434;0.0;0.0;0.0
989;0.0;0.0;0.0;0.522159993648529;-0.020495999604463577;1.0570080280303955;0.0;0.0;0.0
991;0.36917200684547424;0.09857599437236786;0.932811975479126;0.5182560086250305;-0.03611199930310249;1.0940959453582764;-7.328125;7.708749771118164;35.446250915527344
993;0.0;0.0;0.0;0.5143519639968872;-0.01659199967980385;1.0579839944839478;0.0;0.0;0.0
995;0.0;0.0;0.0;0.5299679636955261;-0.028303999453783035;1.0657919645309448;0.0;0.0;0.0
997;0.0;0.0;0.0;0.5416799783706665;-0.04001599922776222;1.0775039196014404;0.0;0.0;0.0
1000;0.4013800024986267;0.09320800006389618;0.9479399919509888;0.522159993648529;-0.05953599885106087;1.0901919603347778;-8.448124885559082;15.4087495803833;35.446250915527344
1002;0.0;0.0;0.0;0.5299679636955261;-0.040991999208927155;1.097999930381775;0.0;0.0;0.0
1004;0.0;0.0;0.0;0.5260639786720276;-0.08393599838018417;1.097999930381775;0.0;0.0;0.0
1006;0.0;0.0;0.0;0.5182560086250305;-0.07222399860620499;1.1106879711151123;0.0;0.0;0.0
1008;0.4096759855747223;0.0773480013012886;0.9711199998855591;0.5260639786720276;-0.06441599875688553;1.1058080196380615;-9.078125;20.168750762939453;33.83625030517578
1010;0.0;0.0;0.0;0.5572959780693054;-0.04879999905824661;1.1145919561386108;0.0;0.0;0.0
1012;0.0;0.0;0.0;0.5533919930458069;-0.0878399983048439;1.1184959411621094;0.0;0.0;0.0
1014;0.0;0.0;0.0;0.5651040077209473;-0.13468798995018005;1.101904034614563;0.0;0.0;0.0
1017;0.43944400548934937;0.035868000239133835;0.985759973526001;0.5572959780693054;-0.13859200477600098;1.0814080238342285;-9.148124694824219;22.758750915527344;30.40625
1019;0.0;0.0;0.0;0.5963360071182251;-0.13761599361896515;1.1106879711151123;0.0;0.0;0.0
1021;0.0;0.0;0.0;0.6002399921417236;-0.1727519929409027;1.0814080238342285;0.0;0.0;0.0
1023;0.0;0.0;0.0;0.5963360071182251;-0.1844639927148819;1.0814080238342285;0.0;0.0;0.0
1025;0.4811680018901825;-0.0348920002579689;0.9620919823646545;0.6236639618873596;-0.2000799924135208;1.0940959453582764;-6.908124923706055;26.958751678466797;25.506250381469727
1027;0.0;0.0;0.0;0.6002399921417236;-0.21569599211215973;1.0657919645309448;0.0;0.0;0.0
1029;0.0;0.0;0.0;0.6392799615859985;-0.2235039919614792;1.0696959495544434;0.0;0.0;0.0
1031;0.0;0.0;0.0;0.6314719915390015;-0.2235039919614792;1.0618879795074463;0.0;0.0;0.0
1034;0.5072759985923767;-0.08417999744415283;0.9452559947967529;0.6539199948310852;-0.30158400535583496;1.0901919603347778;-0.8181250095367432;34.938751220703125;19.346250534057617
1036;0.0;0.0;0.0;0.6568480134010315;-0.44603198766708374;1.0052800178527832;0.0;0.0;0.0
1038;0.0;0.0;0.0;0.5289919972419739;-0.21569599211215973;1.0745760202407837;0.0;0.0;0.0
1040;0.0;0.0;0.0;0.49775999784469604;-0.10638399422168732;1.1438720226287842;0.0;0.0;0.0
1042;0.4579879939556122;-0.12248799949884415;0.9474520087242126;0.5289919972419739;-0.16494399309158325;1.1233760118484497;10.311875343322754;42.91875076293945;13.606249809265137
1044;0.0;0.0;0.0;0.513375997543335;-0.16103999316692352;1.1350879669189453;0.0;0.0;0.0
1046;0.0;0.0;0.0;0.5563200116157532;-0.19617599248886108;1.1067839860916138;0.0;0.0;0.0
1048;0.0;0.0;0.0;0.5016639828681946;-0.19617599248886108;1.1067839860916138;0.0;0.0;0.0
1051;0.4001599848270416;-0.04416399821639061;0.9806360006332397;0.4626239836215973;-0.20398399233818054;1.0989760160446167;12.971875190734863;42.848751068115234;6.046249866485596
1053;0.0;0.0;0.0;0.42846399545669556;-0.23521599173545837;1.0491999387741089;0.0;0.0;0.0
1055;0.0;0.0;0.0;0.3630719780921936;-0.28596800565719604;1.0247999429702759;0.0;0.0;0.0
1057;0.0;0.0;0.0;0.3357439935207367;-0.27425599098205566;1.0208959579467773;0.0;0.0;0.0
1059;0.2564440071582794;-0.1332239955663681;0.9047519564628601;0.29280000925064087;-0.3054879903793335;1.0208959579467773;15.001875877380371;35.28874969482422;6.886250019073486
1061;0.0;0.0;0.0;0.26156800985336304;-0.32891198992729187;0.9925919771194458;0.0;0.0;0.0
1063;0.0;0.0;0.0;0.2693759799003601;-0.3211039900779724;0.9886879920959473;0.0;0.0;0.0
1065;0.0;0.0;0.0;0.31622397899627686;-0.3093920052051544;0.9925919771194458;0.0;0.0;0.0
1068;0.1727519929409027;-0.1903200000524521;0.8705919981002808;0.34355199337005615;-0.32500800490379333;1.0335839986801147;20.951875686645508;19.888750076293945;4.366250038146973
1070;0.0;0.0;0.0;0.3669759929180145;-0.27035200595855713;1.0374879837036133;0.0;0.0;0.0
1072;0.0;0.0;0.0;0.41284799575805664;-0.28596800565719604;1.0618879795074463;0.0;0.0;0.0
1074;0.0;0.0;0.0;0.4167519807815552;-0.2664479911327362;1.0374879837036133;0.0;0.0;0.0
1076;0.2705959975719452;-0.1559159904718399;0.9123159646987915;0.42553597688674927;-0.2547360062599182;1.0657919645309448;22.49187469482422;7.708749771118164;4.366250038146973
1078;0.0;0.0;0.0;0.4753119945526123;-0.3093920052051544;1.0657919645309448;0.0;0.0;0.0
1080;0.0;0.0;0.0;0.44017598032951355;-0.2937760055065155;1.0413919687271118;0.0;0.0;0.0
1083;0.0;0.0;0.0;0.4635999798774719;-0.3054879903793335;1.0491999387741089;0.0;0.0;0.0
1085;0.32915598154067993;-0.15860000252723694;0.9167079925537109;0.4596959948539734;-0.29767999053001404;1.0491999387741089;18.2918758392334;2.9487500190734863;4.576250076293945
1087;0.0;0.0;0.0;0.447983980178833;-0.34062400460243225;1.0657919645309448;0.0;0.0;0.0
1089;0.0;0.0;0.0;0.4635999798774719;-0.3211039900779724;1.0657919645309448;0.0;0.0;0.0
1091;0.0;0.0;0.0;0.40991997718811035;-0.32500800490379333;1.0775039196014404;0.0;0.0;0.0
1093;0.3230559825897217;-0.1920280009508133;0.9372040033340454;0.4596959948539734;-0.32500800490379333;1.0775039196014404;13.181875228881836;0.07874999940395355;1.006250023841858
1095;0.0;0.0;0.0;0.4060159921646118;-0.32500800490379333;1.0775039196014404;0.0;0.0;0.0
1097;0.0;0.0;0.0;0.4714079797267914;-0.3172000050544739;1.073599934577942;0.0;0.0;0.0
1100;0.0;0.0;0.0;0.44017598032951355;-0.32500800490379333;1.073599934577942;0.0;0.0;0.0
1102;0.3369639813899994;-0.19690799713134766;0.9481839537620544;0.5026400089263916;-0.34062400460243225;1.0940959453582764;9.331875801086426;-0.4112500250339508;-4.383749961853027
1104;0.0;0.0;0.0;0.447983980178833;-0.3445279896259308;1.0657919645309448;0.0;0.0;0.0
1106;0.0;0.0;0.0;0.4987359941005707;-0.35624000430107117;1.0491999387741089;0.0;0.0;0.0
1108;0.0;0.0;0.0;0.4753119945526123;-0.2820639908313751;1.1058080196380615;0.0;0.0;0.0
1110;0.3584359884262085;-0.20056799054145813;0.9440360069274902;0.47921597957611084;-0.32500800490379333;1.0413919687271118;7.861875057220459;1.128749966621399;-7.113749980926514
1112;0.0;0.0;0.0;0.45579198002815247;-0.32891198992729187;1.0579839944839478;0.0;0.0;0.0
1114;0.0;0.0;0.0;0.47921597957611084;-0.3718560039997101;1.0452959537506104;0.0;0.0;0.0
1117;0.0;0.0;0.0;0.44017598032951355;-0.36795198917388916;1.0247999429702759;0.0;0.0;0.0
1119;0.3369639813899994;-0.21740399301052094;0.9186599850654602;0.42846399545669556;-0.39137598872184753;1.0287039279937744;7.161874771118164;1.6887500286102295;-7.883749961853027
1121;0.0;0.0;0.0;0.42455998063087463;-0.39528000354766846;1.0335839986801147;0.0;0.0;0.0
1123;0.0;0.0;0.0;0.4206559956073761;-0.4108960032463074;1.0169919729232788;0.0;0.0;0.0
1125;0.0;0.0;0.0;0.42455998063087463;-0.3640480041503906;1.0208959579467773;0.0;0.0;0.0
1127;0.3123199939727783;-0.26254400610923767;0.8940159678459167;0.4167519807815552;-0.39137598872184753;1.0208959579467773;9.891875267028809;-1.2512500286102295;-9.913750648498535
1129;0.0;0.0;0.0;0.39820799231529236;-0.40699198842048645;1.0169919729232788;0.0;0.0;0.0
1131;0.0;0.0;0.0;0.42846399545669556;-0.3757599890232086;1.0335839986801147;0.0;0.0;0.0
1134;0.0;0.0;0.0;0.42846399545669556;-0.35624000430107117;1.0657919645309448;0.0;0.0;0.0
1136;0.3076840043067932;-0.2549799978733063;0.9081679582595825;0.436271995306015;-0.42260798811912537;1.0335839986801147;11.291875839233398;-6.501250267028809;-9.49375057220459
1138;0.0;0.0;0.0;0.3903999924659729;-0.399183988571167;1.0374879837036133;0.0;0.0;0.0
1140;0.0;0.0;0.0;0.3786879777908325;-0.34062400460243225;1.0696959495544434;0.0;0.0;0.0
1142;0.0;0.0;0.0;0.40991997718811035;-0.40699198842048645;1.0130879878997803;0.0;0.0;0.0
1144;0.2776719927787781;-0.2537599802017212;0.9081679582595825;0.39430397748947144;-0.4108960032463074;1.0287039279937744;8.701875686645508;-8.601249694824219;-9.423750877380371
1146;0.0;0.0;0.0;0.3786879777908325;-0.4421280026435852;1.0043039321899414;0.0;0.0;0.0
1148;0.0;0.0;0.0;0.38649600744247437;-0.4265120029449463;1.0169919729232788;0.0;0.0;0.0
1151;0.0;0.0;0.0;0.3669759929180145;-0.42260798811912537;1.0287039279937744;0.0;0.0;0.0
1153;0.25522398948669434;-0.301827996969223;0.8966999650001526;0.3903999924659729;-0.4421280026435852;1.0247999429702759;6.111875057220459;-8.671250343322754;-13.553750991821289
1155;0.0;0.0;0.0;0.374783992767334;-0.4382239878177643;1.0287039279937744;0.0;0.0;0.0
1157;0.0;0.0;0.0;0.3903999924659729;-0.4382239878177643;1.0247999429702759;0.0;0.0;0.0
1159;0.0;0.0;0.0;0.38942399621009827;-0.4147999882698059;1.0452959537506104;0.0;0.0;0.0
1161;0.2671799957752228;-0.301827996969223;0.9076799750328064;0.4050399959087372;-0.4265120029449463;1.0531039237976074;5.901875019073486;-9.651249885559082;-15.373750686645508
1163;0.0;0.0;0.0;0.40113598108291626;-0.4382239878177643;1.0374879837036133;0.0;0.0;0.0
1165;0.0;0.0;0.0;0.40991997718811035;-0.43432000279426575;1.0374879837036133;0.0;0.0;0.0
1168;0.0;0.0;0.0;0.436271995306015;-0.4265120029449463;1.0169919729232788;0.0;0.0;0.0
1170;0.28767600655555725;-0.2967039942741394;0.8930400013923645;0.41284799575805664;-0.4421280026435852;0.9925919771194458;5.201874732971191;-8.251250267028809;-14.18375015258789
1172;0.0;0.0;0.0;0.436271995306015;-0.43432000279426575;1.0130879878997803;0.0;0.0;0.0
1174;0.0;0.0;0.0;0.39820799231529236;-0.4772639870643616;0.9642879962921143;0.0;0.0;0.0
1176;0.0;0.0;0.0;0.4206559956073761;-0.4772639870643616;0.9681919813156128;0.0;0.0;0.0
1178;0.2942639887332916;-0.3286679983139038;0.8586359620094299;0.4167519807815552;-0.47336000204086304;0.9759999513626099;5.831874847412109;-2.791249990463257;-13.623750686645508
1180;0.0;0.0;0.0;0.42163199186325073;-0.5163040161132812;0.9720959663391113;0.0;0.0;0.0
1182;0.0;0.0;0.0;0.38649600744247437;-0.4772639870643616;0.9681919813156128;0.0;0.0;0.0
1185;0.0;0.0;0.0;0.3786879777908325;-0.5084959864616394;0.9515999555587769;0.0;0.0;0.0
1187;0.27303600311279297;-0.35404399037361145;0.8413119912147522;0.3396480083465576;-0.5163040161132812;0.9720959663391113;6.951874732971191;3.8587498664855957;-13.693750381469727
1189;0.0;0.0;0.0;0.37088000774383545;-0.46164798736572266;0.9847840070724487;0.0;0.0;0.0
1191;0.0;0.0;0.0;0.3513599932193756;-0.4694559872150421;0.9720959663391113;0.0;0.0;0.0
1193;0.0;0.0;0.0;0.3630719780921936;-0.4694559872150421;0.9886879920959473;0.0;0.0;0.0
1195;0.2408279925584793;-0.34184399247169495;0.8527799844741821;0.35916799306869507;-0.4772639870643616;0.9847840070724487;6.531875133514404;7.638750076293945;-14.323750495910645
1198;0.0;0.0;0.0;0.3474559783935547;-0.4577440023422241;1.0003999471664429;0.0;0.0;0.0
1199;0.0;0.0;0.0;0.35526400804519653;-0.4967840015888214;0.9964959621429443;0.0;0.0;0.0
1202;0.0;0.0;0.0;0.3513599932193756;-0.4772639870643616;1.0003999471664429;0.0;0.0;0.0
1204;0.2269199937582016;-0.34769999980926514;0.8647359609603882;0.3396480083465576;-0.5163040161132812;0.9847840070724487;4.291874885559082;7.708749771118164;-14.673750877380371
1206;0.0;0.0;0.0;0.31622397899627686;-0.5319200158119202;0.9847840070724487;0.0;0.0;0.0
1208;0.0;0.0;0.0;0.32793599367141724;-0.5084959864616394;0.9964959621429443;0.0;0.0;0.0
1210;0.0;0.0;0.0;0.30060797929763794;-0.5280159711837769;0.9886879920959473;0.0;0.0;0.0
1212;0.20666798949241638;-0.3828359842300415;0.8539999723434448;0.3240320086479187;-0.5397279858589172;0.9925919771194458;1.9118750095367432;5.608749866485596;-16.2137508392334
1215;0.0;0.0;0.0;0.3084160089492798;-0.5280159711837769;0.9847840070724487;0.0;0.0;0.0
1216;0.0;0.0;0.0;0.31622397899627686;-0.5592479705810547;1.0003999471664429;0.0;0.0;0.0
1219;0.0;0.0;0.0;0.3201279938220978;-0.5280159711837769;0.9759999513626099;0.0;0.0;0.0
1221;0.1920280009508133;-0.40162399411201477;0.8566839694976807;0.30060797929763794;-0.5436319708824158;1.0003999471664429;0.44187501072883606;2.528749942779541;-19.083749771118164
1223;0.0;0.0;0.0;0.2840159833431244;-0.5748639702796936;0.9974719882011414;0.0;0.0;0.0
1225;0.0;0.0;0.0;0.3113439977169037;-0.563152015209198;0.985759973526001;0.0;0.0;0.0
1227;0.0;0.0;0.0;0.29182398319244385;-0.586575984954834;0.9730719923973083;0.0;0.0;0.0
1229;0.17885199189186096;-0.42260798811912537;0.8625400066375732;0.27620798349380493;-0.5475360155105591;1.0140639543533325;-0.328125;-0.9712499976158142;-22.23375129699707
1232;0.0;0.0;0.0;0.29182398319244385;-0.5904799699783325;1.010159969329834;0.0;0.0;0.0
1233;0.0;0.0;0.0;0.3113439977169037;-0.5748639702796936;0.9896639585494995;0.0;0.0;0.0
1236;0.0;0.0;0.0;0.3113439977169037;-0.6217119693756104;0.9730719923973083;0.0;0.0;0.0
1238;0.1798280030488968;-0.45457199215888977;0.8574159741401672;0.30353599786758423;-0.5904799699783325;0.9769759774208069;-0.398125022649765;-5.731250286102295;-24.613750457763672
1240;0.0;0.0;0.0;0.3240320086479187;-0.5982879996299744;0.9759999513626099;0.0;0.0;0.0
1242;0.0;0.0;0.0;0.3084160089492798;-0.5904799699783325;0.9886879920959473;0.0;0.0;0.0
1244;0.0;0.0;0.0;0.32793599367141724;-0.6139039993286133;0.9681919813156128;0.0;0.0;0.0
1246;0.19397999346256256;-0.46628397703170776;0.8442400097846985;0.30451199412345886;-0.6100000143051147;0.9515999555587769;-0.18812501430511475;-10.28125;-26.363750457763672
1248;0.0;0.0;0.0;0.29280000925064087;-0.5943840146064758;0.9603840112686157;0.0;0.0;0.0
1251;0.0;0.0;0.0;0.31622397899627686;-0.5982879996299744;0.9681919813156128;0.0;0.0;0.0
1253;0.0;0.0;0.0;0.3123199939727783;-0.6373279690742493;0.9681919813156128;0.0;0.0;0.0
1255;0.1803160011768341;-0.48092398047447205;0.8356999754905701;0.30451199412345886;-0.6256160140037537;0.9603840112686157;-0.398125022649765;-12.731249809265137;-28.533750534057617
1257;0.0;0.0;0.0;0.30451199412345886;-0.6373279690742493;0.9681919813156128;0.0;0.0;0.0
1259;0.0;0.0;0.0;0.32793599367141724;-0.6373279690742493;0.9720959663391113;0.0;0.0;0.0
1261;0.0;0.0;0.0;0.28889599442481995;-0.6178079843521118;0.9603840112686157;0.0;0.0;0.0
1263;0.18470799922943115;-0.4916599988937378;0.8354560136795044;0.30451199412345886;-0.6334239840507507;0.9681919813156128;-1.6581250429153442;-13.081250190734863;-30.563751220703125
1266;0.0;0.0;0.0;0.2810879945755005;-0.6060959696769714;0.9525759816169739;0.0;0.0;0.0
1268;0.0;0.0;0.0;0.2967039942741394;-0.6373279690742493;0.9515999555587769;0.0;0.0;0.0
1270;0.0;0.0;0.0;0.27718400955200195;-0.6256160140037537;0.9564799666404724;0.0;0.0;0.0
1272;0.1751919984817505;-0.4926359951496124;0.8169119954109192;0.2967039942741394;-0.6373279690742493;0.9320799708366394;-2.568125009536743;-12.521249771118164;-32.17375183105469
1274;0.0;0.0;0.0;0.2967039942741394;-0.6295199990272522;0.9320799708366394;0.0;0.0;0.0
1276;0.0;0.0;0.0;0.27327999472618103;-0.6139039993286133;0.9320799708366394;0.0;0.0;0.0
1278;0.0;0.0;0.0;0.3240320086479187;-0.6139039993286133;0.9437919855117798;0.0;0.0;0.0
1280;0.1681160032749176;-0.48482799530029297;0.80349200963974;0.27718400955200195;-0.5904799699783325;0.9154880046844482;-2.9181251525878906;-11.541250228881836;-32.73374938964844
1282;0.0;0.0;0.0;0.284991979598999;-0.5904799699783325;0.9320799708366394;0.0;0.0;0.0
1285;0.0;0.0;0.0;0.29280000925064087;-0.5943840146064758;0.9359839558601379;0.0;0.0;0.0
1287;0.0;0.0;0.0;0.24985599517822266;-0.6060959696769714;0.9193919897079468;0.0;0.0;0.0
1289;0.1571359932422638;-0.4672600030899048;0.8069080114364624;0.2576639950275421;-0.5787680149078369;0.9398880004882812;-4.038125038146973;-8.53125;-33.57374954223633
1291;0.0;0.0;0.0;0.2537599802017212;-0.5709599852561951;0.9232959747314453;0.0;0.0;0.0
1293;0.0;0.0;0.0;0.24595199525356293;-0.5787680149078369;0.9193919897079468;0.0;0.0;0.0
1295;0.0;0.0;0.0;0.23423999547958374;-0.5748639702796936;0.9359839558601379;0.0;0.0;0.0
1297;0.1320039927959442;-0.447983980178833;0.8049559593200684;0.2420479953289032;-0.586575984954834;0.9320799708366394;-5.438125133514404;-3.6312501430511475;-34.973751068115234
1300;0.0;0.0;0.0;0.24985599517822266;-0.5436319708824158;0.9359839558601379;0.0;0.0;0.0
1302;0.0;0.0;0.0;0.20691199600696564;-0.5514400005340576;0.9398880004882812;0.0;0.0;0.0
1304;0.0;0.0;0.0;0.21862399578094482;-0.5475360155105591;0.9398880004882812;0.0;0.0;0.0
1306;0.09711199998855591;-0.436271995306015;0.8115440011024475;0.2030079960823059;-0.5826719999313354;0.9232959747314453;-6.838125228881836;0.5687500238418579;-35.883750915527344
1308;0.0;0.0;0.0;0.21374399960041046;-0.5943840146064758;0.9408639669418335;0.0;0.0;0.0
1310;0.0;0.0;0.0;0.21374399960041046;-0.5982879996299744;0.912559986114502;0.0;0.0;0.0
1312;0.0;0.0;0.0;0.20203199982643127;-0.5904799699783325;0.9574559926986694;0.0;0.0;0.0
1314;0.06929600238800049;-0.44432398676872253;0.8222799897193909;0.1668960005044937;-0.5592479705810547;0.9769759774208069;-8.658124923706055;4.628749847412109;-36.44375228881836
1317;0.0;0.0;0.0;0.15225599706172943;-0.5709599852561951;0.985759973526001;0.0;0.0;0.0
1319;0.0;0.0;0.0;0.12492799758911133;-0.5826719999313354;0.985759973526001;0.0;0.0;0.0
1321;0.0;0.0;0.0;0.1327359974384308;-0.5982879996299744;0.985759973526001;0.0;0.0;0.0
1323;0.018300000578165054;-0.4543280005455017;0.8447279930114746;0.11321599781513214;-0.5904799699783325;0.9691680073738098;-11.038125038146973;8.828749656677246;-36.44375228881836
1325;0.0;0.0;0.0;0.09759999811649323;-0.586575984954834;0.9847840070724487;0.0;0.0;0.0
1327;0.0;0.0;0.0;0.05953599885106087;-0.6100000143051147;1.0130879878997803;0.0;0.0;0.0
1329;0.0;0.0;0.0;0.04782399907708168;-0.5904799699783325;1.0052800178527832;0.0;0.0;0.0
1331;-0.04660400003194809;-0.4736039936542511;0.8688839673995972;0.032207999378442764;-0.6256160140037537;1.0130879878997803;-12.508124351501465;11.418749809265137;-35.67375183105469
1334;0.0;0.0;0.0;0.028303999453783035;-0.6139039993286133;1.0169919729232788;0.0;0.0;0.0
1336;0.0;0.0;0.0;0.028303999453783035;-0.5982879996299744;1.0452959537506104;0.0;0.0;0.0
1338;0.0;0.0;0.0;0.01659199967980385;-0.6412320137023926;1.0130879878997803;0.0;0.0;0.0
1340;-0.09491600096225739;-0.476531982421875;0.8964560031890869;0.004879999905824661;-0.6295199990272522;1.0413919687271118;-12.858124732971191;10.928750038146973;-35.04375076293945
1342;0.0;0.0;0.0;0.024399999529123306;-0.6021919846534729;1.0579839944839478;0.0;0.0;0.0
1344;0.0;0.0;0.0;0.004879999905824661;-0.5982879996299744;1.0618879795074463;0.0;0.0;0.0
1346;0.0;0.0;0.0;-0.04196799919009209;-0.5982879996299744;1.073599934577942;0.0;0.0;0.0
1348;-0.1268799901008606;-0.4789719879627228;0.9311040043830872;-0.0302559994161129;-0.6060959696769714;1.0901919603347778;-12.508124351501465;8.4087495803833;-34.34375
1351;0.0;0.0;0.0;-0.06929600238800049;-0.6060959696769714;1.0618879795074463;0.0;0.0;0.0
1353;0.0;0.0;0.0;-0.07320000231266022;-0.6178079843521118;1.0901919603347778;0.0;0.0;0.0
1355;0.0;0.0;0.0;-0.08100800216197968;-0.6021919846534729;1.073599934577942;0.0;0.0;0.0
1357;-0.1798280030488968;-0.48848798871040344;0.948915958404541;-0.09272000193595886;-0.6217119693756104;1.085312008857727;-11.668124198913574;4.138750076293945;-33.01375198364258
1359;0.0;0.0;0.0;-0.11224000155925751;-0.6178079843521118;1.0775039196014404;0.0;0.0;0.0
1361;0.0;0.0;0.0;-0.07320000231266022;-0.6100000143051147;1.1058080196380615;0.0;0.0;0.0
1363;0.0;0.0;0.0;-0.11614400148391724;-0.6100000143051147;1.0940959453582764;0.0;0.0;0.0
1365;-0.2152079939842224;-0.47921597957611084;0.958187997341156;-0.0849120020866394;-0.6060959696769714;1.1106879711151123;-10.548124313354492;-0.5512499809265137;-32.66374969482422
1368;0.0;0.0;0.0;-0.07710400223731995;-0.5943840146064758;1.122399926185608;0.0;0.0;0.0
1370;0.0;0.0;0.0;-0.09272000193595886;-0.5904799699783325;1.1058080196380615;0.0;0.0;0.0
1372;0.0;0.0;0.0;-0.10833600163459778;-0.5670560002326965;1.1058080196380615;0.0;0.0;0.0
1374;-0.21227999031543732;-0.4467639923095703;0.9764879941940308;-0.09272000193595886;-0.5553439855575562;1.134112000465393;-9.918124198913574;-4.471250057220459;-32.66374969482422
1376;0.0;0.0;0.0;-0.10833600163459778;-0.5709599852561951;1.1389919519424438;0.0;0.0;0.0
1378;0.0;0.0;0.0;-0.10833600163459778;-0.5826719999313354;1.1106879711151123;0.0;0.0;0.0
1380;0.0;0.0;0.0;-0.08100800216197968;-0.5904799699783325;1.126304030418396;0.0;0.0;0.0
1382;-0.2286279946565628;-0.43846797943115234;0.986735999584198;-0.13566400110721588;-0.5553439855575562;1.1058080196380615;-10.058124542236328;-7.481250286102295;-32.383750915527344
1385;0.0;0.0;0.0;-0.10052800178527832;-0.5982879996299744;1.1184959411621094;0.0;0.0;0.0
1387;0.0;0.0;0.0;-0.15518400073051453;-0.5748639702796936;1.0901919603347778;0.0;0.0;0.0
1389;0.0;0.0;0.0;-0.1395680010318756;-0.5787680149078369;1.097999930381775;0.0;0.0;0.0
1391;-0.253028005361557;-0.44237199425697327;0.982587993144989;-0.12004800140857697;-0.5787680149078369;1.122399926185608;-9.98812484741211;-9.931249618530273;-31.543750762939453
1393;0.0;0.0;0.0;-0.14347200095653534;-0.5514400005340576;1.1194720268249512;0.0;0.0;0.0
1395;0.0;0.0;0.0;-0.14737600088119507;-0.586575984954834;1.1194720268249512;0.0;0.0;0.0
1397;0.0;0.0;0.0;-0.15908800065517426;-0.5319200158119202;1.1116639375686646;0.0;0.0;0.0
1399;-0.284991979598999;-0.4269999861717224;0.9864919781684875;-0.20983999967575073;-0.5709599852561951;1.1067839860916138;-10.33812427520752;-11.19124984741211;-29.583749771118164
1402;0.0;0.0;0.0;-0.1786080002784729;-0.5475360155105591;1.1028800010681152;0.0;0.0;0.0
1404;0.0;0.0;0.0;-0.20203199982643127;-0.5475360155105591;1.1311839818954468;0.0;0.0;0.0
1406;0.0;0.0;0.0;-0.20983999967575073;-0.5748639702796936;1.1272799968719482;0.0;0.0;0.0
1408;-0.31378400325775146;-0.43602800369262695;0.9882000088691711;-0.19812799990177155;-0.5670560002326965;1.1311839818954468;-10.478124618530273;-11.19124984741211;-27.063751220703125
1410;0.0;0.0;0.0;-0.20495998859405518;-0.6021919846534729;1.122399926185608;0.0;0.0;0.0
1412;0.0;0.0;0.0;-0.22448000311851501;-0.5787680149078369;1.122399926185608;0.0;0.0;0.0
1414;0.0;0.0;0.0;-0.21667200326919556;-0.5904799699783325;1.126304030418396;0.0;0.0;0.0
1416;-0.34233200550079346;-0.44773998856544495;0.9967399835586548;-0.2518079876899719;-0.5748639702796936;1.1546080112457275;-9.42812442779541;-9.721250534057617;-23.14375114440918
1419;0.0;0.0;0.0;-0.2752319872379303;-0.5709599852561951;1.1546080112457275;0.0;0.0;0.0
1421;0.0;0.0;0.0;-0.2479040026664734;-0.5787680149078369;1.126304030418396;0.0;0.0;0.0
1423;0.0;0.0;0.0;-0.2518079876899719;-0.563152015209198;1.158511996269226;0.0;0.0;0.0
1425;-0.3903999924659729;-0.44359198212623596;1.0218719244003296;-0.27132800221443176;-0.5670560002326965;1.1428959369659424;-6.838125228881836;-11.611249923706055;-17.613750457763672
1427;0.0;0.0;0.0;-0.27132800221443176;-0.5748639702796936;1.1672959327697754;0.0;0.0;0.0
1429;0.0;0.0;0.0;-0.2635200023651123;-0.5670560002326965;1.158511996269226;0.0;0.0;0.0
1431;0.0;0.0;0.0;-0.2752319872379303;-0.5592479705810547;1.1546080112457275;0.0;0.0;0.0
1433;-0.39357200264930725;-0.43187999725341797;1.0318759679794312;-0.2518079876899719;-0.563152015209198;1.150704026222229;-3.408125162124634;-18.401248931884766;-12.013750076293945
1436;0.0;0.0;0.0;-0.24399998784065247;-0.5670560002326965;1.1428959369659424;0.0;0.0;0.0
1438;0.0;0.0;0.0;-0.24399998784065247;-0.5123999714851379;1.1389919519424438;0.0;0.0;0.0
1440;0.0;0.0;0.0;-0.22448000311851501;-0.5475360155105591;1.1428959369659424;0.0;0.0;0.0
1442;-0.36038798093795776;-0.4248040020465851;1.0130879878997803;-0.19324800372123718;-0.5553439855575562;1.1302080154418945;1.4918750524520874;-27.57124900817871;-8.023750305175781
1444;0.0;0.0;0.0;-0.15811198949813843;-0.5475360155105591;1.1389919519424438;0.0;0.0;0.0
1446;0.0;0.0;0.0;-0.16201600432395935;-0.5748639702796936;1.122399926185608;0.0;0.0;0.0
1448;0.0;0.0;0.0;-0.12785600125789642;-0.5397279858589172;1.0940959453582764;0.0;0.0;0.0
1450;-0.28547999262809753;-0.4189479947090149;0.9862479567527771;-0.12785600125789642;-0.5514400005340576;1.122399926185608;6.601874828338623;-33.80125045776367;-6.763750076293945
1453;0.0;0.0;0.0;-0.11224000155925751;-0.5436319708824158;1.1058080196380615;0.0;0.0;0.0
1455;0.0;0.0;0.0;-0.09272000193595886;-0.5553439855575562;1.1184959411621094;0.0;0.0;0.0
1457;0.0;0.0;0.0;-0.09662400186061859;-0.5319200158119202;1.101904034614563;0.0;0.0;0.0
1459;-0.21886800229549408;-0.4038199782371521;0.97843998670578;-0.08100800216197968;-0.5280159711837769;1.0940959453582764;9.471875190734863;-35.411251068115234;-6.413750171661377
1461;0.0;0.0;0.0;-0.06929600238800049;-0.5397279858589172;1.1145919561386108;0.0;0.0;0.0
1463;0.0;0.0;0.0;-0.06148799881339073;-0.5123999714851379;1.1145919561386108;0.0;0.0;0.0
1465;0.0;0.0;0.0;-0.03806399926543236;-0.5084959864616394;1.101904034614563;0.0;0.0;0.0
1467;-0.1722639948129654;-0.3816159963607788;0.9762439727783203;-0.014639999717473984;-0.4928799867630005;1.0901919603347778;8.631875038146973;-34.36124801635742;-6.273749828338623
1470;0.0;0.0;0.0;-0.014639999717473984;-0.5006880164146423;1.122399926185608;0.0;0.0;0.0
1472;0.0;0.0;0.0;-0.010735999792814255;-0.47336000204086304;1.1145919561386108;0.0;0.0;0.0
1474;0.0;0.0;0.0;0.020495999604463577;-0.48897600173950195;1.097999930381775;0.0;0.0;0.0
1476;-0.11834000051021576;-0.358924001455307;0.973315954208374;0.024399999529123306;-0.48897600173950195;1.0862879753112793;5.691874980926514;-29.951250076293945;-6.203750133514404
1478;0.0;0.0;0.0;0.020495999604463577;-0.4811680018901825;1.10971200466156;0.0;0.0;0.0
1480;0.0;0.0;0.0;0.004879999905824661;-0.4967840015888214;1.1184959411621094;0.0;0.0;0.0
1482;0.0;0.0;0.0;-0.010735999792814255;-0.4772639870643616;1.1106879711151123;0.0;0.0;0.0
1484;-0.11297199875116348;-0.3652679920196533;0.9772199988365173;0.00878399983048439;-0.5163040161132812;1.1058080196380615;2.3318748474121094;-24.001249313354492;-6.483749866485596
1487;0.0;0.0;0.0;-0.006831999868154526;-0.5123999714851379;1.1302080154418945;0.0;0.0;0.0
1489;0.0;0.0;0.0;-0.03415999934077263;-0.5006880164146423;1.1058080196380615;0.0;0.0;0.0
1491;0.0;0.0;0.0;-0.014639999717473984;-0.5045920014381409;1.122399926185608;0.0;0.0;0.0
1493;-0.1500599980354309;-0.3757599890232086;0.9877119660377502;-0.057583998888731;-0.5045920014381409;1.122399926185608;-0.7481249570846558;-21.48124885559082;-5.853750228881836
1495;0.0;0.0;0.0;-0.045871999114751816;-0.48897600173950195;1.126304030418396;0.0;0.0;0.0
1497;0.0;0.0;0.0;-0.018543999642133713;-0.4538399875164032;1.126304030418396;0.0;0.0;0.0
1499;0.0;0.0;0.0;-0.022447999566793442;-0.4655520021915436;1.1389919519424438;0.0;0.0;0.0
1501;-0.15689200162887573;-0.346235990524292;1.0172359943389893;-0.010735999792814255;-0.4694559872150421;1.1633919477462769;-4.318125247955322;-21.831249237060547;-5.433750152587891
1504;0.0;0.0;0.0;-0.022447999566793442;-0.4655520021915436;1.1712000370025635;0.0;0.0;0.0
1506;0.0;0.0;0.0;-0.02635199949145317;-0.4577440023422241;1.1633919477462769;0.0;0.0;0.0
1508;0.0;0.0;0.0;-0.03806399926543236;-0.44603198766708374;1.1712000370025635;0.0;0.0;0.0
1510;-0.14932799339294434;-0.32427600026130676;1.0369999408721924;-0.04196799919009209;-0.4577440023422241;1.158511996269226;-7.258125305175781;-20.221248626708984;-3.1237499713897705
1512;0.0;0.0;0.0;-0.053679998964071274;-0.44993600249290466;1.175104022026062;0.0;0.0;0.0
1514;0.0;0.0;0.0;-0.04196799919009209;-0.4304159879684448;1.1672959327697754;0.0;0.0;0.0
1516;0.0;0.0;0.0;-0.057583998888731;-0.44993600249290466;1.158511996269226;0.0;0.0;0.0
1518;-0.16713999211788177;-0.31158798933029175;1.0389519929885864;-0.03806399926543236;-0.4304159879684448;1.1546080112457275;-7.398125171661377;-16.721248626708984;0.5162500143051147
1521;0.0;0.0;0.0;-0.03415999934077263;-0.4108960032463074;1.175104022026062;0.0;0.0;0.0
1523;0.0;0.0;0.0;-0.053679998964071274;-0.4108960032463074;1.158511996269226;0.0;0.0;0.0
1525;0.0;0.0;0.0;-0.045871999114751816;-0.4108960032463074;1.1672959327697754;0.0;0.0;0.0
1527;-0.15640400350093842;-0.29060399532318115;1.0348039865493774;-0.018543999642133713;-0.4030880033969879;1.1672959327697754;-4.038125038146973;-13.221250534057617;5.556250095367432
1529;0.0;0.0;0.0;-0.010735999792814255;-0.42260798811912537;1.158511996269226;0.0;0.0;0.0
1531;0.0;0.0;0.0;-0.010735999792814255;-0.39137598872184753;1.150704026222229;0.0;0.0;0.0
1533;0.0;0.0;0.0;0.0009759999811649323;-0.39528000354766846;1.146799921989441;0.0;0.0;0.0
1535;-0.1193159967660904;-0.26962000131607056;1.02211594581604;0.032207999378442764;-0.39137598872184753;1.1389919519424438;1.2818750143051147;-8.951250076293945;10.946249961853027
1538;0.0;0.0;0.0;0.028303999453783035;-0.4108960032463074;1.122399926185608;0.0;0.0;0.0
1540;0.0;0.0;0.0;0.028303999453783035;-0.40699198842048645;1.146799921989441;0.0;0.0;0.0
1542;0.0;0.0;0.0;0.04782399907708168;-0.37966400384902954;1.1058080196380615;0.0;0.0;0.0
1544;-0.08417999744415283;-0.2635200023651123;1.0033279657363892;0.05953599885106087;-0.4108960032463074;1.1389919519424438;6.251874923706055;-4.471250057220459;15.986249923706055
1546;0.0;0.0;0.0;0.04782399907708168;-0.399183988571167;1.1145919561386108;0.0;0.0;0.0
1548;0.0;0.0;0.0;0.07515199482440948;-0.4108960032463074;1.1184959411621094;0.0;0.0;0.0
1550;0.0;0.0;0.0;0.05172799900174141;-0.387472003698349;1.134112000465393;0.0;0.0;0.0
1552;-0.06758800148963928;-0.264739990234375;1.0011320114135742;0.0634399950504303;-0.39528000354766846;1.1302080154418945;9.051875114440918;-0.5512499809265137;18.506250381469727
1555;0.0;0.0;0.0;0.04782399907708168;-0.4147999882698059;1.150704026222229;0.0;0.0;0.0
1557;0.0;0.0;0.0;0.0634399950504303;-0.4108960032463074;1.134112000465393;0.0;0.0;0.0
1559;0.0;0.0;0.0;0.04391999915242195;-0.4108960032463074;1.1672959327697754;0.0;0.0;0.0
1561;-0.07027199864387512;-0.27840399742126465;1.0133320093154907;0.04782399907708168;-0.41870400309562683;1.1428959369659424;8.631875038146973;0.8487500548362732;19.90625
1563;0.0;0.0;0.0;0.015615999698638916;-0.387472003698349;1.1887680292129517;0.0;0.0;0.0
1565;0.0;0.0;0.0;0.058559998869895935;-0.41870400309562683;1.1643680334091187;0.0;0.0;0.0
1567;0.0;0.0;0.0;0.054655998945236206;-0.3835679888725281;1.1965759992599487;0.0;0.0;0.0
1569;-0.07368800044059753;-0.2683999836444855;1.0523719787597656;0.054655998945236206;-0.39528000354766846;1.2004799842834473;7.581874847412109;-1.881250023841858;20.5362491607666
1572;0.0;0.0;0.0;0.0663679987192154;-0.40699198842048645;1.2131680250167847;0.0;0.0;0.0
1574;0.0;0.0;0.0;0.03903999924659729;-0.3718560039997101;1.2492799758911133;0.0;0.0;0.0
1576;0.0;0.0;0.0;0.062463998794555664;-0.3484320044517517;1.2414720058441162;0.0;0.0;0.0
1578;-0.06685599684715271;-0.23716799914836884;1.1028800010681152;0.07027199864387512;-0.3445279896259308;1.2531839609146118;5.831874847412109;-8.671250343322754;20.116249084472656
1580;0.0;0.0;0.0;0.06734399497509003;-0.35624000430107117;1.2444000244140625;0.0;0.0;0.0
1582;0.0;0.0;0.0;0.05172799900174141;-0.32891198992729187;1.2444000244140625;0.0;0.0;0.0
1584;0.0;0.0;0.0;0.0634399950504303;-0.3054879903793335;1.272704005241394;0.0;0.0;0.0
1586;-0.04562800005078316;-0.20642399787902832;1.1245959997177124;0.07515199482440948;-0.3054879903793335;1.2688000202178955;5.971874713897705;-18.681249618530273;18.506250381469727
1589;0.0;0.0;0.0;0.10540799796581268;-0.3172000050544739;1.2688000202178955;0.0;0.0;0.0
1591;0.0;0.0;0.0;0.1180959939956665;-0.28596800565719604;1.248304009437561;0.0;0.0;0.0
1593;0.0;0.0;0.0;0.14054399728775024;-0.3093920052051544;1.2444000244140625;0.0;0.0;0.0
1595;0.0004879999905824661;-0.16030800342559814;1.1187399625778198;0.12883199751377106;-0.29767999053001404;1.248304009437561;7.581874847412109;-27.291248321533203;16.26624870300293
1597;0.0;0.0;0.0;0.14054399728775024;-0.2781600058078766;1.2034080028533936;0.0;0.0;0.0
1599;0.0;0.0;0.0;0.15225599706172943;-0.2820639908313751;1.1877919435501099;0.0;0.0;0.0
1601;0.0;0.0;0.0;0.17177599668502808;-0.2781600058078766;1.182911992073059;0.0;0.0;0.0
1603;0.04001599922776222;-0.14395999908447266;1.0704280138015747;0.18348799645900726;-0.25863999128341675;1.199504017829895;11.431875228881836;-30.30124855041504;14.726249694824219
1606;0.0;0.0;0.0;0.17177599668502808;-0.2508319914340973;1.1868159770965576;0.0;0.0;0.0
1608;0.0;0.0;0.0;0.17958399653434753;-0.2235039919614792;1.182911992073059;0.0;0.0;0.0
1610;0.0;0.0;0.0;0.18348799645900726;-0.22740799188613892;1.150704026222229;0.0;0.0;0.0
1612;0.06197600066661835;-0.10858000069856644;1.042367935180664;0.187391996383667;-0.22740799188613892;1.1389919519424438;16.26187515258789;-27.57124900817871;15.496249198913574
1614;0.0;0.0;0.0;0.19129599630832672;-0.21959999203681946;1.1546080112457275;0.0;0.0;0.0
1616;0.0;0.0;0.0;0.19910399615764618;-0.2391199916601181;1.1389919519424438;0.0;0.0;0.0
1618;0.0;0.0;0.0;0.24595199525356293;-0.19227199256420135;1.1389919519424438;0.0;0.0;0.0
1620;0.08832799643278122;-0.08857199549674988;1.020651936531067;0.21081599593162537;-0.19227199256420135;1.134112000465393;18.431875228881836;-20.991249084472656;15.56624984741211
1623;0.0;0.0;0.0;0.22643199563026428;-0.20788799226284027;1.150704026222229;0.0;0.0;0.0
1625;0.0;0.0;0.0;0.230335995554924;-0.21959999203681946;1.1428959369659424;0.0;0.0;0.0
1627;0.0;0.0;0.0;0.2576639950275421;-0.1844639927148819;1.146799921989441;0.0;0.0;0.0
1629;0.1193159967660904;-0.06441599875688553;1.0113799571990967;0.2576639950275421;-0.1727519929409027;1.1184959411621094;18.711875915527344;-13.641249656677246;16.756250381469727
1631;0.0;0.0;0.0;0.2654719948768616;-0.16494399309158325;1.1302080154418945;0.0;0.0;0.0
1633;0.0;0.0;0.0;0.2654719948768616;-0.15323199331760406;1.1184959411621094;0.0;0.0;0.0
1635;0.0;0.0;0.0;0.22643199563026428;-0.1571359932422638;1.122399926185608;0.0;0.0;0.0
1637;0.12883199751377106;-0.030743999406695366;1.0030839443206787;0.26156800985336304;-0.13371199369430542;1.1302080154418945;18.01187515258789;-7.131249904632568;20.326250076293945
1640;0.0;0.0;0.0;0.26156800985336304;-0.14932799339294434;1.126304030418396;0.0;0.0;0.0
1642;0.0;0.0;0.0;0.2537599802017212;-0.1454239934682846;1.146799921989441;0.0;0.0;0.0
1644;0.0;0.0;0.0;0.2537599802017212;-0.14151999354362488;1.126304030418396;0.0;0.0;0.0
1646;0.12151199579238892;-0.01268799975514412;1.00381600856781;0.22643199563026428;-0.12590399384498596;1.150704026222229;16.751874923706055;-1.3912500143051147;23.686248779296875
1648;0.0;0.0;0.0;0.2576639950275421;-0.13371199369430542;1.1389919519424438;0.0;0.0;0.0
1650;0.0;0.0;0.0;0.230335995554924;-0.13761599361896515;1.1428959369659424;0.0;0.0;0.0
1652;0.0;0.0;0.0;0.22643199563026428;-0.12199999392032623;1.158511996269226;0.0;0.0;0.0
1655;0.11394799500703812;0.0019519999623298645;1.0211399793624878;0.21862399578094482;-0.10638399422168732;1.175104022026062;14.931875228881836;1.618749976158142;25.926250457763672
1657;0.0;0.0;0.0;0.19910399615764618;-0.1298079937696457;1.1790080070495605;0.0;0.0;0.0
1659;0.0;0.0;0.0;0.20691199600696564;-0.0907679945230484;1.1790080070495605;0.0;0.0;0.0
1661;0.0;0.0;0.0;0.22643199563026428;-0.07124799489974976;1.207311987876892;0.0;0.0;0.0
1663;0.1029679998755455;0.028303999453783035;1.044319987297058;0.24985599517822266;-0.12199999392032623;1.1633919477462769;11.711874961853027;0.14875000715255737;26.97624969482422
1665;0.0;0.0;0.0;0.22252799570560455;-0.14151999354362488;1.1712000370025635;0.0;0.0;0.0
1667;0.0;0.0;0.0;0.24985599517822266;-0.09467199444770813;1.1672959327697754;0.0;0.0;0.0
1669;0.0;0.0;0.0;0.2693759799003601;-0.05563199892640114;1.175104022026062;0.0;0.0;0.0
1672;0.14127600193023682;0.037087999284267426;1.0440759658813477;0.30060797929763794;-0.03611199930310249;1.1877919435501099;8.91187572479248;-2.231250047683716;26.346250534057617
1674;0.0;0.0;0.0;0.34355199337005615;-0.05953599885106087;1.175104022026062;0.0;0.0;0.0
1676;0.0;0.0;0.0;0.29280000925064087;-0.04782399907708168;1.1672959327697754;0.0;0.0;0.0
1678;0.0;0.0;0.0;0.2810879945755005;-0.05953599885106087;1.1712000370025635;0.0;0.0;0.0
1680;0.1768999993801117;0.07930000126361847;1.0450519323349;0.3357439935207367;-0.07124799489974976;1.1389919519424438;5.481874942779541;-3.1412501335144043;26.136249542236328
1682;0.0;0.0;0.0;0.30743998289108276;-0.07515199482440948;1.1682720184326172;0.0;0.0;0.0
1684;0.0;0.0;0.0;0.33476799726486206;-0.032207999378442764;1.1311839818954468;0.0;0.0;0.0
1686;0.0;0.0;0.0;0.3425759971141815;-0.05172799900174141;1.139967918395996;0.0;0.0;0.0
1689;0.20617999136447906;0.07588399946689606;1.0201640129089355;0.34647998213768005;-0.0634399950504303;1.1438720226287842;3.8718748092651367;-3.0012500286102295;23.546249389648438
1691;0.0;0.0;0.0;0.3699039816856384;-0.05172799900174141;1.1194720268249512;0.0;0.0;0.0
1693;0.0;0.0;0.0;0.36209598183631897;0.018543999642133713;1.1516799926757812;0.0;0.0;0.0
1695;0.0;0.0;0.0;0.38942399621009827;-0.024399999529123306;1.1555839776992798;0.0;0.0;0.0
1697;0.24424399435520172;0.11272799968719482;1.0155279636383057;0.3816159963607788;0.006831999868154526;1.1350879669189453;4.081874847412109;-2.161250114440918;21.44624900817871
1699;0.0;0.0;0.0;0.3786879777908325;-0.03611199930310249;1.122399926185608;0.0;0.0;0.0
1701;0.0;0.0;0.0;0.374783992767334;0.006831999868154526;1.158511996269226;0.0;0.0;0.0
1703;0.0;0.0;0.0;0.39820799231529236;0.022447999566793442;1.122399926185608;0.0;0.0;0.0
1706;0.260591983795166;0.1437159925699234;1.0106480121612549;0.3786879777908325;-0.004879999905824661;1.126304030418396;3.4518749713897705;-1.1112500429153442;20.396249771118164
1708;0.0;0.0;0.0;0.37088000774383545;0.02635199949145317;1.126304030418396;0.0;0.0;0.0
1710;0.0;0.0;0.0;0.3903999924659729;0.018543999642133713;1.1302080154418945;0.0;0.0;0.0
1712;0.0;0.0;0.0;0.39430397748947144;0.014639999717473984;1.122399926185608;0.0;0.0;0.0
1714;0.27303600311279297;0.14737600088119507;1.0099159479141235;0.3972319960594177;0.014639999717473984;1.1428959369659424;2.3318748474121094;0.7087500095367432;18.296249389648438
1716;0.0;0.0;0.0;0.37380799651145935;0.014639999717473984;1.1438720226287842;0.0;0.0;0.0
1718;0.0;0.0;0.0;0.3816159963607788;0.014639999717473984;1.1643680334091187;0.0;0.0;0.0
1720;0.0;0.0;0.0;0.3972319960594177;0.022447999566793442;1.1799839735031128;0.0;0.0;0.0
1723;0.26913198828697205;0.14640000462532043;1.028216004371643;0.3816159963607788;0.006831999868154526;1.1721760034561157;0.721875011920929;2.1087498664855957;15.986249923706055
1725;0.0;0.0;0.0;0.38942399621009827;0.0302559994161129;1.1760799884796143;0.0;0.0;0.0
1727;0.0;0.0;0.0;0.3659999966621399;0.022447999566793442;1.1926720142364502;0.0;0.0;0.0
1729;0.0;0.0;0.0;0.3699039816856384;0.018543999642133713;1.1838879585266113;0.0;0.0;0.0
1731;0.2547360062599182;0.15152399241924286;1.0416359901428223;0.3699039816856384;0.014639999717473984;1.1643680334091187;-1.6581250429153442;2.9487500190734863;13.676249504089355
1733;0.0;0.0;0.0;0.35819199681282043;0.022447999566793442;1.1838879585266113;0.0;0.0;0.0
1735;0.0;0.0;0.0;0.3777119815349579;0.02635199949145317;1.1760799884796143;0.0;0.0;0.0
1737;0.0;0.0;0.0;0.3777119815349579;0.04196799919009209;1.1721760034561157;0.0;0.0;0.0
1740;0.2664479911327362;0.158843994140625;1.0452959537506104;0.3777119815349579;0.03806399926543236;1.1887680292129517;-3.828125;3.3687500953674316;12.90625
1742;0.0;0.0;0.0;0.3972319960594177;0.045871999114751816;1.1760799884796143;0.0;0.0;0.0
1744;0.0;0.0;0.0;0.4352959990501404;0.053679998964071274;1.1594879627227783;0.0;0.0;0.0
1746;0.0;0.0;0.0;0.43139198422431946;0.02635199949145317;1.1438720226287842;0.0;0.0;0.0
1748;0.3047559857368469;0.16567599773406982;1.034559965133667;0.45481598377227783;0.049775999039411545;1.1311839818954468;-5.85812520980835;6.378749847412109;13.746249198913574
1750;0.0;0.0;0.0;0.4714079797267914;0.053679998964071274;1.1546080112457275;0.0;0.0;0.0
1752;0.0;0.0;0.0;0.4870239794254303;0.045871999114751816;1.126304030418396;0.0;0.0;0.0
1754;0.0;0.0;0.0;0.47921597957611084;0.045871999114751816;1.1302080154418945;0.0;0.0;0.0
1757;0.3472119867801666;0.17128799855709076;1.0155279636383057;0.4753119945526123;0.06539200246334076;1.1428959369659424;-7.048125267028809;12.328749656677246;17.0362491607666
1759;0.0;0.0;0.0;0.48311999440193176;0.0302559994161129;1.1389919519424438;0.0;0.0;0.0
1761;0.0;0.0;0.0;0.48311999440193176;0.006831999868154526;1.126304030418396;0.0;0.0;0.0
1763;0.0;0.0;0.0;0.5143519639968872;-0.004879999905824661;1.146799921989441;0.0;0.0;0.0
1765;0.3613640069961548;0.14054399728775024;1.0169919729232788;0.48311999440193176;-0.028303999453783035;1.175104022026062;-7.818125247955322;20.728750228881836;20.956249237060547
1767;0.0;0.0;0.0;0.4714079797267914;-0.04782399907708168;1.146799921989441;0.0;0.0;0.0
1769;0.0;0.0;0.0;0.45188799500465393;-0.05172799900174141;1.182911992073059;0.0;0.0;0.0
1771;0.0;0.0;0.0;0.447983980178833;-0.04001599922776222;1.1916959285736084;0.0;0.0;0.0
1774;0.3403799831867218;0.09174399822950363;1.0440759658813477;0.4440799951553345;-0.06734399497509003;1.2034080028533936;-8.028124809265137;28.14875030517578;20.396249771118164
1776;0.0;0.0;0.0;0.4635999798774719;-0.05563199892640114;1.1916959285736084;0.0;0.0;0.0
1778;0.0;0.0;0.0;0.4294399917125702;-0.06734399497509003;1.2160959243774414;0.0;0.0;0.0
1780;0.0;0.0;0.0;0.4060159921646118;-0.08686399459838867;1.2444000244140625;0.0;0.0;0.0
1782;0.3108559846878052;0.0697840005159378;1.0845799446105957;0.4167519807815552;-0.07124799489974976;1.231711983680725;-7.60812520980835;28.42875099182129;17.526248931884766
1784;0.0;0.0;0.0;0.4089439809322357;-0.08295999467372894;1.2648959159851074;0.0;0.0;0.0
1786;0.0;0.0;0.0;0.436271995306015;-0.07124799489974976;1.2356159687042236;0.0;0.0;0.0
1788;0.0;0.0;0.0;0.4206559956073761;-0.10247999429702759;1.207311987876892;0.0;0.0;0.0
1791;0.313539981842041;0.047335997223854065;1.1004400253295898;0.4206559956073761;-0.10638399422168732;1.2444000244140625;-6.348124980926514;24.01875114440918;15.286249160766602
1793;0.0;0.0;0.0;0.4440799951553345;-0.08686399459838867;1.2278079986572266;0.0;0.0;0.0
1795;0.0;0.0;0.0;0.4753119945526123;-0.12199999392032623;1.2160959243774414;0.0;0.0;0.0
1797;0.0;0.0;0.0;0.45579198002815247;-0.1180959939956665;1.1956000328063965;0.0;0.0;0.0
1799;0.3257399797439575;0.03684400022029877;1.083847999572754;0.4635999798774719;-0.11028799414634705;1.231711983680725;-2.778125047683716;18.8387508392334;13.956249237060547
1801;0.0;0.0;0.0;0.447983980178833;-0.11126399785280228;1.2112159729003906;0.0;0.0;0.0
1803;0.0;0.0;0.0;0.4138239920139313;-0.06441599875688553;1.1916959285736084;0.0;0.0;0.0
1805;0.0;0.0;0.0;0.42846399545669556;-0.10735999792814255;1.199504017829895;0.0;0.0;0.0
1808;0.31036800146102905;0.02903600037097931;1.0579839944839478;0.42455998063087463;-0.1268799901008606;1.182911992073059;1.70187509059906;14.708749771118164;13.536249160766602
1810;0.0;0.0;0.0;0.42455998063087463;-0.11126399785280228;1.182911992073059;0.0;0.0;0.0
1812;0.0;0.0;0.0;0.436271995306015;-0.11126399785280228;1.1672959327697754;0.0;0.0;0.0
1814;0.0;0.0;0.0;0.447983980178833;-0.05660799890756607;1.146799921989441;0.0;0.0;0.0
1816;0.3147599995136261;0.04050400108098984;1.0328519344329834;0.4440799951553345;-0.08003199845552444;1.146799921989441;4.921875;13.238750457763672;13.606249809265137
1818;0.0;0.0;0.0;0.4596959948539734;-0.07905599474906921;1.1184959411621094;0.0;0.0;0.0
1820;0.0;0.0;0.0;0.4635999798774719;-0.05563199892640114;1.146799921989441;0.0;0.0;0.0
1822;0.0;0.0;0.0;0.4753119945526123;-0.05953599885106087;1.1350879669189453;0.0;0.0;0.0
1825;0.3391599953174591;0.06588000059127808;0.9989359974861145;0.4753119945526123;-0.05563199892640114;1.1106879711151123;5.901875019073486;14.988750457763672;15.356249809265137
1827;0.0;0.0;0.0;0.45579198002815247;-0.028303999453783035;1.1145919561386108;0.0;0.0;0.0
1829;0.0;0.0;0.0;0.45188799500465393;-0.028303999453783035;1.101904034614563;0.0;0.0;0.0
1831;0.0;0.0;0.0;0.45579198002815247;-0.10247999429702759;1.1106879711151123;0.0;0.0;0.0
1833;0.34306398034095764;0.06856399774551392;0.97843998670578;0.4635999798774719;-0.0634399950504303;1.1145919561386108;4.781875133514404;20.868751525878906;16.826250076293945
1835;0.0;0.0;0.0;0.447983980178833;-0.08686399459838867;1.1058080196380615;0.0;0.0;0.0
1837;0.0;0.0;0.0;0.4635999798774719;-0.06734399497509003;1.101904034614563;0.0;0.0;0.0
1840;0.0;0.0;0.0;0.4323679804801941;-0.11419199407100677;1.0940959453582764;0.0;0.0;0.0
1842;0.3164680004119873;0.05075199902057648;0.97843998670578;0.42846399545669556;-0.06734399497509003;1.10971200466156;2.8218748569488525;27.378751754760742;17.0362491607666
1844;0.0;0.0;0.0;0.39820799231529236;-0.1298079937696457;1.126304030418396;0.0;0.0;0.0
1846;0.0;0.0;0.0;0.40991997718811035;-0.09467199444770813;1.122399926185608;0.0;0.0;0.0
1848;0.0;0.0;0.0;0.39430397748947144;-0.13371199369430542;1.1145919561386108;0.0;0.0;0.0
1850;0.2827959954738617;0.022935999557375908;0.9918599724769592;0.38259199261665344;-0.1180959939956665;1.122399926185608;1.0018750429153442;30.248750686645508;16.126249313354492
1852;0.0;0.0;0.0;0.3777119815349579;-0.11419199407100677;1.1233760118484497;0.0;0.0;0.0
1854;0.0;0.0;0.0;0.3777119815349579;-0.14932799339294434;1.1272799968719482;0.0;0.0;0.0
1857;0.0;0.0;0.0;0.36209598183631897;-0.1454239934682846;1.1477760076522827;0.0;0.0;0.0
1859;0.2549799978733063;-0.009271999821066856;1.0011320114135742;0.3659999966621399;-0.1727519929409027;1.1477760076522827;0.44187501072883606;29.548751831054688;14.586249351501465
1861;0.0;0.0;0.0;0.3542879819869995;-0.18055999279022217;1.1233760118484497;0.0;0.0;0.0
1863;0.0;0.0;0.0;0.36209598183631897;-0.20788799226284027;1.1194720268249512;0.0;0.0;0.0
1865;0.0;0.0;0.0;0.33086398243904114;-0.21569599211215973;1.1272799968719482;0.0;0.0;0.0
1867;0.2256999909877777;-0.0605119988322258;1.0040600299835205;0.33086398243904114;-0.19617599248886108;1.1477760076522827;1.8418750762939453;25.69875144958496;12.696249961853027
1870;0.0;0.0;0.0;0.3240320086479187;-0.21959999203681946;1.1389919519424438;0.0;0.0;0.0
1871;0.0;0.0;0.0;0.33183997869491577;-0.24692799150943756;1.1428959369659424;0.0;0.0;0.0
1874;0.0;0.0;0.0;0.3201279938220978;-0.23131199181079865;1.1389919519424438;0.0;0.0;0.0
1876;0.2088640034198761;-0.09613599628210068;1.009671926498413;0.30451199412345886;-0.24302399158477783;1.122399926185608;4.151875019073486;19.60875129699707;11.15625
1878;0.0;0.0;0.0;0.30451199412345886;-0.24302399158477783;1.1302080154418945;0.0;0.0;0.0
1880;0.0;0.0;0.0;0.35526400804519653;-0.24302399158477783;1.122399926185608;0.0;0.0;0.0
1882;0.0;0.0;0.0;0.3357439935207367;-0.24692799150943756;1.1106879711151123;0.0;0.0;0.0
1884;0.2076440006494522;-0.11004399508237839;0.9996680021286011;0.3513599932193756;-0.2508319914340973;1.101904034614563;6.39187479019165;13.518750190734863;9.336249351501465
1886;0.0;0.0;0.0;0.3230559825897217;-0.2235039919614792;1.115567922592163;0.0;0.0;0.0
1888;0.0;0.0;0.0;0.3425759971141815;-0.2508319914340973;1.083359956741333;0.0;0.0;0.0
1891;0.0;0.0;0.0;0.3269599974155426;-0.22740799188613892;1.0823839902877808;0.0;0.0;0.0
1893;0.21423199772834778;-0.10638399422168732;0.9701439738273621;0.35819199681282043;-0.23521599173545837;1.09116792678833;9.82187557220459;8.338749885559082;8.56624984741211
1895;0.0;0.0;0.0;0.350383996963501;-0.26254400610923767;1.0589599609375;0.0;0.0;0.0
1897;0.0;0.0;0.0;0.36209598183631897;-0.25863999128341675;1.0501760244369507;0.0;0.0;0.0
1899;0.0;0.0;0.0;0.3816159963607788;-0.24692799150943756;1.0501760244369507;0.0;0.0;0.0
1901;0.23228800296783447;-0.10979999601840973;0.9242720007896423;0.35819199681282043;-0.2547360062599182;1.0091840028762817;13.811875343322754;5.18874979019165;8.776249885559082
1903;0.0;0.0;0.0;0.3474559783935547;-0.2547360062599182;1.0374879837036133;0.0;0.0;0.0
1905;0.0;0.0;0.0;0.38649600744247437;-0.23131199181079865;1.0091840028762817;0.0;0.0;0.0
1908;0.0;0.0;0.0;0.3630719780921936;-0.22740799188613892;0.9759999513626099;0.0;0.0;0.0
1910;0.24229200184345245;-0.10247999429702759;0.8888919949531555;0.3513599932193756;-0.22740799188613892;1.0169919729232788;17.24187469482422;4.838749885559082;8.356249809265137
1912;0.0;0.0;0.0;0.3513599932193756;-0.23521599173545837;1.0130879878997803;0.0;0.0;0.0
1914;0.0;0.0;0.0;0.35916799306869507;-0.27035200595855713;0.9808799624443054;0.0;0.0;0.0
1916;0.0;0.0;0.0;0.3630719780921936;-0.24302399158477783;0.9847840070724487;0.0;0.0;0.0
1918;0.24887999892234802;-0.12029200047254562;0.8708359599113464;0.34355199337005615;-0.2898719906806946;0.9886879920959473;17.38187599182129;5.538750171661377;7.796249866485596
1920;0.0;0.0;0.0;0.3513599932193756;-0.2547360062599182;0.9886879920959473;0.0;0.0;0.0
1922;0.0;0.0;0.0;0.3513599932193756;-0.25863999128341675;0.9964959621429443;0.0;0.0;0.0
1925;0.0;0.0;0.0;0.34355199337005615;-0.24692799150943756;1.0130879878997803;0.0;0.0;0.0
1927;0.24131599068641663;-0.13395600020885468;0.8705919981002808;0.37088000774383545;-0.2508319914340973;1.0208959579467773;16.891876220703125;4.908750057220459;8.426249504089355
1929;0.0;0.0;0.0;0.38649600744247437;-0.2547360062599182;1.0052800178527832;0.0;0.0;0.0
1931;0.0;0.0;0.0;0.3396480083465576;-0.2664479911327362;1.0091840028762817;0.0;0.0;0.0
1933;0.0;0.0;0.0;0.374783992767334;-0.2781600058078766;0.9886879920959473;0.0;0.0;0.0
1935;0.24399998784065247;-0.1315159946680069;0.8796199560165405;0.38259199261665344;-0.2664479911327362;0.9925919771194458;14.2318754196167;2.8087499141693115;10.806249618530273
1937;0.0;0.0;0.0;0.38259199261665344;-0.3054879903793335;1.0130879878997803;0.0;0.0;0.0
1939;0.0;0.0;0.0;0.4060159921646118;-0.31329599022865295;1.0043039321899414;0.0;0.0;0.0
1942;0.0;0.0;0.0;0.3786879777908325;-0.3211039900779724;0.9925919771194458;0.0;0.0;0.0
1944;0.2588839828968048;-0.16396799683570862;0.8708359599113464;0.38259199261665344;-0.24692799150943756;1.0247999429702759;11.431875228881836;1.6887500286102295;9.966249465942383
1946;0.0;0.0;0.0;0.44017598032951355;-0.32500800490379333;1.0003999471664429;0.0;0.0;0.0
1948;0.0;0.0;0.0;0.3786879777908325;-0.3172000050544739;1.0169919729232788;0.0;0.0;0.0
1950;0.0;0.0;0.0;0.39430397748947144;-0.3328160047531128;0.9886879920959473;0.0;0.0;0.0
1952;0.27962398529052734;-0.1983719915151596;0.875715970993042;0.40113598108291626;-0.387472003698349;0.9886879920959473;9.051875114440918;0.35874998569488525;7.586249828338623
1954;0.0;0.0;0.0;0.4206559956073761;-0.3601439893245697;1.0208959579467773;0.0;0.0;0.0
1956;0.0;0.0;0.0;0.39430397748947144;-0.3757599890232086;1.0003999471664429;0.0;0.0;0.0
1959;0.0;0.0;0.0;0.4206559956073761;-0.34062400460243225;1.0374879837036133;0.0;0.0;0.0
1961;0.29816800355911255;-0.2193560004234314;0.8781560063362122;0.4323679804801941;-0.3601439893245697;0.9964959621429443;8.281875610351562;-1.7412500381469727;4.366250038146973
1963;0.0;0.0;0.0;0.4167519807815552;-0.33671998977661133;1.0130879878997803;0.0;0.0;0.0
1965;0.0;0.0;0.0;0.42455998063087463;-0.3718560039997101;1.0003999471664429;0.0;0.0;0.0
1967;0.0;0.0;0.0;0.38649600744247437;-0.3835679888725281;1.0003999471664429;0.0;0.0;0.0
1969;0.28669998049736023;-0.22765199840068817;0.8857199549674988;0.374783992767334;-0.37966400384902954;1.0335839986801147;8.351875305175781;-3.421250104904175;2.7562501430511475
1972;0.0;0.0;0.0;0.4001599848270416;-0.3835679888725281;1.0140639543533325;0.0;0.0;0.0
1973;0.0;0.0;0.0;0.35819199681282043;-0.387472003698349;1.0140639543533325;0.0;0.0;0.0
1976;0.0;0.0;0.0;0.33086398243904114;-0.40699198842048645;1.0052800178527832;0.0;0.0;0.0
1978;0.2554679811000824;-0.25034400820732117;0.8727880120277405;0.350383996963501;-0.39137598872184753;1.0013760328292847;8.771875381469727;-5.381249904632568;1.006250023841858
1980;0.0;0.0;0.0;0.37380799651145935;-0.4108960032463074;0.9935680031776428;0.0;0.0;0.0
1982;0.0;0.0;0.0;0.3816159963607788;-0.39528000354766846;0.9769759774208069;0.0;0.0;0.0
1984;0.0;0.0;0.0;0.3777119815349579;-0.4108960032463074;1.0013760328292847;0.0;0.0;0.0
1986;0.2554679811000824;-0.2664479911327362;0.8627839684486389;0.37380799651145935;-0.40699198842048645;1.010159969329834;9.471875190734863;-6.641250133514404;-0.32375001907348633
1988;0.0;0.0;0.0;0.38649600744247437;-0.39528000354766846;0.9720959663391113;0.0;0.0;0.0
1990;0.0;0.0;0.0;0.37088000774383545;-0.44993600249290466;0.9925919771194458;0.0;0.0;0.0
1993;0.0;0.0;0.0;0.38259199261665344;-0.4304159879684448;1.0052800178527832;0.0;0.0;0.0
1995;0.2622999846935272;-0.2920680046081543;0.8622959852218628;0.38259199261665344;-0.43432000279426575;0.9886879920959473;8.9818754196167;-6.221250057220459;-0.4637500047683716
1997;0.0;0.0;0.0;0.37088000774383545;-0.4538399875164032;0.9964959621429443;0.0;0.0;0.0
1999;0.0;0.0;0.0;0.3786879777908325;-0.4655520021915436;0.9847840070724487;0.0;0.0;0.0
2001;0.0;0.0;0.0;0.38649600744247437;-0.4694559872150421;0.9886879920959473;0.0;0.0;0.0
2003;0.26449599862098694;-0.32842400670051575;0.8688839673995972;0.3669759929180145;-0.4655520021915436;0.9964959621429443;7.721874713897705;-5.31125020980835;-0.2537499964237213
2006;0.0;0.0;0.0;0.38259199261665344;-0.4928799867630005;1.0091840028762817;0.0;0.0;0.0
2008;0.0;0.0;0.0;0.3903999924659729;-0.5045920014381409;0.9964959621429443;0.0;0.0;0.0
2010;0.0;0.0;0.0;0.3786879777908325;-0.4928799867630005;1.0052800178527832;0.0;0.0;0.0
2012;0.2808440029621124;-0.35233598947525024;0.8781560063362122;0.40113598108291626;-0.4967840015888214;1.0091840028762817;7.091875076293945;-4.401249885559082;-0.2537499964237213
2014;0.0;0.0;0.0;0.38649600744247437;-0.5280159711837769;1.0208959579467773;0.0;0.0;0.0
2016;0.0;0.0;0.0;0.38649600744247437;-0.5241119861602783;1.0374879837036133;0.0;0.0;0.0
2018;0.0;0.0;0.0;0.38259199261665344;-0.5514400005340576;1.0247999429702759;0.0;0.0;0.0
2020;0.2698639929294586;-0.39698800444602966;0.895967960357666;0.39430397748947144;-0.5592479705810547;1.0374879837036133;7.931874752044678;-3.421250104904175;-1.7237499952316284
2023;0.0;0.0;0.0;0.35916799306869507;-0.5748639702796936;1.0491999387741089;0.0;0.0;0.0
2025;0.0;0.0;0.0;0.3669759929180145;-0.5553439855575562;1.0130879878997803;0.0;0.0;0.0
2027;0.0;0.0;0.0;0.38259199261665344;-0.5436319708824158;1.0452959537506104;0.0;0.0;0.0
2029;0.2576639950275421;-0.42089998722076416;0.9006040096282959;0.40991997718811035;-0.5475360155105591;1.0335839986801147;10.521875381469727;-4.541250228881836;-4.453750133514404
2031;0.0;0.0;0.0;0.38259199261665344;-0.5904799699783325;1.0208959579467773;0.0;0.0;0.0
2033;0.0;0.0;0.0;0.374783992767334;-0.5826719999313354;1.0287039279937744;0.0;0.0;0.0
2035;0.0;0.0;0.0;0.3903999924659729;-0.563152015209198;0.9925919771194458;0.0;0.0;0.0
2037;0.2508319914340973;-0.4340759813785553;0.8898679614067078;0.3669759929180145;-0.586575984954834;1.0208959579467773;14.091875076293945;-8.181249618530273;-7.533750057220459
2039;0.0;0.0;0.0;0.3396480083465576;-0.5709599852561951;1.0335839986801147;0.0;0.0;0.0
2042;0.0;0.0;0.0;0.34355199337005615;-0.5475360155105591;1.0043039321899414;0.0;0.0;0.0
2044;0.0;0.0;0.0;0.35526400804519653;-0.5748639702796936;1.0043039321899414;0.0;0.0;0.0
2046;0.2315559983253479;-0.42968398332595825;0.8835240006446838;0.32793599367141724;-0.5319200158119202;0.9886879920959473;16.751874923706055;-14.3412504196167;-11.593750953674316
2048;0.0;0.0;0.0;0.34355199337005615;-0.5241119861602783;0.9925919771194458;0.0;0.0;0.0
2050;0.0;0.0;0.0;0.3474559783935547;-0.5397279858589172;0.9808799624443054;0.0;0.0;0.0
2052;0.0;0.0;0.0;0.3513599932193756;-0.5241119861602783;0.9886879920959473;0.0;0.0;0.0
2054;0.22594399750232697;-0.39820799231529236;0.8625400066375732;0.34355199337005615;-0.5358240008354187;0.9886879920959473;17.10187530517578;-21.061248779296875;-16.493749618530273
2057;0.0;0.0;0.0;0.37088000774383545;-0.5319200158119202;0.9720959663391113;0.0;0.0;0.0
2059;0.0;0.0;0.0;0.37088000774383545;-0.5241119861602783;0.9720959663391113;0.0;0.0;0.0
2061;0.0;0.0;0.0;0.3513599932193756;-0.5006880164146423;0.9564799666404724;0.0;0.0;0.0
2063;0.23253199458122253;-0.38478800654411316;0.8374080061912537;0.32793599367141724;-0.5163040161132812;0.9720959663391113;14.16187572479248;-24.28125;-21.39375114440918
2065;0.0;0.0;0.0;0.3201279938220978;-0.4811680018901825;0.9320799708366394;0.0;0.0;0.0
2067;0.0;0.0;0.0;0.34355199337005615;-0.5084959864616394;0.9476959705352783;0.0;0.0;0.0
2069;0.0;0.0;0.0;0.37088000774383545;-0.5163040161132812;0.9476959705352783;0.0;0.0;0.0
2071;0.2298479974269867;-0.3799079954624176;0.819595992565155;0.3396480083465576;-0.5202080011367798;0.9232959747314453;8.631875038146973;-21.831249237060547;-24.473751068115234
2074;0.0;0.0;0.0;0.3669759929180145;-0.5241119861602783;0.9564799666404724;0.0;0.0;0.0
2076;0.0;0.0;0.0;0.374783992767334;-0.5280159711837769;0.9398880004882812;0.0;0.0;0.0
2078;0.0;0.0;0.0;0.32793599367141724;-0.5045920014381409;0.9681919813156128;0.0;0.0;0.0
2080;0.2386319935321808;-0.38551998138427734;0.8230119943618774;0.3474559783935547;-0.5202080011367798;0.9603840112686157;2.3318748474121094;-17.14124870300293;-24.403751373291016
2082;0.0;0.0;0.0;0.34355199337005615;-0.5202080011367798;0.9564799666404724;0.0;0.0;0.0
2084;0.0;0.0;0.0;0.3201279938220978;-0.5045920014381409;0.9681919813156128;0.0;0.0;0.0
2086;0.0;0.0;0.0;0.32793599367141724;-0.5358240008354187;0.9642879962921143;0.0;0.0;0.0
2088;0.2105719894170761;-0.3940599858760834;0.8396039605140686;0.3123199939727783;-0.5358240008354187;0.9808799624443054;-4.598124980926514;-10.771249771118164;-24.68375015258789
2091;0.0;0.0;0.0;0.30353599786758423;-0.5241119861602783;0.9691680073738098;0.0;0.0;0.0
2093;0.0;0.0;0.0;0.30353599786758423;-0.5280159711837769;0.9652639627456665;0.0;0.0;0.0
2095;0.0;0.0;0.0;0.30743998289108276;-0.5514400005340576;0.985759973526001;0.0;0.0;0.0
2097;0.18470799922943115;-0.4182159900665283;0.8454599976539612;0.30353599786758423;-0.5670560002326965;0.9769759774208069;-9.288125038146973;-4.611249923706055;-26.363750457763672
2099;0.0;0.0;0.0;0.29182398319244385;-0.6100000143051147;0.9769759774208069;0.0;0.0;0.0
2101;0.0;0.0;0.0;0.2449759989976883;-0.6021919846534729;1.0013760328292847;0.0;0.0;0.0
2103;0.0;0.0;0.0;0.2566879987716675;-0.5904799699783325;1.0052800178527832;0.0;0.0;0.0
2105;0.14054399728775024;-0.4614039957523346;0.8637599945068359;0.2332639992237091;-0.6217119693756104;0.9974719882011414;-10.548124313354492;-0.9712499976158142;-28.18375015258789
2108;0.0;0.0;0.0;0.22643199563026428;-0.5826719999313354;1.0208959579467773;0.0;0.0;0.0
2110;0.0;0.0;0.0;0.20691199600696564;-0.6334239840507507;1.0130879878997803;0.0;0.0;0.0
2112;0.0;0.0;0.0;0.19129599630832672;-0.6100000143051147;1.0374879837036133;0.0;0.0;0.0
2114;0.08906000107526779;-0.4736039936542511;0.8874279856681824;0.19519999623298645;-0.5904799699783325;1.0287039279937744;-10.2681245803833;-1.0412499904632568;-29.583749771118164
2116;0.0;0.0;0.0;0.187391996383667;-0.6217119693756104;1.0287039279937744;0.0;0.0;0.0
2118;0.0;0.0;0.0;0.16787199676036835;-0.6021919846534729;1.0247999429702759;0.0;0.0;0.0
2120;0.0;0.0;0.0;0.1600639969110489;-0.5943840146064758;1.0287039279937744;0.0;0.0;0.0
2122;0.06173199787735939;-0.46872398257255554;0.8945040106773376;0.1600639969110489;-0.5943840146064758;1.0013760328292847;-9.778124809265137;-1.321250081062317;-31.75374984741211
2125;0.0;0.0;0.0;0.1756799966096878;-0.5943840146064758;1.0208959579467773;0.0;0.0;0.0
2127;0.0;0.0;0.0;0.17958399653434753;-0.6021919846534729;1.0208959579467773;0.0;0.0;0.0
2129;0.0;0.0;0.0;0.1483519971370697;-0.5904799699783325;1.0003999471664429;0.0;0.0;0.0
2131;0.05172799900174141;-0.4618919789791107;0.8842560052871704;0.15615999698638916;-0.5904799699783325;1.0169919729232788;-9.148124694824219;0.7087500095367432;-33.85375213623047
2133;0.0;0.0;0.0;0.16787199676036835;-0.5904799699783325;1.0003999471664429;0.0;0.0;0.0
2135;0.0;0.0;0.0;0.15615999698638916;-0.6139039993286133;1.0208959579467773;0.0;0.0;0.0
2137;0.0;0.0;0.0;0.1756799966096878;-0.6295199990272522;1.0003999471664429;0.0;0.0;0.0
2139;0.028060000389814377;-0.46921199560165405;0.880840003490448;0.10540799796581268;-0.5982879996299744;0.9964959621429443;-8.098124504089355;4.628749847412109;-34.133750915527344
2142;0.0;0.0;0.0;0.12883199751377106;-0.6178079843521118;0.9935680031776428;0.0;0.0;0.0
2144;0.0;0.0;0.0;0.08979199826717377;-0.6100000143051147;1.0140639543533325;0.0;0.0;0.0
2146;0.0;0.0;0.0;0.10931199789047241;-0.5904799699783325;1.010159969329834;0.0;0.0;0.0
2148;-0.006587999872863293;-0.46872398257255554;0.8869400024414062;0.08198399841785431;-0.5943840146064758;0.9935680031776428;-7.258125305175781;7.778749942779541;-33.50374984741211
2150;0.0;0.0;0.0;0.07807999849319458;-0.5826719999313354;1.0052800178527832;0.0;0.0;0.0
2152;0.0;0.0;0.0;0.07027199864387512;-0.586575984954834;1.034559965133667;0.0;0.0;0.0
2154;0.0;0.0;0.0;0.062463998794555664;-0.586575984954834;1.0257760286331177;0.0;0.0;0.0
2156;-0.04147999733686447;-0.4416399896144867;0.8942599892616272;0.054655998945236206;-0.563152015209198;1.034559965133667;-6.278125286102295;7.918749809265137;-30.84375
2159;0.0;0.0;0.0;0.05953599885106087;-0.5670560002326965;1.0287039279937744;0.0;0.0;0.0
2161;0.0;0.0;0.0;0.04391999915242195;-0.5709599852561951;1.0247999429702759;0.0;0.0;0.0
2163;0.0;0.0;0.0;0.004879999905824661;-0.5670560002326965;1.0247999429702759;0.0;0.0;0.0
2165;-0.08247199654579163;-0.4340759813785553;0.8984079957008362;0.04391999915242195;-0.5670560002326965;1.0247999429702759;-6.348124980926514;7.078750133514404;-28.39375114440918
2167;0.0;0.0;0.0;0.03611199930310249;-0.5553439855575562;1.0130879878997803;0.0;0.0;0.0
2169;0.0;0.0;0.0;0.05563199892640114;-0.563152015209198;1.0287039279937744;0.0;0.0;0.0
2171;0.0;0.0;0.0;0.03611199930310249;-0.5358240008354187;1.0413919687271118;0.0;0.0;0.0
2173;-0.08295999467372894;-0.42455998063087463;0.9003599882125854;0.024399999529123306;-0.5826719999313354;1.0491999387741089;-7.468125343322754;7.988749980926514;-27.27375030517578
2176;0.0;0.0;0.0;0.01268799975514412;-0.5514400005340576;1.0374879837036133;0.0;0.0;0.0
2178;0.0;0.0;0.0;0.028303999453783035;-0.5397279858589172;1.0413919687271118;0.0;0.0;0.0
2180;0.0;0.0;0.0;0.028303999453783035;-0.5475360155105591;1.0452959537506104;0.0;0.0;0.0
2182;-0.10223599523305893;-0.4206559956073761;0.9206119775772095;0.028303999453783035;-0.5826719999313354;1.0696959495544434;-9.218124389648438;9.108750343322754;-25.943750381469727
2184;0.0;0.0;0.0;0.0009759999811649323;-0.5670560002326965;1.0775039196014404;0.0;0.0;0.0
2186;0.0;0.0;0.0;0.0009759999811649323;-0.5553439855575562;1.0570080280303955;0.0;0.0;0.0
2188;0.0;0.0;0.0;0.0009759999811649323;-0.563152015209198;1.0696959495544434;0.0;0.0;0.0
2190;-0.1180959939956665;-0.41967999935150146;0.9352520108222961;0.00878399983048439;-0.5514400005340576;1.0775039196014404;-11.598124504089355;10.088749885559082;-25.52375030517578
2193;0.0;0.0;0.0;-0.014639999717473984;-0.5436319708824158;1.0862879753112793;0.0;0.0;0.0
2195;0.0;0.0;0.0;0.0009759999811649323;-0.5553439855575562;1.0775039196014404;0.0;0.0;0.0
2197;0.0;0.0;0.0;-0.014639999717473984;-0.5358240008354187;1.0657919645309448;0.0;0.0;0.0
2199;-0.1320039927959442;-0.4243159890174866;0.9472079873085022;-0.006831999868154526;-0.563152015209198;1.0618879795074463;-12.718124389648438;9.80875015258789;-24.68375015258789
2201;0.0;0.0;0.0;-0.0302559994161129;-0.5709599852561951;1.101904034614563;0.0;0.0;0.0
2203;0.0;0.0;0.0;-0.04196799919009209;-0.5670560002326965;1.097999930381775;0.0;0.0;0.0
2205;0.0;0.0;0.0;-0.06929600238800049;-0.5709599852561951;1.097999930381775;0.0;0.0;0.0
2207;-0.1617719978094101;-0.4304159879684448;0.9589200019836426;-0.06539200246334076;-0.5787680149078369;1.0862879753112793;-11.73812484741211;7.008749961853027;-24.473751068115234
2210;0.0;0.0;0.0;-0.0849120020866394;-0.5553439855575562;1.0775039196014404;0.0;0.0;0.0
2212;0.0;0.0;0.0;-0.07320000231266022;-0.5748639702796936;1.0696959495544434;0.0;0.0;0.0
2214;0.0;0.0;0.0;-0.06929600238800049;-0.5475360155105591;1.0618879795074463;0.0;0.0;0.0
2216;-0.1954440027475357;-0.42968398332595825;0.9496479630470276;-0.06929600238800049;-0.5436319708824158;1.0775039196014404;-8.168124198913574;-1.6012500524520874;-24.9637508392334
2218;0.0;0.0;0.0;-0.07710400223731995;-0.5436319708824158;1.0862879753112793;0.0;0.0;0.0
2220;0.0;0.0;0.0;-0.057583998888731;-0.5202080011367798;1.0579839944839478;0.0;0.0;0.0
2222;0.0;0.0;0.0;-0.049775999039411545;-0.5202080011367798;1.073599934577942;0.0;0.0;0.0
2224;-0.1786080002784729;-0.387472003698349;0.9372040033340454;-0.02635199949145317;-0.4967840015888214;1.0413919687271118;-3.198125123977661;-15.461250305175781;-24.543750762939453
2227;0.0;0.0;0.0;-0.0029279999434947968;-0.48897600173950195;1.0335839986801147;0.0;0.0;0.0
2229;0.0;0.0;0.0;0.04391999915242195;-0.4538399875164032;1.0052800178527832;0.0;0.0;0.0
2231;0.0;0.0;0.0;0.04391999915242195;-0.4655520021915436;1.0043039321899414;0.0;0.0;0.0
2233;-0.09467199444770813;-0.34404000639915466;0.8932839632034302;0.05953599885106087;-0.4655520021915436;1.0091840028762817;-0.18812501430511475;-23.30124855041504;-24.89375114440918
2235;0.0;0.0;0.0;0.0907679945230484;-0.4655520021915436;0.9603840112686157;0.0;0.0;0.0
2237;0.0;0.0;0.0;0.09759999811649323;-0.47336000204086304;0.9886879920959473;0.0;0.0;0.0
2239;0.0;0.0;0.0;0.11321599781513214;-0.44993600249290466;0.9564799666404724;0.0;0.0;0.0
2241;-0.023180000483989716;-0.32793599367141724;0.8530240058898926;0.14054399728775024;-0.4382239878177643;0.9759999513626099;0.721875011920929;-21.061248779296875;-25.73375129699707
2244;0.0;0.0;0.0;0.12492799758911133;-0.4304159879684448;0.9759999513626099;0.0;0.0;0.0
2246;0.0;0.0;0.0;0.14054399728775024;-0.43432000279426575;0.9642879962921143;0.0;0.0;0.0
2248;0.0;0.0;0.0;0.1210239976644516;-0.4265120029449463;1.0208959579467773;0.0;0.0;0.0
2250;0.013175999745726585;-0.30743998289108276;0.8491199612617493;0.15225599706172943;-0.4577440023422241;0.9720959663391113;-0.7481249570846558;-13.851249694824219;-25.453750610351562
2252;0.0;0.0;0.0;0.14054399728775024;-0.4108960032463074;0.9886879920959473;0.0;0.0;0.0
2254;0.0;0.0;0.0;0.1327359974384308;-0.44993600249290466;1.0130879878997803;0.0;0.0;0.0
2256;0.0;0.0;0.0;0.12883199751377106;-0.4108960032463074;1.0247999429702759;0.0;0.0;0.0
2258;0.01439599972218275;-0.29523998498916626;0.8815720081329346;0.13663999736309052;-0.44993600249290466;1.0052800178527832;-6.208125114440918;-3.6312501430511475;-25.66374969482422
2261;0.0;0.0;0.0;0.12883199751377106;-0.4147999882698059;1.0384639501571655;0.0;0.0;0.0
2263;0.0;0.0;0.0;0.10150399804115295;-0.41870400309562683;1.0462720394134521;0.0;0.0;0.0
2265;0.0;0.0;0.0;0.07417599856853485;-0.4265120029449463;1.0501760244369507;0.0;0.0;0.0
2267;-0.012443999759852886;-0.3118319809436798;0.9086560010910034;0.10150399804115295;-0.46164798736572266;1.066767930984497;-13.698124885559082;7.21875;-25.59375
2269;0.0;0.0;0.0;0.058559998869895935;-0.4811680018901825;1.0589599609375;0.0;0.0;0.0
2271;0.0;0.0;0.0;0.08979199826717377;-0.46164798736572266;1.0823839902877808;0.0;0.0;0.0
2273;0.0;0.0;0.0;0.031231999397277832;-0.4694559872150421;1.083359956741333;0.0;0.0;0.0
2275;-0.057583998888731;-0.34769999980926514;0.9352520108222961;0.062463998794555664;-0.5084959864616394;1.1028800010681152;-20.068124771118164;15.4087495803833;-24.263750076293945
2278;0.0;0.0;0.0;-0.0029279999434947968;-0.5084959864616394;1.0901919603347778;0.0;0.0;0.0
2280;0.0;0.0;0.0;0.032207999378442764;-0.5045920014381409;1.101904034614563;0.0;0.0;0.0
2282;0.0;0.0;0.0;0.0009759999811649323;-0.5084959864616394;1.134112000465393;0.0;0.0;0.0
2284;-0.11394799500703812;-0.3723439872264862;0.9852719902992249;-0.045871999114751816;-0.5006880164146423;1.1428959369659424;-23.568124771118164;21.708751678466797;-22.16374969482422
2286;0.0;0.0;0.0;-0.049775999039411545;-0.5123999714851379;1.1546080112457275;0.0;0.0;0.0
2288;0.0;0.0;0.0;-0.09272000193595886;-0.5241119861602783;1.1672959327697754;0.0;0.0;0.0
2290;0.0;0.0;0.0;-0.07710400223731995;-0.5123999714851379;1.1877919435501099;0.0;0.0;0.0
2292;-0.18299999833106995;-0.3806400001049042;1.0479799509048462;-0.08881600201129913;-0.4967840015888214;1.199504017829895;-25.248125076293945;23.458751678466797;-20.27375030517578
2295;0.0;0.0;0.0;-0.09662400186061859;-0.5084959864616394;1.199504017829895;0.0;0.0;0.0
2297;0.0;0.0;0.0;-0.10052800178527832;-0.48507198691368103;1.223904013633728;0.0;0.0;0.0
2299;0.0;0.0;0.0;-0.09662400186061859;-0.5045920014381409;1.2404959201812744;0.0;0.0;0.0
2301;-0.2235039919614792;-0.37331998348236084;1.085312008857727;-0.10833600163459778;-0.48507198691368103;1.2404959201812744;-24.408124923706055;19.118751525878906;-17.613750457763672
2303;0.0;0.0;0.0;-0.10443200170993805;-0.4928799867630005;1.231711983680725;0.0;0.0;0.0
2305;0.0;0.0;0.0;-0.09272000193595886;-0.4928799867630005;1.2522079944610596;0.0;0.0;0.0
2307;0.0;0.0;0.0;-0.07320000231266022;-0.4928799867630005;1.231711983680725;0.0;0.0;0.0
2309;-0.2176479995250702;-0.3613640069961548;1.097756028175354;-0.09272000193595886;-0.46164798736572266;1.2160959243774414;-21.328125;11.838749885559082;-15.303750991821289
2312;0.0;0.0;0.0;-0.06929600238800049;-0.48897600173950195;1.2522079944610596;0.0;0.0;0.0
2314;0.0;0.0;0.0;-0.08881600201129913;-0.4967840015888214;1.2160959243774414;0.0;0.0;0.0
2316;0.0;0.0;0.0;-0.10052800178527832;-0.4694559872150421;1.2112159729003906;0.0;0.0;0.0
2318;-0.20447199046611786;-0.3525799810886383;1.0950720310211182;-0.06929600238800049;-0.48507198691368103;1.207311987876892;-15.938124656677246;4.698750019073486;-13.973750114440918
2320;0.0;0.0;0.0;-0.07320000231266022;-0.48507198691368103;1.2200000286102295;0.0;0.0;0.0
2322;0.0;0.0;0.0;-0.09272000193595886;-0.46164798736572266;1.2278079986572266;0.0;0.0;0.0
2324;0.0;0.0;0.0;-0.07320000231266022;-0.4772639870643616;1.2200000286102295;0.0;0.0;0.0
2326;-0.19934800267219543;-0.34574800729751587;1.0860439538955688;-0.053679998964071274;-0.47336000204086304;1.199504017829895;-9.218124389648438;-2.4412500858306885;-13.623750686645508
2329;0.0;0.0;0.0;-0.06539200246334076;-0.4577440023422241;1.2121919393539429;0.0;0.0;0.0
2331;0.0;0.0;0.0;-0.049775999039411545;-0.4655520021915436;1.2444000244140625;0.0;0.0;0.0
2333;0.0;0.0;0.0;-0.08100800216197968;-0.43432000279426575;1.223904013633728;0.0;0.0;0.0
2335;-0.1954440027475357;-0.3123199939727783;1.0967799425125122;-0.06539200246334076;-0.4147999882698059;1.2444000244140625;-3.4781250953674316;-9.44124984741211;-13.203750610351562
2337;0.0;0.0;0.0;-0.06929600238800049;-0.4030880033969879;1.223904013633728;0.0;0.0;0.0
2339;0.0;0.0;0.0;-0.06148799881339073;-0.387472003698349;1.2200000286102295;0.0;0.0;0.0
2341;0.0;0.0;0.0;-0.06148799881339073;-0.399183988571167;1.1916959285736084;0.0;0.0;0.0
2343;-0.18836799263954163;-0.2764520049095154;1.079699993133545;-0.045871999114751816;-0.39137598872184753;1.1956000328063965;-0.398125022649765;-14.481249809265137;-13.063750267028809
2346;0.0;0.0;0.0;-0.07710400223731995;-0.3757599890232086;1.1790080070495605;0.0;0.0;0.0
2348;0.0;0.0;0.0;-0.049775999039411545;-0.39137598872184753;1.1672959327697754;0.0;0.0;0.0
2350;0.0;0.0;0.0;-0.06148799881339073;-0.36795198917388916;1.1790080070495605;0.0;0.0;0.0
2352;-0.18665999174118042;-0.2542479932308197;1.0491999387741089;-0.08100800216197968;-0.36795198917388916;1.1633919477462769;1.9118750095367432;-15.881250381469727;-11.103750228881836
2354;0.0;0.0;0.0;-0.07710400223731995;-0.3835679888725281;1.175104022026062;0.0;0.0;0.0
2356;0.0;0.0;0.0;-0.06539200246334076;-0.35233598947525024;1.175104022026062;0.0;0.0;0.0
2358;0.0;0.0;0.0;-0.09272000193595886;-0.3328160047531128;1.1546080112457275;0.0;0.0;0.0
2360;-0.19593200087547302;-0.2152079939842224;1.0321199893951416;-0.08100800216197968;-0.31329599022865295;1.1594879627227783;3.731874942779541;-14.831250190734863;-6.973750114440918
2363;0.0;0.0;0.0;-0.0849120020866394;-0.3445279896259308;1.1799839735031128;0.0;0.0;0.0
2365;0.0;0.0;0.0;-0.09662400186061859;-0.3093920052051544;1.1682720184326172;0.0;0.0;0.0
2367;0.0;0.0;0.0;-0.09272000193595886;-0.2937760055065155;1.1721760034561157;0.0;0.0;0.0
2369;-0.21106000244617462;-0.17885199189186096;1.0348039865493774;-0.08881600201129913;-0.3054879903793335;1.1926720142364502;3.8718748092651367;-13.991250038146973;-1.7937500476837158
2371;0.0;0.0;0.0;-0.0663679987192154;-0.29767999053001404;1.1477760076522827;0.0;0.0;0.0
2373;0.0;0.0;0.0;-0.0663679987192154;-0.29767999053001404;1.1721760034561157;0.0;0.0;0.0
2375;0.0;0.0;0.0;-0.054655998945236206;-0.2508319914340973;1.1721760034561157;0.0;0.0;0.0
2377;-0.1937360018491745;-0.15860000252723694;1.0433440208435059;-0.05075199902057648;-0.28596800565719604;1.1721760034561157;2.2618749141693115;-13.991250038146973;3.1762499809265137
2380;0.0;0.0;0.0;-0.0302559994161129;-0.2820639908313751;1.1712000370025635;0.0;0.0;0.0
2382;0.0;0.0;0.0;-0.022447999566793442;-0.25863999128341675;1.1877919435501099;0.0;0.0;0.0
2384;0.0;0.0;0.0;-0.02635199949145317;-0.2781600058078766;1.1712000370025635;0.0;0.0;0.0
