Timestamp(ms);LG-Accel x(g);LG-Accel y(g);LG-Accel z(g);HG-Accel x(g);HG-Accel y(g);HG-Accel z(g);Gyro x(dps);Gyro y(dps);Gyro z(dps)
82;0.0;0.0;0.0;0.15030398964881897;-0.3123199939727783;1.156559944152832;0.0;0.0;0.0
85;0.0;0.0;0.0;0.1727519929409027;-0.3084160089492798;1.180959939956665;0.0;0.0;0.0
87;0.0;0.0;0.0;0.13859200477600098;-0.31622397899627686;1.1770559549331665;0.0;0.0;0.0
89;0.0;0.0;0.0;0.13468798995018005;-0.33183997869491577;1.1848639249801636;0.0;0.0;0.0
91;0.0;0.0;0.0;0.14640000462532043;-0.3240320086479187;1.1770559549331665;0.0;0.0;0.0
93;0.0;0.0;0.0;0.12883199751377106;-0.3572160005569458;1.1956000328063965;0.0;0.0;0.0
95;0.0;0.0;0.0;0.14444799721240997;-0.32207998633384705;1.2112159729003906;0.0;0.0;0.0
97;0.0;0.0;0.0;0.12883199751377106;-0.3298879861831665;1.223904013633728;0.0;0.0;0.0
99;0.018300000578165054;-0.19519999623298645;1.0716480016708374;0.1210239976644516;-0.32598400115966797;1.223904013633728;0.0;0.0;0.0
101;0.0;0.0;0.0;0.11321599781513214;-0.3416000008583069;1.207311987876892;0.0;0.0;0.0
104;0.0;0.0;0.0;0.12492799758911133;-0.32207998633384705;1.2160959243774414;0.0;0.0;0.0
106;0.0;0.0;0.0;0.10540799796581268;-0.3181760013103485;1.223904013633728;0.0;0.0;0.0
108;-0.007807999849319458;-0.19446799159049988;1.0867760181427002;0.09857599437236786;-0.32598400115966797;1.2278079986572266;0.0;0.0;0.0
110;0.0;0.0;0.0;0.09759999811649323;-0.33769598603248596;1.2356159687042236;0.0;0.0;0.0
112;0.0;0.0;0.0;0.08295999467372894;-0.3181760013103485;1.2404959201812744;0.0;0.0;0.0
114;0.0;0.0;0.0;0.06734399497509003;-0.32207998633384705;1.223904013633728;0.0;0.0;0.0
116;-0.03757599741220474;-0.1908079981803894;1.1009279489517212;0.06734399497509003;-0.3142719864845276;1.231711983680725;0.0;0.0;0.0
118;0.0;0.0;0.0;0.05563199892640114;-0.3455039858818054;1.223904013633728;0.0;0.0;0.0
121;0.0;0.0;0.0;0.08295999467372894;-0.3181760013103485;1.2522079944610596;0.0;0.0;0.0
123;0.0;0.0;0.0;0.05563199892640114;-0.32598400115966797;1.2395199537277222;0.0;0.0;0.0
125;-0.059779997915029526;-0.19056399166584015;1.1089799404144287;0.08295999467372894;-0.3533119857311249;1.2200000286102295;0.0;0.0;0.0
127;0.0;0.0;0.0;0.0634399950504303;-0.3298879861831665;1.256111979484558;0.0;0.0;0.0
129;0.0;0.0;0.0;0.09759999811649323;-0.3689279854297638;1.231711983680725;0.0;0.0;0.0
131;0.0;0.0;0.0;0.07515199482440948;-0.3533119857311249;1.1916959285736084;0.0;0.0;0.0
133;-0.053679998964071274;-0.22203999757766724;1.0872639417648315;0.05953599885106087;-0.4079679846763611;1.1916959285736084;0.0;0.0;0.0
135;0.0;0.0;0.0;0.05953599885106087;-0.36111998558044434;1.175104022026062;0.0;0.0;0.0
138;0.0;0.0;0.0;0.04391999915242195;-0.411871999502182;1.1790080070495605;0.0;0.0;0.0
140;0.0;0.0;0.0;0.05953599885106087;-0.39235198497772217;1.158511996269226;0.0;0.0;0.0
142;-0.06490399688482285;-0.2581520080566406;1.044808030128479;0.04001599922776222;-0.411871999502182;1.146799921989441;-10.517499923706055;-0.2800000011920929;-11.423125267028809
144;0.0;0.0;0.0;0.05172799900174141;-0.399183988571167;1.150704026222229;0.0;0.0;0.0
146;0.0;0.0;0.0;0.04391999915242195;-0.3835679888725281;1.1546080112457275;0.0;0.0;0.0
148;0.0;0.0;0.0;0.06734399497509003;-0.37966400384902954;1.1546080112457275;0.0;0.0;0.0
150;-0.07124799489974976;-0.25278398394584656;1.0294359922409058;0.05563199892640114;-0.3640480041503906;1.150704026222229;-3.867500066757202;0.42000001668930054;-14.853124618530273
153;0.0;0.0;0.0;0.0634399950504303;-0.3640480041503906;1.182911992073059;0.0;0.0;0.0
155;0.0;0.0;0.0;0.06734399497509003;-0.3718560039997101;1.1790080070495605;0.0;0.0;0.0
157;0.0;0.0;0.0;0.04391999915242195;-0.3328160047531128;1.207311987876892;0.0;0.0;0.0
159;-0.06831999868154526;-0.23058000206947327;1.0589599609375;0.04782399907708168;-0.36795198917388916;1.2034080028533936;0.5425000190734863;0.2800000011920929;-18.213125228881836
161;0.0;0.0;0.0;0.04391999915242195;-0.3572160005569458;1.207311987876892;0.0;0.0;0.0
163;0.0;0.0;0.0;0.04391999915242195;-0.3572160005569458;1.2278079986572266;0.0;0.0;0.0
165;0.0;0.0;0.0;0.05953599885106087;-0.3455039858818054;1.2404959201812744;0.0;0.0;0.0
167;-0.06685599684715271;-0.2152079939842224;1.093608021736145;0.032207999378442764;-0.3416000008583069;1.2444000244140625;0.9625000357627869;-0.8400000333786011;-21.013124465942383
170;0.0;0.0;0.0;0.07905599474906921;-0.34940800070762634;1.2278079986572266;0.0;0.0;0.0
172;0.0;0.0;0.0;0.05172799900174141;-0.34940800070762634;1.2356159687042236;0.0;0.0;0.0
174;0.0;0.0;0.0;0.07905599474906921;-0.3337920010089874;1.231711983680725;0.0;0.0;0.0
176;-0.06661199778318405;-0.21106000244617462;1.1043440103530884;0.04001599922776222;-0.3572160005569458;1.223904013633728;-2.327500104904175;-2.309999942779541;-24.163124084472656
178;0.0;0.0;0.0;0.06734399497509003;-0.3533119857311249;1.2034080028533936;0.0;0.0;0.0
180;0.0;0.0;0.0;0.07124799489974976;-0.3416000008583069;1.2034080028533936;0.0;0.0;0.0
182;0.0;0.0;0.0;0.05563199892640114;-0.3572160005569458;1.1868159770965576;0.0;0.0;0.0
184;-0.06148799881339073;-0.21911199390888214;1.0721359252929688;0.07515199482440948;-0.3533119857311249;1.1633919477462769;-6.737500190734863;-3.2899999618530273;-27.803125381469727
187;0.0;0.0;0.0;0.06734399497509003;-0.3845439851284027;1.146799921989441;0.0;0.0;0.0
189;0.0;0.0;0.0;0.10638399422168732;-0.3572160005569458;1.1350879669189453;0.0;0.0;0.0
191;0.0;0.0;0.0;0.07905599474906921;-0.37673598527908325;1.1302080154418945;0.0;0.0;0.0
193;-0.048312000930309296;-0.22594399750232697;1.002351999282837;0.08295999467372894;-0.36111998558044434;1.0862879753112793;-8.27750015258789;-3.9200000762939453;-32.14312744140625
195;0.0;0.0;0.0;0.09857599437236786;-0.3416000008583069;1.097999930381775;0.0;0.0;0.0
197;0.0;0.0;0.0;0.07905599474906921;-0.37673598527908325;1.0452959537506104;0.0;0.0;0.0
199;0.0;0.0;0.0;0.07515199482440948;-0.3533119857311249;1.0413919687271118;0.0;0.0;0.0
201;-0.034648001194000244;-0.22130799293518066;0.9352520108222961;0.09759999811649323;-0.34940800070762634;1.0374879837036133;-5.827500343322754;-4.480000019073486;-36.06312561035156
204;0.0;0.0;0.0;0.07124799489974976;-0.36502400040626526;1.0296800136566162;0.0;0.0;0.0
206;0.0;0.0;0.0;0.07905599474906921;-0.3572160005569458;1.0208959579467773;0.0;0.0;0.0
208;0.0;0.0;0.0;0.07515199482440948;-0.3337920010089874;1.0003999471664429;0.0;0.0;0.0
210;-0.039772000163793564;-0.2147199958562851;0.8830359578132629;0.0634399950504303;-0.33769598603248596;1.0003999471664429;-0.22749999165534973;-5.880000114440918;-38.4431266784668
212;0.0;0.0;0.0;0.05563199892640114;-0.3142719864845276;0.9964959621429443;0.0;0.0;0.0
214;0.0;0.0;0.0;0.08295999467372894;-0.33769598603248596;0.9847840070724487;0.0;0.0;0.0
216;0.0;0.0;0.0;0.07905599474906921;-0.31036800146102905;0.9720959663391113;0.0;0.0;0.0
218;-0.04513999819755554;-0.19105198979377747;0.8583920001983643;0.06734399497509003;-0.31036800146102905;0.9681919813156128;6.982499599456787;-7.840000152587891;-39.91312789916992
221;0.0;0.0;0.0;0.05953599885106087;-0.2908479869365692;0.9808799624443054;0.0;0.0;0.0
223;0.0;0.0;0.0;0.0936959981918335;-0.27132800221443176;1.0003999471664429;0.0;0.0;0.0
225;0.0;0.0;0.0;0.0907679945230484;-0.2869440019130707;0.9964959621429443;0.0;0.0;0.0
227;-0.03171999752521515;-0.1500599980354309;0.8591240048408508;0.10540799796581268;-0.2596159875392914;1.0003999471664429;11.322500228881836;-8.609999656677246;-41.453125
229;0.0;0.0;0.0;0.09174399822950363;-0.2635200023651123;0.9720959663391113;0.0;0.0;0.0
231;0.0;0.0;0.0;0.10638399422168732;-0.2518079876899719;0.9964959621429443;0.0;0.0;0.0
233;0.0;0.0;0.0;0.115167997777462;-0.2479040026664734;1.0003999471664429;0.0;0.0;0.0
235;-0.03147599846124649;-0.11370399594306946;0.8713240027427673;0.08393599838018417;-0.22448000311851501;1.0091840028762817;11.532500267028809;-5.460000038146973;-42.923126220703125
238;0.0;0.0;0.0;0.05270399898290634;-0.21667200326919556;1.0247999429702759;0.0;0.0;0.0
240;0.0;0.0;0.0;0.05660799890756607;-0.23228800296783447;1.0130879878997803;0.0;0.0;0.0
242;0.0;0.0;0.0;0.05270399898290634;-0.21276798844337463;1.0130879878997803;0.0;0.0;0.0
244;-0.06417199969291687;-0.08979199826717377;0.8837679624557495;0.01756799966096878;-0.21667200326919556;1.0247999429702759;10.342499732971191;-1.1200000047683716;-44.39312744140625
246;0.0;0.0;0.0;0.01659199967980385;-0.2088640034198761;1.0169919729232788;0.0;0.0;0.0
248;0.0;0.0;0.0;0.01659199967980385;-0.18934398889541626;1.0091840028762817;0.0;0.0;0.0
250;0.0;0.0;0.0;0.004879999905824661;-0.21276798844337463;1.0208959579467773;0.0;0.0;0.0
252;-0.10955599695444107;-0.07246799767017365;0.8896239995956421;-0.022447999566793442;-0.18934398889541626;1.0208959579467773;10.90250015258789;1.3300000429153442;-45.023128509521484
255;0.0;0.0;0.0;-0.010735999792814255;-0.2088640034198761;1.0452959537506104;0.0;0.0;0.0
257;0.0;0.0;0.0;-0.049775999039411545;-0.18544000387191772;1.0247999429702759;0.0;0.0;0.0
259;0.0;0.0;0.0;-0.053679998964071274;-0.16201600432395935;1.0287039279937744;0.0;0.0;0.0
261;-0.1622599959373474;-0.048312000930309296;0.908411979675293;-0.049775999039411545;-0.16591998934745789;1.0413919687271118;13.282500267028809;1.2599999904632568;-45.023128509521484
263;0.0;0.0;0.0;-0.10345599800348282;-0.16591998934745789;1.0413919687271118;0.0;0.0;0.0
265;0.0;0.0;0.0;-0.08393599838018417;-0.14640000462532043;1.0823839902877808;0.0;0.0;0.0
267;0.0;0.0;0.0;-0.09174399822950363;-0.1268799901008606;1.0491999387741089;0.0;0.0;0.0
269;-0.19934800267219543;-0.01878799870610237;0.9340319633483887;-0.08393599838018417;-0.12297599762678146;1.0862879753112793;14.822500228881836;-1.399999976158142;-44.04312515258789
272;0.0;0.0;0.0;-0.1268799901008606;-0.13468798995018005;1.0696959495544434;0.0;0.0;0.0
274;0.0;0.0;0.0;-0.1268799901008606;-0.10735999792814255;1.1106879711151123;0.0;0.0;0.0
276;0.0;0.0;0.0;-0.12297599762678146;-0.09955199807882309;1.126304030418396;0.0;0.0;0.0
278;-0.23521599173545837;0.0287919994443655;0.9779520034790039;-0.13859200477600098;-0.06831999868154526;1.146799921989441;14.962499618530273;-5.880000114440918;-41.173126220703125
280;0.0;0.0;0.0;-0.12004800140857697;-0.08393599838018417;1.1633919477462769;0.0;0.0;0.0
282;0.0;0.0;0.0;-0.12004800140857697;-0.09174399822950363;1.1428959369659424;0.0;0.0;0.0
284;0.0;0.0;0.0;-0.13566400110721588;-0.0605119988322258;1.1790080070495605;0.0;0.0;0.0
286;-0.2576639950275421;0.058559998869895935;1.0306559801101685;-0.1542080044746399;-0.0605119988322258;1.1790080070495605;9.292499542236328;-11.899999618530273;-38.23312759399414
289;0.0;0.0;0.0;-0.15030398964881897;-0.044895999133586884;1.1790080070495605;0.0;0.0;0.0
291;0.0;0.0;0.0;-0.16201600432395935;-0.0605119988322258;1.175104022026062;0.0;0.0;0.0
293;0.0;0.0;0.0;-0.16591998934745789;-0.040991999208927155;1.1712000370025635;0.0;0.0;0.0
295;-0.2840159833431244;0.0710039958357811;1.0377320051193237;-0.16201600432395935;-0.0331839993596077;1.1956000328063965;-0.1574999988079071;-14.350000381469727;-36.763126373291016
297;0.0;0.0;0.0;-0.15908800065517426;-0.037087999284267426;1.1546080112457275;0.0;0.0;0.0
299;0.0;0.0;0.0;-0.17763200402259827;-0.05660799890756607;1.1790080070495605;0.0;0.0;0.0
301;0.0;0.0;0.0;-0.15811198949813843;-0.0605119988322258;1.1428959369659424;0.0;0.0;0.0
303;-0.2840159833431244;0.08295999467372894;1.0211399793624878;-0.14640000462532043;-0.0605119988322258;1.122399926185608;-11.077500343322754;-15.680000305175781;-37.32312774658203
306;0.0;0.0;0.0;-0.1395680010318756;-0.06831999868154526;1.0814080238342285;0.0;0.0;0.0
308;0.0;0.0;0.0;-0.13176000118255615;-0.06831999868154526;1.0579839944839478;0.0;0.0;0.0
310;0.0;0.0;0.0;-0.14347200095653534;-0.0605119988322258;1.0901919603347778;0.0;0.0;0.0
312;-0.260591983795166;0.0605119988322258;0.9559919834136963;-0.13176000118255615;-0.09174399822950363;1.0579839944839478;-18.357500076293945;-14.420000076293945;-38.65312576293945
314;0.0;0.0;0.0;-0.14347200095653534;-0.1268799901008606;1.0413919687271118;0.0;0.0;0.0
316;0.0;0.0;0.0;-0.10833600163459778;-0.11126399785280228;1.0169919729232788;0.0;0.0;0.0
318;0.0;0.0;0.0;-0.10833600163459778;-0.12297599762678146;1.0335839986801147;0.0;0.0;0.0
320;-0.24619600176811218;0.01268799975514412;0.8923079967498779;-0.09662400186061859;-0.13859200477600098;0.9886879920959473;-19.407501220703125;-10.850000381469727;-40.89312744140625
323;0.0;0.0;0.0;-0.09272000193595886;-0.1268799901008606;0.9759999513626099;0.0;0.0;0.0
325;0.0;0.0;0.0;-0.07320000231266022;-0.13859200477600098;0.9720959663391113;0.0;0.0;0.0
327;0.0;0.0;0.0;-0.049775999039411545;-0.11126399785280228;0.9232959747314453;0.0;0.0;0.0
329;-0.20569199323654175;0.010979999788105488;0.8271600008010864;-0.06539200246334076;-0.09564799815416336;0.9515999555587769;-15.207500457763672;-4.829999923706055;-42.78312683105469
331;0.0;0.0;0.0;-0.08881600201129913;-0.0878399983048439;0.9359839558601379;0.0;0.0;0.0
333;0.0;0.0;0.0;-0.057583998888731;-0.12297599762678146;0.9603840112686157;0.0;0.0;0.0
335;0.0;0.0;0.0;-0.053679998964071274;-0.06831999868154526;0.9642879962921143;0.0;0.0;0.0
337;-0.18519599735736847;0.040748000144958496;0.8303319811820984;-0.03806399926543236;-0.08393599838018417;0.9759999513626099;-7.577500343322754;0.5600000023841858;-42.15312576293945
340;0.0;0.0;0.0;-0.04196799919009209;-0.06441599875688553;1.0003999471664429;0.0;0.0;0.0
342;0.0;0.0;0.0;-0.049775999039411545;-0.07612799853086472;1.0130879878997803;0.0;0.0;0.0
344;0.0;0.0;0.0;0.01268799975514412;-0.05270399898290634;1.0130879878997803;0.0;0.0;0.0
346;-0.13834799826145172;0.05709599703550339;0.8786439895629883;0.028303999453783035;-0.0878399983048439;1.0003999471664429;-1.9075000286102295;3.5;-39.8431282043457
348;0.0;0.0;0.0;-0.0029279999434947968;-0.06831999868154526;1.0335839986801147;0.0;0.0;0.0
350;0.0;0.0;0.0;0.004879999905824661;-0.07612799853086472;1.0247999429702759;0.0;0.0;0.0
352;0.0;0.0;0.0;0.0009759999811649323;-0.05270399898290634;1.0531039237976074;0.0;0.0;0.0
354;-0.11541199684143066;0.06758800148963928;0.8984079957008362;0.01268799975514412;-0.05270399898290634;1.0335839986801147;3.132499933242798;6.579999923706055;-35.50312805175781
357;0.0;0.0;0.0;0.0009759999811649323;-0.05660799890756607;1.0452959537506104;0.0;0.0;0.0
359;0.0;0.0;0.0;-0.014639999717473984;-0.0605119988322258;1.0696959495544434;0.0;0.0;0.0
361;0.0;0.0;0.0;-0.010735999792814255;-0.04879999905824661;1.0531039237976074;0.0;0.0;0.0
363;-0.1320039927959442;0.07417599856853485;0.9206119775772095;-0.03415999934077263;-0.06441599875688553;1.0452959537506104;6.702499866485596;8.75;-32.353126525878906
365;0.0;0.0;0.0;-0.022447999566793442;-0.0878399983048439;1.0579839944839478;0.0;0.0;0.0
367;0.0;0.0;0.0;-0.053679998964071274;-0.0605119988322258;1.0618879795074463;0.0;0.0;0.0
369;0.0;0.0;0.0;-0.03806399926543236;-0.07612799853086472;1.0570080280303955;0.0;0.0;0.0
371;-0.1617719978094101;0.06709999591112137;0.9262239933013916;-0.07320000231266022;-0.05270399898290634;1.0531039237976074;9.22249984741211;10.359999656677246;-31.653125762939453
374;0.0;0.0;0.0;-0.07710400223731995;-0.08003199845552444;1.0657919645309448;0.0;0.0;0.0
376;0.0;0.0;0.0;-0.057583998888731;-0.0605119988322258;1.0618879795074463;0.0;0.0;0.0
378;0.0;0.0;0.0;-0.09272000193595886;-0.07612799853086472;1.0531039237976074;0.0;0.0;0.0
380;-0.1903200000524521;0.0651479959487915;0.9259799718856812;-0.10443200170993805;-0.05270399898290634;1.0491999387741089;12.72249984741211;9.800000190734863;-32.493125915527344
382;0.0;0.0;0.0;-0.10833600163459778;-0.0605119988322258;1.0491999387741089;0.0;0.0;0.0
384;0.0;0.0;0.0;-0.0849120020866394;-0.0605119988322258;1.0413919687271118;0.0;0.0;0.0
386;0.0;0.0;0.0;-0.07710400223731995;-0.05270399898290634;1.0247999429702759;0.0;0.0;0.0
388;-0.21447598934173584;0.08100800216197968;0.9106079936027527;-0.11614400148391724;-0.04879999905824661;1.0579839944839478;17.272499084472656;8.329999923706055;-34.31312561035156
391;0.0;0.0;0.0;-0.09272000193595886;-0.029279999434947968;1.0531039237976074;0.0;0.0;0.0
393;0.0;0.0;0.0;-0.10052800178527832;-0.02537599951028824;1.0335839986801147;0.0;0.0;0.0
395;0.0;0.0;0.0;-0.07320000231266022;-0.0019519999623298645;1.0335839986801147;0.0;0.0;0.0
397;-0.21398799121379852;0.10955599695444107;0.905239999294281;-0.07320000231266022;-0.013663999736309052;1.0413919687271118;20.842500686645508;7.070000171661377;-36.833126068115234
399;0.0;0.0;0.0;-0.08100800216197968;0.0019519999623298645;1.0618879795074463;0.0;0.0;0.0
401;0.0;0.0;0.0;-0.07320000231266022;0.013663999736309052;1.0452959537506104;0.0;0.0;0.0
403;0.0;0.0;0.0;-0.057583998888731;0.01756799966096878;1.0413919687271118;0.0;0.0;0.0
405;-0.1849519908428192;0.15835599601268768;0.9191479682922363;-0.053679998964071274;0.05270399898290634;1.0491999387741089;20.422500610351562;6.860000133514404;-38.513126373291016
408;0.0;0.0;0.0;-0.03415999934077263;0.06831999868154526;1.0657919645309448;0.0;0.0;0.0
410;0.0;0.0;0.0;-0.045871999114751816;0.0605119988322258;1.0579839944839478;0.0;0.0;0.0
412;0.0;0.0;0.0;-0.049775999039411545;0.10345599800348282;1.0901919603347778;0.0;0.0;0.0
414;-0.17080000042915344;0.20739999413490295;0.9525759816169739;-0.03415999934077263;0.06831999868154526;1.0901919603347778;13.702499389648438;9.3100004196167;-40.47312545776367
416;0.0;0.0;0.0;-0.049775999039411545;0.08003199845552444;1.101904034614563;0.0;0.0;0.0
418;0.0;0.0;0.0;-0.0302559994161129;0.09955199807882309;1.1350879669189453;0.0;0.0;0.0
420;0.0;0.0;0.0;-0.022447999566793442;0.10345599800348282;1.1302080154418945;0.0;0.0;0.0
422;-0.15347599983215332;0.22935999929904938;0.9855159521102905;-0.010735999792814255;0.10345599800348282;1.158511996269226;1.3825000524520874;13.930000305175781;-45.23312759399414
425;0.0;0.0;0.0;0.01268799975514412;0.11907199770212173;1.1302080154418945;0.0;0.0;0.0
427;0.0;0.0;0.0;0.03611199930310249;0.13468798995018005;1.101904034614563;0.0;0.0;0.0
429;0.0;0.0;0.0;0.03611199930310249;0.1424959897994995;1.1546080112457275;0.0;0.0;0.0
431;-0.09979599714279175;0.26498398184776306;1.0045479536056519;0.028303999453783035;0.1268799901008606;1.1672959327697754;-11.42750072479248;17.989999771118164;-48.73312759399414
433;0.0;0.0;0.0;0.04391999915242195;0.13859200477600098;1.1712000370025635;0.0;0.0;0.0
435;0.0;0.0;0.0;0.08979199826717377;0.1424959897994995;1.199504017829895;0.0;0.0;0.0
437;0.0;0.0;0.0;0.08295999467372894;0.1424959897994995;1.2112159729003906;0.0;0.0;0.0
440;-0.058559998869895935;0.27669599652290344;1.0623760223388672;0.10247999429702759;0.13078400492668152;1.2200000286102295;-20.457500457763672;17.219999313354492;-47.47312545776367
442;0.0;0.0;0.0;0.1210239976644516;0.13859200477600098;1.2522079944610596;0.0;0.0;0.0
444;0.0;0.0;0.0;0.13663999736309052;0.13859200477600098;1.223904013633728;0.0;0.0;0.0
446;0.0;0.0;0.0;0.1756799966096878;0.11907199770212173;1.2112159729003906;0.0;0.0;0.0
448;0.01781199872493744;0.25571200251579285;1.0828720331192017;0.14444799721240997;0.08393599838018417;1.199504017829895;-26.61750030517578;14.140000343322754;-43.203125
450;0.0;0.0;0.0;0.14444799721240997;0.10345599800348282;1.1956000328063965;0.0;0.0;0.0
452;0.0;0.0;0.0;0.1600639969110489;0.08003199845552444;1.1790080070495605;0.0;0.0;0.0
454;0.0;0.0;0.0;0.19519999623298645;0.06831999868154526;1.1712000370025635;0.0;0.0;0.0
457;0.0500199981033802;0.21789199113845825;1.0592039823532104;0.16396799683570862;0.06831999868154526;1.1956000328063965;-28.64750099182129;12.949999809265137;-38.0931282043457
459;0.0;0.0;0.0;0.16396799683570862;0.08003199845552444;1.1712000370025635;0.0;0.0;0.0
461;0.0;0.0;0.0;0.16787199676036835;0.07222399860620499;1.146799921989441;0.0;0.0;0.0
463;0.0;0.0;0.0;0.19910399615764618;0.044895999133586884;1.1672959327697754;0.0;0.0;0.0
465;0.06441599875688553;0.1815359890460968;1.0413919687271118;0.1756799966096878;0.04879999905824661;1.158511996269226;-26.82750129699707;10.920000076293945;-32.28312683105469
467;0.0;0.0;0.0;0.19519999623298645;0.037087999284267426;1.150704026222229;0.0;0.0;0.0
469;0.0;0.0;0.0;0.19129599630832672;0.05270399898290634;1.1546080112457275;0.0;0.0;0.0
471;0.0;0.0;0.0;0.17177599668502808;0.029279999434947968;1.1790080070495605;0.0;0.0;0.0
474;0.06392800062894821;0.1617719978094101;1.0294359922409058;0.1756799966096878;0.0058559998869895935;1.146799921989441;-22.5575008392334;9.869999885559082;-27.453125
476;0.0;0.0;0.0;0.1600639969110489;0.044895999133586884;1.175104022026062;0.0;0.0;0.0
478;0.0;0.0;0.0;0.15615999698638916;0.0331839993596077;1.182911992073059;0.0;0.0;0.0
480;0.0;0.0;0.0;0.17177599668502808;0.05270399898290634;1.175104022026062;0.0;0.0;0.0
482;0.04806799814105034;0.17372798919677734;1.0413919687271118;0.1600639969110489;0.05270399898290634;1.158511996269226;-16.957500457763672;6.720000267028809;-24.653125762939453
484;0.0;0.0;0.0;0.18348799645900726;0.06441599875688553;1.1868159770965576;0.0;0.0;0.0
486;0.0;0.0;0.0;0.17177599668502808;0.08393599838018417;1.1877919435501099;0.0;0.0;0.0
488;0.0;0.0;0.0;0.1756799966096878;0.0605119988322258;1.1790080070495605;0.0;0.0;0.0
491;0.05782799795269966;0.20935200154781342;1.063107967376709;0.2030079960823059;0.0878399983048439;1.207311987876892;-10.867500305175781;3.1500000953674316;-23.04312515258789
493;0.0;0.0;0.0;0.21862399578094482;0.10345599800348282;1.2121919393539429;0.0;0.0;0.0
495;0.0;0.0;0.0;0.2030079960823059;0.11907199770212173;1.223904013633728;0.0;0.0;0.0
497;0.0;0.0;0.0;0.20691199600696564;0.10345599800348282;1.248304009437561;0.0;0.0;0.0
499;0.08369199931621552;0.2420479953289032;1.0948280096054077;0.24595199525356293;0.13078400492668152;1.223904013633728;-5.337500095367432;2.0299999713897705;-21.36312484741211
501;0.0;0.0;0.0;0.230335995554924;0.11907199770212173;1.2356159687042236;0.0;0.0;0.0
503;0.0;0.0;0.0;0.2420479953289032;0.12297599762678146;1.2600159645080566;0.0;0.0;0.0
505;0.0;0.0;0.0;0.2654719948768616;0.13468798995018005;1.2395199537277222;0.0;0.0;0.0
508;0.12541599571704865;0.2588839828968048;1.1165440082550049;0.26156800985336304;0.13078400492668152;1.248304009437561;-1.277500033378601;2.309999942779541;-19.123125076293945
510;0.0;0.0;0.0;0.27718400955200195;0.1424959897994995;1.2522079944610596;0.0;0.0;0.0
512;0.0;0.0;0.0;0.28889599442481995;0.14640000462532043;1.2160959243774414;0.0;0.0;0.0
514;0.0;0.0;0.0;0.30451199412345886;0.10735999792814255;1.223904013633728;0.0;0.0;0.0
516;0.16274799406528473;0.2622999846935272;1.1048319339752197;0.28889599442481995;0.15030398964881897;1.2278079986572266;1.662500023841858;4.340000152587891;-16.04312515258789
518;0.0;0.0;0.0;0.3201279938220978;0.15030398964881897;1.2160959243774414;0.0;0.0;0.0
520;0.0;0.0;0.0;0.3201279938220978;0.16201600432395935;1.207311987876892;0.0;0.0;0.0
522;0.0;0.0;0.0;0.32793599367141724;0.1424959897994995;1.199504017829895;0.0;0.0;0.0
525;0.19227199256420135;0.2752319872379303;1.087507963180542;0.32793599367141724;0.15030398964881897;1.2278079986572266;4.672499656677246;5.25;-12.123125076293945
527;0.0;0.0;0.0;0.3240320086479187;0.15811198949813843;1.2160959243774414;0.0;0.0;0.0
529;0.0;0.0;0.0;0.33183997869491577;0.1698240041732788;1.223904013633728;0.0;0.0;0.0
531;0.0;0.0;0.0;0.3513599932193756;0.16201600432395935;1.2034080028533936;0.0;0.0;0.0
533;0.23960798978805542;0.284991979598999;1.093608021736145;0.3903999924659729;0.17372798919677734;1.2112159729003906;7.472499847412109;6.230000019073486;-7.92312479019165
535;0.0;0.0;0.0;0.3903999924659729;0.15908800065517426;1.207311987876892;0.0;0.0;0.0
537;0.0;0.0;0.0;0.4206559956073761;0.1395680010318756;1.199504017829895;0.0;0.0;0.0
539;0.0;0.0;0.0;0.42455998063087463;0.13176000118255615;1.2200000286102295;0.0;0.0;0.0
542;0.29353198409080505;0.27498799562454224;1.0828720331192017;0.45579198002815247;0.13566400110721588;1.2160959243774414;9.572500228881836;11.0600004196167;-4.563124656677246
544;0.0;0.0;0.0;0.47921597957611084;0.1512800008058548;1.231711983680725;0.0;0.0;0.0
546;0.0;0.0;0.0;0.47921597957611084;0.14347200095653534;1.2034080028533936;0.0;0.0;0.0
548;0.0;0.0;0.0;0.4987359941005707;0.13566400110721588;1.2151199579238892;0.0;0.0;0.0
550;0.35989999771118164;0.28011199831962585;1.0872639417648315;0.522159993648529;0.18251200020313263;1.231711983680725;12.372499465942383;16.239999771118164;-1.3431249856948853
552;0.0;0.0;0.0;0.5299679636955261;0.1542080044746399;1.2160959243774414;0.0;0.0;0.0
554;0.0;0.0;0.0;0.5065439939498901;0.115167997777462;1.2356159687042236;0.0;0.0;0.0
556;0.0;0.0;0.0;0.5260639786720276;0.13468798995018005;1.2688000202178955;0.0;0.0;0.0
559;0.4101639986038208;0.2840159833431244;1.1062959432601929;0.5299679636955261;0.15030398964881897;1.223904013633728;15.732500076293945;19.8799991607666;3.1368749141693115
561;0.0;0.0;0.0;0.5533919930458069;0.13859200477600098;1.2766079902648926;0.0;0.0;0.0
563;0.0;0.0;0.0;0.537775993347168;0.16591998934745789;1.297104001045227;0.0;0.0;0.0
565;0.0;0.0;0.0;0.537775993347168;0.15811198949813843;1.2932000160217285;0.0;0.0;0.0
567;0.42846399545669556;0.2820639908313751;1.1436280012130737;0.5338720083236694;0.13078400492668152;1.2805119752883911;18.252500534057617;20.860000610351562;8.1068754196167
569;0.0;0.0;0.0;0.5299679636955261;0.15030398964881897;1.2805119752883911;0.0;0.0;0.0
571;0.0;0.0;0.0;0.5416799783706665;0.1268799901008606;1.2932000160217285;0.0;0.0;0.0
573;0.0;0.0;0.0;0.545583963394165;0.13859200477600098;1.2805119752883911;0.0;0.0;0.0
576;0.4189479947090149;0.26376399397850037;1.1526559591293335;0.5533919930458069;0.10735999792814255;1.2688000202178955;17.97249984741211;19.600000381469727;12.866875648498535
578;0.0;0.0;0.0;0.522159993648529;0.09955199807882309;1.2805119752883911;0.0;0.0;0.0
580;0.0;0.0;0.0;0.48311999440193176;0.09564799815416336;1.256111979484558;0.0;0.0;0.0
582;0.0;0.0;0.0;0.5065439939498901;0.0878399983048439;1.248304009437561;0.0;0.0;0.0
584;0.38478800654411316;0.2286279946565628;1.1292319297790527;0.4987359941005707;0.08003199845552444;1.2278079986572266;14.822500228881836;18.200000762939453;15.666874885559082
586;0.0;0.0;0.0;0.4909279942512512;0.05660799890756607;1.2444000244140625;0.0;0.0;0.0
588;0.0;0.0;0.0;0.522159993648529;0.0878399983048439;1.248304009437561;0.0;0.0;0.0
590;0.0;0.0;0.0;0.5182560086250305;0.07222399860620499;1.256111979484558;0.0;0.0;0.0
593;0.3882039785385132;0.20861999690532684;1.1245959997177124;0.5104479789733887;0.11126399785280228;1.297104001045227;10.202499389648438;17.010000228881836;17.626874923706055
595;0.0;0.0;0.0;0.537775993347168;0.07222399860620499;1.2688000202178955;0.0;0.0;0.0
597;0.0;0.0;0.0;0.537775993347168;0.09174399822950363;1.2805119752883911;0.0;0.0;0.0
599;0.0;0.0;0.0;0.5494880080223083;0.10345599800348282;1.297104001045227;0.0;0.0;0.0
601;0.42382800579071045;0.22081999480724335;1.1475319862365723;0.5690079927444458;0.06831999868154526;1.2932000160217285;3.762500047683716;15.260000228881836;22.526874542236328
603;0.0;0.0;0.0;0.545583963394165;0.10052800178527832;1.2805119752883911;0.0;0.0;0.0
605;0.0;0.0;0.0;0.5729119777679443;0.08881600201129913;1.28929603099823;0.0;0.0;0.0
607;0.0;0.0;0.0;0.522159993648529;0.06929600238800049;1.2932000160217285;0.0;0.0;0.0
610;0.4260239899158478;0.2198439985513687;1.1616840362548828;0.537775993347168;0.0849120020866394;1.3010079860687256;-2.3975000381469727;12.109999656677246;30.43687629699707
612;0.0;0.0;0.0;0.5299679636955261;0.06929600238800049;1.2883199453353882;0.0;0.0;0.0
614;0.0;0.0;0.0;0.537775993347168;0.06929600238800049;1.3088159561157227;0.0;0.0;0.0
616;0.0;0.0;0.0;0.5299679636955261;0.057583998888731;1.2688000202178955;0.0;0.0;0.0
618;0.4138239920139313;0.18299999833106995;1.1519240140914917;0.5338720083236694;0.010735999792814255;1.248304009437561;-6.177500247955322;8.890000343322754;38.9068717956543
620;0.0;0.0;0.0;0.561199963092804;0.009759999811649323;1.248304009437561;0.0;0.0;0.0
623;0.0;0.0;0.0;0.5533919930458069;-0.0331839993596077;1.2356159687042236;0.0;0.0;0.0
625;0.0;0.0;0.0;0.5768159627914429;-0.013663999736309052;1.2356159687042236;0.0;0.0;0.0
627;0.4409079849720001;0.11785199493169785;1.1023919582366943;0.5924319624900818;-0.044895999133586884;1.2034080028533936;-4.497500419616699;7.070000171661377;45.416873931884766
629;0.0;0.0;0.0;0.5963360071182251;-0.07612799853086472;1.1877919435501099;0.0;0.0;0.0
631;0.0;0.0;0.0;0.5885279774665833;-0.06831999868154526;1.1916959285736084;0.0;0.0;0.0
633;0.0;0.0;0.0;0.5768159627914429;-0.07222399860620499;1.2160959243774414;0.0;0.0;0.0
635;0.4589639902114868;0.06612399965524673;1.0721359252929688;0.5729119777679443;-0.06831999868154526;1.207311987876892;2.0824999809265137;6.440000057220459;49.12687301635742
637;0.0;0.0;0.0;0.5846239924430847;-0.10345599800348282;1.1877919435501099;0.0;0.0;0.0
639;0.0;0.0;0.0;0.6002399921417236;-0.07612799853086472;1.2112159729003906;0.0;0.0;0.0
642;0.0;0.0;0.0;0.5807200074195862;-0.09564799815416336;1.1956000328063965;0.0;0.0;0.0
644;0.46408799290657043;0.03415999934077263;1.0618879795074463;0.5924319624900818;-0.13078400492668152;1.1916959285736084;8.732500076293945;5.880000114440918;49.47687530517578
646;0.0;0.0;0.0;0.5690079927444458;-0.11126399785280228;1.1712000370025635;0.0;0.0;0.0
648;0.0;0.0;0.0;0.6002399921417236;-0.1268799901008606;1.175104022026062;0.0;0.0;0.0
650;0.0;0.0;0.0;0.5885279774665833;-0.11126399785280228;1.1145919561386108;0.0;0.0;0.0
652;0.4714079797267914;0.011467999778687954;1.040903925895691;0.5885279774665833;-0.1542080044746399;1.1428959369659424;13.0024995803833;6.440000057220459;47.02687454223633
654;0.0;0.0;0.0;0.5651040077209473;-0.13859200477600098;1.1302080154418945;0.0;0.0;0.0
656;0.0;0.0;0.0;0.5963360071182251;-0.14640000462532043;1.1184959411621094;0.0;0.0;0.0
659;0.0;0.0;0.0;0.6158559918403625;-0.15030398964881897;1.1106879711151123;0.0;0.0;0.0
661;0.4740919768810272;-0.01903199963271618;0.9945439696311951;0.5651040077209473;-0.1698240041732788;1.0901919603347778;15.032500267028809;7.980000019073486;42.68687438964844
663;0.0;0.0;0.0;0.5807200074195862;-0.1698240041732788;1.1184959411621094;0.0;0.0;0.0
665;0.0;0.0;0.0;0.6041439771652222;-0.1815359890460968;1.073599934577942;0.0;0.0;0.0
667;0.0;0.0;0.0;0.5572959780693054;-0.16201600432395935;1.0696959495544434;0.0;0.0;0.0
669;0.46799197793006897;-0.02757199853658676;0.9559919834136963;0.5572959780693054;-0.15030398964881897;1.0696959495544434;14.892499923706055;12.319999694824219;35.96687316894531
671;0.0;0.0;0.0;0.5768159627914429;-0.1542080044746399;1.0169919729232788;0.0;0.0;0.0
673;0.0;0.0;0.0;0.5572959780693054;-0.18544000387191772;1.0335839986801147;0.0;0.0;0.0
676;0.0;0.0;0.0;0.5651040077209473;-0.18934398889541626;0.9847840070724487;0.0;0.0;0.0
678;0.44603198766708374;-0.03757599741220474;0.8898679614067078;0.561199963092804;-0.1815359890460968;1.0003999471664429;14.122499465942383;15.75;29.036874771118164
680;0.0;0.0;0.0;0.5846239924430847;-0.16201600432395935;1.0003999471664429;0.0;0.0;0.0
682;0.0;0.0;0.0;0.5768159627914429;-0.19715198874473572;1.0003999471664429;0.0;0.0;0.0
684;0.0;0.0;0.0;0.5768159627914429;-0.13859200477600098;1.0130879878997803;0.0;0.0;0.0
686;0.4445679783821106;-0.028060000389814377;0.8720560073852539;0.5690079927444458;-0.13468798995018005;1.0208959579467773;14.542499542236328;16.309999465942383;23.086875915527344
688;0.0;0.0;0.0;0.5416799783706665;-0.13468798995018005;1.0326080322265625;0.0;0.0;0.0
690;0.0;0.0;0.0;0.5182560086250305;-0.16201600432395935;1.0208959579467773;0.0;0.0;0.0
693;0.0;0.0;0.0;0.5182560086250305;-0.16591998934745789;1.0052800178527832;0.0;0.0;0.0
695;0.407723993062973;-0.017079999670386314;0.8884040117263794;0.5416799783706665;-0.17372798919677734;1.0374879837036133;12.932499885559082;16.59000015258789;19.72687530517578
697;0.0;0.0;0.0;0.5143519639968872;-0.13859200477600098;1.0247999429702759;0.0;0.0;0.0
699;0.0;0.0;0.0;0.49483197927474976;-0.16591998934745789;1.0413919687271118;0.0;0.0;0.0
701;0.0;0.0;0.0;0.522159993648529;-0.14640000462532043;1.0169919729232788;0.0;0.0;0.0
703;0.39308398962020874;-0.018300000578165054;0.901091992855072;0.5143519639968872;-0.1424959897994995;1.0374879837036133;10.41249942779541;13.020000457763672;19.586875915527344
705;0.0;0.0;0.0;0.5036159753799438;-0.18934398889541626;1.0531039237976074;0.0;0.0;0.0
707;0.0;0.0;0.0;0.5192319750785828;-0.16201600432395935;1.0374879837036133;0.0;0.0;0.0
710;0.0;0.0;0.0;0.5114240050315857;-0.1698240041732788;1.0413919687271118;0.0;0.0;0.0
712;0.39649999141693115;-0.03562399744987488;0.9167079925537109;0.5192319750785828;-0.1698240041732788;1.0491999387741089;6.072499752044678;10.010000228881836;20.70687484741211
714;0.0;0.0;0.0;0.5231360197067261;-0.20105600357055664;1.0335839986801147;0.0;0.0;0.0
716;0.0;0.0;0.0;0.48019200563430786;-0.18934398889541626;1.0452959537506104;0.0;0.0;0.0
718;0.0;0.0;0.0;0.48019200563430786;-0.18544000387191772;1.0452959537506104;0.0;0.0;0.0
720;0.38332399725914;-0.05563199892640114;0.912559986114502;0.5036159753799438;-0.19324800372123718;1.0452959537506104;-1.1375000476837158;7.210000038146973;21.126874923706055
722;0.0;0.0;0.0;0.48311999440193176;-0.1542080044746399;1.0531039237976074;0.0;0.0;0.0
724;0.0;0.0;0.0;0.4870239794254303;-0.2791360020637512;1.0169919729232788;0.0;0.0;0.0
727;0.0;0.0;0.0;0.4440799951553345;-0.15811198949813843;1.0657919645309448;0.0;0.0;0.0
729;0.3537999987602234;-0.06197600066661835;0.9174399971961975;0.4294399917125702;-0.19715198874473572;1.0531039237976074;-11.077500343322754;6.159999847412109;21.196874618530273
731;0.0;0.0;0.0;0.436271995306015;-0.2596159875392914;1.0208959579467773;0.0;0.0;0.0
733;0.0;0.0;0.0;0.44017598032951355;-0.2518079876899719;1.0374879837036133;0.0;0.0;0.0
735;0.0;0.0;0.0;0.4440799951553345;-0.29865598678588867;1.0247999429702759;0.0;0.0;0.0
737;0.34013599157333374;-0.13859200477600098;0.9145119786262512;0.46750399470329285;-0.3025600016117096;1.0413919687271118;-21.50749969482422;7.630000114440918;21.75687599182129
739;0.0;0.0;0.0;0.4987359941005707;-0.32207998633384705;1.0052800178527832;0.0;0.0;0.0
741;0.0;0.0;0.0;0.48311999440193176;-0.34940800070762634;0.9886879920959473;0.0;0.0;0.0
744;0.0;0.0;0.0;0.5026400089263916;-0.3689279854297638;0.9925919771194458;0.0;0.0;0.0
746;0.370635986328125;-0.2030079960823059;0.867419958114624;0.4870239794254303;-0.3533119857311249;0.9720959663391113;-22.977500915527344;10.989999771118164;30.50687599182129
748;0.0;0.0;0.0;0.49483197927474976;-0.3455039858818054;0.9642879962921143;0.0;0.0;0.0
750;0.0;0.0;0.0;0.47921597957611084;-0.3728320002555847;0.9808799624443054;0.0;0.0;0.0
752;0.0;0.0;0.0;0.4714079797267914;-0.40406399965286255;0.9398880004882812;0.0;0.0;0.0
754;0.35111600160598755;-0.23204399645328522;0.8256959915161133;0.4596959948539734;-0.3689279854297638;0.9232959747314453;-17.447500228881836;14.630000114440918;40.93687438964844
756;0.0;0.0;0.0;0.42846399545669556;-0.36502400040626526;0.9398880004882812;0.0;0.0;0.0
758;0.0;0.0;0.0;0.4870239794254303;-0.3337920010089874;0.9437919855117798;0.0;0.0;0.0
761;0.0;0.0;0.0;0.46750399470329285;-0.36502400040626526;0.9603840112686157;0.0;0.0;0.0
763;0.3508719801902771;-0.236191987991333;0.818619966506958;0.4909279942512512;-0.3533119857311249;0.9476959705352783;-10.727499961853027;18.1299991607666;47.37687301635742
765;0.0;0.0;0.0;0.47921597957611084;-0.3806400001049042;0.9681919813156128;0.0;0.0;0.0
767;0.0;0.0;0.0;0.4870239794254303;-0.3806400001049042;0.9847840070724487;0.0;0.0;0.0
769;0.0;0.0;0.0;0.45579198002815247;-0.3845439851284027;1.0003999471664429;0.0;0.0;0.0
771;0.35819199681282043;-0.24424399435520172;0.8518039584159851;0.46750399470329285;-0.3806400001049042;0.9964959621429443;-4.637500286102295;23.799999237060547;52.76687240600586
774;0.0;0.0;0.0;0.4635999798774719;-0.37673598527908325;1.0413919687271118;0.0;0.0;0.0
775;0.0;0.0;0.0;0.46750399470329285;-0.3845439851284027;1.0531039237976074;0.0;0.0;0.0
778;0.0;0.0;0.0;0.4323679804801941;-0.3845439851284027;1.0374879837036133;0.0;0.0;0.0
780;0.32915598154067993;-0.2601040005683899;0.9071919918060303;0.4206559956073761;-0.4079679846763611;1.0287039279937744;-1.1375000476837158;28.06999969482422;57.31687545776367
782;0.0;0.0;0.0;0.44017598032951355;-0.4079679846763611;1.0169919729232788;0.0;0.0;0.0
784;0.0;0.0;0.0;0.41284799575805664;-0.4470079839229584;1.0287039279937744;0.0;0.0;0.0
786;0.0;0.0;0.0;0.4167519807815552;-0.4079679846763611;1.0452959537506104;0.0;0.0;0.0
788;0.3003639876842499;-0.28938400745391846;0.9132919907569885;0.40991997718811035;-0.4352959990501404;1.0287039279937744;-0.1574999988079071;29.260000228881836;61.6568717956543
790;0.0;0.0;0.0;0.37966400384902954;-0.4665279984474182;1.0413919687271118;0.0;0.0;0.0
792;0.0;0.0;0.0;0.3601439893245697;-0.4899519979953766;1.0091840028762817;0.0;0.0;0.0
795;0.0;0.0;0.0;0.36795198917388916;-0.5172799825668335;0.9925919771194458;0.0;0.0;0.0
797;0.25449198484420776;-0.34184399247169495;0.8864519596099854;0.3328160047531128;-0.5485119819641113;0.9964959621429443;0.4725000262260437;25.200000762939453;65.64688110351562
799;0.0;0.0;0.0;0.3445279896259308;-0.521183967590332;0.9642879962921143;0.0;0.0;0.0
801;0.0;0.0;0.0;0.32891198992729187;-0.536799967288971;0.9642879962921143;0.0;0.0;0.0
803;0.0;0.0;0.0;0.3211039900779724;-0.5328959822654724;0.9037759900093079;0.0;0.0;0.0
805;0.20374000072479248;-0.3882039785385132;0.8193519711494446;0.28596800565719604;-0.521183967590332;0.9076799750328064;5.372499942779541;16.030000686645508;68.30687713623047
807;0.0;0.0;0.0;0.28889599442481995;-0.5045920014381409;0.9193919897079468;0.0;0.0;0.0
809;0.0;0.0;0.0;0.23423999547958374;-0.5670560002326965;0.9076799750328064;0.0;0.0;0.0
812;0.0;0.0;0.0;0.27327999472618103;-0.5475360155105591;0.9232959747314453;0.0;0.0;0.0
814;0.13932399451732635;-0.4021120071411133;0.7876319885253906;0.24595199525356293;-0.5397279858589172;0.9193919897079468;9.992499351501465;7.349999904632568;69.00687408447266
816;0.0;0.0;0.0;0.20691199600696564;-0.5436319708824158;0.9320799708366394;0.0;0.0;0.0
818;0.0;0.0;0.0;0.20691199600696564;-0.5709599852561951;0.9154880046844482;0.0;0.0;0.0
820;0.0;0.0;0.0;0.22643199563026428;-0.5787680149078369;0.9359839558601379;0.0;0.0;0.0
822;0.10028399527072906;-0.4287079870700836;0.8012959957122803;0.21081599593162537;-0.5904799699783325;0.9359839558601379;10.692500114440918;0.3499999940395355;67.39688110351562
824;0.0;0.0;0.0;0.2030079960823059;-0.5836479663848877;0.9515999555587769;0.0;0.0;0.0
827;0.0;0.0;0.0;0.20691199600696564;-0.5836479663848877;0.9476959705352783;0.0;0.0;0.0
829;0.0;0.0;0.0;0.19129599630832672;-0.5719360113143921;0.9359839558601379;0.0;0.0;0.0
831;0.07149200141429901;-0.4484719932079315;0.8173999786376953;0.16396799683570862;-0.5914559960365295;0.9437919855117798;9.22249984741211;-1.3300000429153442;65.01687622070312
833;0.0;0.0;0.0;0.18348799645900726;-0.5992639660835266;0.9193919897079468;0.0;0.0;0.0
835;0.0;0.0;0.0;0.15615999698638916;-0.5992639660835266;0.9681919813156128;0.0;0.0;0.0
837;0.0;0.0;0.0;0.09857599437236786;-0.5797439813613892;0.9681919813156128;0.0;0.0;0.0
839;0.01512799970805645;-0.4601839780807495;0.8271600008010864;0.10540799796581268;-0.587552011013031;0.9525759816169739;4.53249979019165;2.1700000762939453;61.93687438964844
841;0.0;0.0;0.0;0.09759999811649323;-0.6383039951324463;0.9564799666404724;0.0;0.0;0.0
844;0.0;0.0;0.0;0.07124799489974976;-0.6304959654808044;0.9437919855117798;0.0;0.0;0.0
846;0.0;0.0;0.0;0.03611199930310249;-0.6344000101089478;0.9886879920959473;0.0;0.0;0.0
848;-0.0500199981033802;-0.4811680018901825;0.8247199654579163;0.05172799900174141;-0.6383039951324463;0.9476959705352783;-1.0674999952316284;6.230000019073486;57.17687225341797
850;0.0;0.0;0.0;0.020495999604463577;-0.6226879954338074;0.9476959705352783;0.0;0.0;0.0
852;0.0;0.0;0.0;0.032207999378442764;-0.6265919804573059;0.9720959663391113;0.0;0.0;0.0
854;0.0;0.0;0.0;0.004879999905824661;-0.6461119651794434;0.9437919855117798;0.0;0.0;0.0
856;-0.10369999706745148;-0.4970279932022095;0.8164240121841431;-0.018543999642133713;-0.6422079801559448;0.9232959747314453;-3.0975000858306885;8.539999961853027;48.916873931884766
859;0.0;0.0;0.0;-0.010735999792814255;-0.6148799657821655;0.9564799666404724;0.0;0.0;0.0
861;0.0;0.0;0.0;0.00878399983048439;-0.6422079801559448;0.9193919897079468;0.0;0.0;0.0
863;0.0;0.0;0.0;-0.03415999934077263;-0.6187840104103088;0.9603840112686157;0.0;0.0;0.0
865;-0.13590799272060394;-0.49531999230384827;0.8105679750442505;-0.014639999717473984;-0.6187840104103088;0.9398880004882812;-1.6974999904632568;8.329999923706055;39.88687515258789
867;0.0;0.0;0.0;-0.04196799919009209;-0.5953599810600281;0.9398880004882812;0.0;0.0;0.0
869;0.0;0.0;0.0;-0.02635199949145317;-0.6031680107116699;0.9320799708366394;0.0;0.0;0.0
871;0.0;0.0;0.0;-0.06148799881339073;-0.6383039951324463;0.9476959705352783;0.0;0.0;0.0
873;-0.16030800342559814;-0.4858039915561676;0.8093479871749878;-0.053679998964071274;-0.6265919804573059;0.9398880004882812;0.612500011920929;8.1899995803833;31.836875915527344
876;0.0;0.0;0.0;-0.08881600201129913;-0.5953599810600281;0.9476959705352783;0.0;0.0;0.0
878;0.0;0.0;0.0;-0.06929600238800049;-0.5992639660835266;0.9808799624443054;0.0;0.0;0.0
880;0.0;0.0;0.0;-0.03806399926543236;-0.6148799657821655;0.9398880004882812;0.0;0.0;0.0
882;-0.17958399653434753;-0.47262799739837646;0.8300879597663879;-0.057583998888731;-0.6070719957351685;0.9437919855117798;3.9024999141693115;6.789999961853027;24.486875534057617
884;0.0;0.0;0.0;-0.07710400223731995;-0.5914559960365295;0.9603840112686157;0.0;0.0;0.0
886;0.0;0.0;0.0;-0.09662400186061859;-0.610975980758667;0.9642879962921143;0.0;0.0;0.0
888;0.0;0.0;0.0;-0.0849120020866394;-0.5797439813613892;0.9720959663391113;0.0;0.0;0.0
890;-0.21106000244617462;-0.4584759771823883;0.8391159772872925;-0.11614400148391724;-0.5758399963378906;0.9720959663391113;7.472499847412109;4.340000152587891;18.816875457763672
893;0.0;0.0;0.0;-0.0849120020866394;-0.5602239966392517;1.0208959579467773;0.0;0.0;0.0
895;0.0;0.0;0.0;-0.10052800178527832;-0.5328959822654724;1.0169919729232788;0.0;0.0;0.0
897;0.0;0.0;0.0;-0.10443200170993805;-0.5289919972419739;1.0169919729232788;0.0;0.0;0.0
899;-0.2252119928598404;-0.4096759855747223;0.8825479745864868;-0.08100800216197968;-0.5407040119171143;1.0335839986801147;9.782500267028809;0.0;12.586874961853027
901;0.0;0.0;0.0;-0.14347200095653534;-0.5055679678916931;1.0374879837036133;0.0;0.0;0.0
903;0.0;0.0;0.0;-0.15518400073051453;-0.4938559830188751;1.0618879795074463;0.0;0.0;0.0
905;0.0;0.0;0.0;-0.19715198874473572;-0.513375997543335;1.0862879753112793;0.0;0.0;0.0
907;-0.28426000475883484;-0.3694159984588623;0.9486719965934753;-0.22448000311851501;-0.5055679678916931;1.122399926185608;8.452499389648438;-3.569999933242798;6.91687536239624
909;0.0;0.0;0.0;-0.23228800296783447;-0.45871999859809875;1.175104022026062;0.0;0.0;0.0
912;0.0;0.0;0.0;-0.22838398814201355;-0.4509119987487793;1.1877919435501099;0.0;0.0;0.0
914;0.0;0.0;0.0;-0.24009600281715393;-0.4274879992008209;1.1916959285736084;0.0;0.0;0.0
916;-0.35648399591445923;-0.31744399666786194;1.0496879816055298;-0.25571200251579285;-0.4001599848270416;1.2365919351577759;3.8324999809265137;-8.819999694824219;-1.553125023841858
918;0.0;0.0;0.0;-0.2752319872379303;-0.3845439851284027;1.2356159687042236;0.0;0.0;0.0
920;0.0;0.0;0.0;-0.2791360020637512;-0.3845439851284027;1.2766079902648926;0.0;0.0;0.0
922;0.0;0.0;0.0;-0.2752319872379303;-0.37673598527908325;1.2932000160217285;0.0;0.0;0.0
924;-0.3955239951610565;-0.25058799982070923;1.1348439455032349;-0.2908479869365692;-0.36111998558044434;1.3010079860687256;-4.427500247955322;-15.75;-10.163125038146973
927;0.0;0.0;0.0;-0.2635200023651123;-0.3455039858818054;1.2844159603118896;0.0;0.0;0.0
929;0.0;0.0;0.0;-0.27132800221443176;-0.3455039858818054;1.2932000160217285;0.0;0.0;0.0
931;0.0;0.0;0.0;-0.2596159875392914;-0.32207998633384705;1.297104001045227;0.0;0.0;0.0
933;-0.3979640007019043;-0.2025199979543686;1.1650999784469604;-0.26742398738861084;-0.32207998633384705;1.297104001045227;-13.667500495910645;-23.3799991607666;-16.253124237060547
935;0.0;0.0;0.0;-0.2635200023651123;-0.3337920010089874;1.2844159603118896;0.0;0.0;0.0
937;0.0;0.0;0.0;-0.27132800221443176;-0.33769598603248596;1.28929603099823;0.0;0.0;0.0
939;0.0;0.0;0.0;-0.2596159875392914;-0.3455039858818054;1.2883199453353882;0.0;0.0;0.0
941;-0.3850319981575012;-0.2054480016231537;1.1470439434051514;-0.24399998784065247;-0.3533119857311249;1.272704005241394;-21.157501220703125;-28.559999465942383;-21.99312400817871
944;0.0;0.0;0.0;-0.2479040026664734;-0.36111998558044434;1.2356159687042236;0.0;0.0;0.0
946;0.0;0.0;0.0;-0.24399998784065247;-0.33769598603248596;1.231711983680725;0.0;0.0;0.0
948;0.0;0.0;0.0;-0.24399998784065247;-0.3533119857311249;1.223904013633728;0.0;0.0;0.0
950;-0.35745999217033386;-0.21862399578094482;1.1045880317687988;-0.24009600281715393;-0.3337920010089874;1.2121919393539429;-26.61750030517578;-29.81999969482422;-29.763124465942383
952;0.0;0.0;0.0;-0.19324800372123718;-0.34940800070762634;1.2112159729003906;0.0;0.0;0.0
954;0.0;0.0;0.0;-0.20495998859405518;-0.3533119857311249;1.1956000328063965;0.0;0.0;0.0
956;0.0;0.0;0.0;-0.18544000387191772;-0.3533119857311249;1.231711983680725;0.0;0.0;0.0
958;-0.32427600026130676;-0.21398799121379852;1.0670119524002075;-0.15030398964881897;-0.3572160005569458;1.207311987876892;-28.64750099182129;-30.65999984741211;-34.173126220703125
961;0.0;0.0;0.0;-0.16201600432395935;-0.3455039858818054;1.1956000328063965;0.0;0.0;0.0
963;0.0;0.0;0.0;-0.15811198949813843;-0.3806400001049042;1.1877919435501099;0.0;0.0;0.0
965;0.0;0.0;0.0;-0.16201600432395935;-0.3455039858818054;1.2112159729003906;0.0;0.0;0.0
967;-0.2832840085029602;-0.21423199772834778;1.0670119524002075;-0.13566400110721588;-0.32598400115966797;1.2112159729003906;-26.967500686645508;-31.149999618530273;-34.523128509521484
969;0.0;0.0;0.0;-0.1512800008058548;-0.32598400115966797;1.2034080028533936;0.0;0.0;0.0
971;0.0;0.0;0.0;-0.12004800140857697;-0.3572160005569458;1.207311987876892;0.0;0.0;0.0
973;0.0;0.0;0.0;-0.11614400148391724;-0.33769598603248596;1.2034080028533936;0.0;0.0;0.0
975;-0.24521999061107635;-0.2025199979543686;1.067255973815918;-0.10833600163459778;-0.3298879861831665;1.1916959285736084;-22.977500915527344;-29.049999237060547;-33.05312728881836
978;0.0;0.0;0.0;-0.10443200170993805;-0.3298879861831665;1.199504017829895;0.0;0.0;0.0
980;0.0;0.0;0.0;-0.11224000155925751;-0.3416000008583069;1.199504017829895;0.0;0.0;0.0
982;0.0;0.0;0.0;-0.13566400110721588;-0.33769598603248596;1.1712000370025635;0.0;0.0;0.0
984;-0.24107199907302856;-0.2117919921875;1.0518839359283447;-0.14347200095653534;-0.3533119857311249;1.1633919477462769;-17.727500915527344;-23.940000534057617;-31.653125762939453
986;0.0;0.0;0.0;-0.13176000118255615;-0.36111998558044434;1.146799921989441;0.0;0.0;0.0
988;0.0;0.0;0.0;-0.1424959897994995;-0.3337920010089874;1.175104022026062;0.0;0.0;0.0
990;0.0;0.0;0.0;-0.1512800008058548;-0.3416000008583069;1.1672959327697754;0.0;0.0;0.0
992;-0.26278799772262573;-0.2176479995250702;1.040903925895691;-0.17763200402259827;-0.3533119857311249;1.1672959327697754;-11.567500114440918;-19.389999389648438;-30.393125534057617
995;0.0;0.0;0.0;-0.16201600432395935;-0.34940800070762634;1.182911992073059;0.0;0.0;0.0
997;0.0;0.0;0.0;-0.1815359890460968;-0.36111998558044434;1.2034080028533936;0.0;0.0;0.0
999;0.0;0.0;0.0;-0.18544000387191772;-0.34940800070762634;1.2034080028533936;0.0;0.0;0.0
1001;-0.30914798378944397;-0.2054480016231537;1.069208025932312;-0.22448000311851501;-0.3337920010089874;1.2404959201812744;-5.96750020980835;-17.5;-29.27312469482422
1003;0.0;0.0;0.0;-0.19324800372123718;-0.3142719864845276;1.2356159687042236;0.0;0.0;0.0
1005;0.0;0.0;0.0;-0.23228800296783447;-0.29475200176239014;1.2688000202178955;0.0;0.0;0.0
1007;0.0;0.0;0.0;-0.24009600281715393;-0.29475200176239014;1.3049119710922241;0.0;0.0;0.0
1009;-0.35697197914123535;-0.17323999106884003;1.1370400190353394;-0.2479040026664734;-0.3142719864845276;1.2932000160217285;-4.357500076293945;-19.46000099182129;-27.803125381469727
1012;0.0;0.0;0.0;-0.2781600058078766;-0.28303998708724976;1.2844159603118896;0.0;0.0;0.0
1014;0.0;0.0;0.0;-0.2820639908313751;-0.2635200023651123;1.345903992652893;0.0;0.0;0.0
1016;0.0;0.0;0.0;-0.27425599098205566;-0.25571200251579285;1.3176000118255615;0.0;0.0;0.0
1018;-0.3891800045967102;-0.14883999526500702;1.17876398563385;-0.2781600058078766;-0.29865598678588867;1.32150399684906;-6.177500247955322;-22.96000099182129;-26.3331241607666
1020;0.0;0.0;0.0;-0.28596800565719604;-0.2908479869365692;1.32150399684906;0.0;0.0;0.0
1022;0.0;0.0;0.0;-0.2781600058078766;-0.2791360020637512;1.3293119668960571;0.0;0.0;0.0
1024;0.0;0.0;0.0;-0.2937760055065155;-0.2908479869365692;1.3010079860687256;0.0;0.0;0.0
1026;-0.4143120050430298;-0.15347599983215332;1.1694920063018799;-0.2898719906806946;-0.31036800146102905;1.2844159603118896;-8.417500495910645;-25.549999237060547;-27.873125076293945
1029;0.0;0.0;0.0;-0.31036800146102905;-0.3025600016117096;1.2844159603118896;0.0;0.0;0.0
1031;0.0;0.0;0.0;-0.32598400115966797;-0.3142719864845276;1.248304009437561;0.0;0.0;0.0
1033;0.0;0.0;0.0;-0.3025600016117096;-0.32598400115966797;1.256111979484558;0.0;0.0;0.0
1035;-0.42553597688674927;-0.17714399099349976;1.1316720247268677;-0.29475200176239014;-0.29865598678588867;1.2444000244140625;-8.557499885559082;-28.139999389648438;-31.933124542236328
1037;0.0;0.0;0.0;-0.2908479869365692;-0.36111998558044434;1.223904013633728;0.0;0.0;0.0
1039;0.0;0.0;0.0;-0.2908479869365692;-0.33769598603248596;1.2160959243774414;0.0;0.0;0.0
1041;0.0;0.0;0.0;-0.29865598678588867;-0.32598400115966797;1.231711983680725;0.0;0.0;0.0
1043;-0.4177280068397522;-0.1925159990787506;1.097756028175354;-0.29865598678588867;-0.3181760013103485;1.2112159729003906;-7.2275004386901855;-30.799999237060547;-36.273128509521484
1046;0.0;0.0;0.0;-0.2791360020637512;-0.31036800146102905;1.2034080028533936;0.0;0.0;0.0
1048;0.0;0.0;0.0;-0.2791360020637512;-0.32598400115966797;1.2121919393539429;0.0;0.0;0.0
1050;0.0;0.0;0.0;-0.29475200176239014;-0.32207998633384705;1.2112159729003906;0.0;0.0;0.0
1052;-0.41504397988319397;-0.18714798986911774;1.0821399688720703;-0.2791360020637512;-0.30646398663520813;1.2112159729003906;-4.847500324249268;-32.060001373291016;-39.423126220703125
1054;0.0;0.0;0.0;-0.3025600016117096;-0.31036800146102905;1.207311987876892;0.0;0.0;0.0
1056;0.0;0.0;0.0;-0.31036800146102905;-0.29865598678588867;1.223904013633728;0.0;0.0;0.0
1058;0.0;0.0;0.0;-0.30646398663520813;-0.2596159875392914;1.2356159687042236;0.0;0.0;0.0
1060;-0.42846399545669556;-0.15908800065517426;1.0943399667739868;-0.3181760013103485;-0.2869440019130707;1.223904013633728;-3.0274999141693115;-33.31999969482422;-39.423126220703125
1063;0.0;0.0;0.0;-0.3142719864845276;-0.24399998784065247;1.248304009437561;0.0;0.0;0.0
1065;0.0;0.0;0.0;-0.30646398663520813;-0.2205759882926941;1.2688000202178955;0.0;0.0;0.0
1067;0.0;0.0;0.0;-0.29865598678588867;-0.26742398738861084;1.248304009437561;0.0;0.0;0.0
1069;-0.4299280047416687;-0.1193159967660904;1.1177639961242676;-0.3142719864845276;-0.25571200251579285;1.2648959159851074;-2.5374999046325684;-34.369998931884766;-37.81312561035156
1071;0.0;0.0;0.0;-0.29865598678588867;-0.2205759882926941;1.2688000202178955;0.0;0.0;0.0
1073;0.0;0.0;0.0;-0.2908479869365692;-0.2596159875392914;1.2766079902648926;0.0;0.0;0.0
1075;0.0;0.0;0.0;-0.2869440019130707;-0.22448000311851501;1.256111979484558;0.0;0.0;0.0
1077;-0.4152880012989044;-0.09906399995088577;1.1289880275726318;-0.28303998708724976;-0.2088640034198761;1.2766079902648926;-3.7274999618530273;-34.5099983215332;-36.13312530517578
1080;0.0;0.0;0.0;-0.26742398738861084;-0.25571200251579285;1.2356159687042236;0.0;0.0;0.0
1082;0.0;0.0;0.0;-0.29865598678588867;-0.24009600281715393;1.2522079944610596;0.0;0.0;0.0
1084;0.0;0.0;0.0;-0.25571200251579285;-0.2596159875392914;1.2356159687042236;0.0;0.0;0.0
1086;-0.3945479989051819;-0.10979999601840973;1.1150799989700317;-0.2596159875392914;-0.2752319872379303;1.223904013633728;-5.4775004386901855;-33.529998779296875;-34.87312698364258
1088;0.0;0.0;0.0;-0.2635200023651123;-0.2752319872379303;1.2356159687042236;0.0;0.0;0.0
1090;0.0;0.0;0.0;-0.22838398814201355;-0.27132800221443176;1.2200000286102295;0.0;0.0;0.0
1092;0.0;0.0;0.0;-0.23228800296783447;-0.33769598603248596;1.175104022026062;0.0;0.0;0.0
1094;-0.36160799860954285;-0.158843994140625;1.063107967376709;-0.22838398814201355;-0.31036800146102905;1.1428959369659424;-5.897500038146973;-31.290000915527344;-34.66312789916992
1097;0.0;0.0;0.0;-0.2088640034198761;-0.36111998558044434;1.1350879669189453;0.0;0.0;0.0
1099;0.0;0.0;0.0;-0.2205759882926941;-0.3416000008583069;1.073599934577942;0.0;0.0;0.0
1101;0.0;0.0;0.0;-0.19715198874473572;-0.3455039858818054;1.0901919603347778;0.0;0.0;0.0
1103;-0.321835994720459;-0.205935999751091;0.9747799634933472;-0.17763200402259827;-0.3572160005569458;1.0570080280303955;-3.307500123977661;-27.440000534057617;-36.97312545776367
1105;0.0;0.0;0.0;-0.16591998934745789;-0.3533119857311249;1.0374879837036133;0.0;0.0;0.0
1107;0.0;0.0;0.0;-0.1698240041732788;-0.37673598527908325;1.0287039279937744;0.0;0.0;0.0
1109;0.0;0.0;0.0;-0.19324800372123718;-0.3806400001049042;1.0169919729232788;0.0;0.0;0.0
1111;-0.2886520028114319;-0.2164279967546463;0.9008479714393616;-0.17080000042915344;-0.3337920010089874;1.0091840028762817;1.662500023841858;-21.489999771118164;-41.243125915527344
1114;0.0;0.0;0.0;-0.13566400110721588;-0.36111998558044434;1.0130879878997803;0.0;0.0;0.0
1116;0.0;0.0;0.0;-0.1424959897994995;-0.3298879861831665;1.0287039279937744;0.0;0.0;0.0
1118;0.0;0.0;0.0;-0.09662400186061859;-0.2908479869365692;1.0169919729232788;0.0;0.0;0.0
1120;-0.253028005361557;-0.18055999279022217;0.8854759931564331;-0.10443200170993805;-0.29475200176239014;1.0247999429702759;6.5625;-15.609999656677246;-43.90312576293945
1122;0.0;0.0;0.0;-0.10443200170993805;-0.2518079876899719;1.0208959579467773;0.0;0.0;0.0
1124;0.0;0.0;0.0;-0.11614400148391724;-0.24009600281715393;1.0287039279937744;0.0;0.0;0.0
1126;0.0;0.0;0.0;-0.10443200170993805;-0.24399998784065247;1.0335839986801147;0.0;0.0;0.0
1128;-0.22008799016475677;-0.11955999583005905;0.9071919918060303;-0.10443200170993805;-0.21667200326919556;1.0491999387741089;9.432499885559082;-9.800000190734863;-45.23312759399414
1131;0.0;0.0;0.0;-0.10052800178527832;-0.20105600357055664;1.0775039196014404;0.0;0.0;0.0
1133;0.0;0.0;0.0;-0.09662400186061859;-0.18934398889541626;1.0657919645309448;0.0;0.0;0.0
1135;0.0;0.0;0.0;-0.08100800216197968;-0.20105600357055664;1.0696959495544434;0.0;0.0;0.0
1137;-0.2076440006494522;-0.06954000145196915;0.9293959736824036;-0.10443200170993805;-0.18544000387191772;1.0775039196014404;10.0625;-7.699999809265137;-45.72312545776367
1139;0.0;0.0;0.0;-0.07710400223731995;-0.17763200402259827;1.0775039196014404;0.0;0.0;0.0
1141;0.0;0.0;0.0;-0.0849120020866394;-0.16201600432395935;1.0657919645309448;0.0;0.0;0.0
1143;0.0;0.0;0.0;-0.13566400110721588;-0.16201600432395935;1.0862879753112793;0.0;0.0;0.0
1145;-0.2164279967546463;-0.02781599946320057;0.9520879983901978;-0.13176000118255615;-0.13468798995018005;1.101904034614563;7.752499580383301;-8.890000343322754;-46.773128509521484
1148;0.0;0.0;0.0;-0.09272000193595886;-0.10345599800348282;1.1145919561386108;0.0;0.0;0.0
1150;0.0;0.0;0.0;-0.14347200095653534;-0.13859200477600098;1.097999930381775;0.0;0.0;0.0
1152;0.0;0.0;0.0;-0.14347200095653534;-0.10345599800348282;1.1145919561386108;0.0;0.0;0.0
1154;-0.2618120014667511;0.009759999811649323;0.9716079831123352;-0.15030398964881897;-0.11907199770212173;1.097999930381775;2.2225000858306885;-11.760000228881836;-48.73312759399414
1156;0.0;0.0;0.0;-0.1698240041732788;-0.11126399785280228;1.1184959411621094;0.0;0.0;0.0
1158;0.0;0.0;0.0;-0.19324800372123718;-0.0878399983048439;1.0940959453582764;0.0;0.0;0.0
1160;0.0;0.0;0.0;-0.1815359890460968;-0.10735999792814255;1.0940959453582764;0.0;0.0;0.0
1163;-0.29597198963165283;0.04904399812221527;0.973315954208374;-0.16591998934745789;-0.08003199845552444;1.0940959453582764;-5.197500228881836;-15.119999885559082;-52.4431266784668
1165;0.0;0.0;0.0;-0.1542080044746399;-0.06441599875688553;1.1058080196380615;0.0;0.0;0.0
1167;0.0;0.0;0.0;-0.19324800372123718;-0.040991999208927155;1.10971200466156;0.0;0.0;0.0
1169;0.0;0.0;0.0;-0.1815359890460968;-0.044895999133586884;1.1067839860916138;0.0;0.0;0.0
1171;-0.29572799801826477;0.09149999916553497;0.9735599756240845;-0.20105600357055664;-0.02537599951028824;1.097999930381775;-12.6875;-17.850000381469727;-55.9431266784668
1173;0.0;0.0;0.0;-0.19324800372123718;0.0019519999623298645;1.1145919561386108;0.0;0.0;0.0
1175;0.0;0.0;0.0;-0.15811198949813843;-0.0058559998869895935;1.1145919561386108;0.0;0.0;0.0
1177;0.0;0.0;0.0;-0.15518400073051453;0.0019519999623298645;1.1145919561386108;0.0;0.0;0.0
1179;-0.2803559899330139;0.1256600022315979;0.9806360006332397;-0.12785600125789642;0.0058559998869895935;1.101904034614563;-18.427499771118164;-20.15999984741211;-57.62312698364258
1182;0.0;0.0;0.0;-0.0849120020866394;0.0058559998869895935;1.1106879711151123;0.0;0.0;0.0
1184;0.0;0.0;0.0;-0.11614400148391724;0.009759999811649323;1.1058080196380615;0.0;0.0;0.0
1186;0.0;0.0;0.0;-0.0849120020866394;-0.013663999736309052;1.0814080238342285;0.0;0.0;0.0
1188;-0.2181359976530075;0.13371199369430542;0.9672159552574158;-0.07320000231266022;0.0058559998869895935;1.0570080280303955;-20.107500076293945;-20.719999313354492;-57.48312759399414
1190;0.0;0.0;0.0;-0.049775999039411545;0.0058559998869895935;1.0618879795074463;0.0;0.0;0.0
1192;0.0;0.0;0.0;-0.053679998964071274;0.009759999811649323;1.0531039237976074;0.0;0.0;0.0
1194;0.0;0.0;0.0;-0.04196799919009209;0.0058559998869895935;1.0579839944839478;0.0;0.0;0.0
1197;-0.16445599496364594;0.1407880038022995;0.9352520108222961;-0.014639999717473984;0.02147199958562851;1.0491999387741089;-16.39750099182129;-16.940000534057617;-56.29312515258789
1199;0.0;0.0;0.0;-0.04196799919009209;0.02147199958562851;1.0247999429702759;0.0;0.0;0.0
1201;0.0;0.0;0.0;-0.02635199949145317;0.02537599951028824;1.0452959537506104;0.0;0.0;0.0
1203;0.0;0.0;0.0;-0.014639999717473984;0.040991999208927155;1.0491999387741089;0.0;0.0;0.0
1205;-0.14737600088119507;0.16957999765872955;0.9298839569091797;0.01268799975514412;0.0605119988322258;1.073599934577942;-9.607500076293945;-13.09000015258789;-53.703128814697266
1207;0.0;0.0;0.0;-0.006831999868154526;0.07612799853086472;1.0862879753112793;0.0;0.0;0.0
1209;0.0;0.0;0.0;0.00878399983048439;0.09955199807882309;1.0823839902877808;0.0;0.0;0.0
1211;0.0;0.0;0.0;-0.010735999792814255;0.13468798995018005;1.1058080196380615;0.0;0.0;0.0
1213;-0.12492799758911133;0.24253599345684052;0.9594079852104187;-0.010735999792814255;0.14640000462532043;1.1058080196380615;-2.6075000762939453;-10.289999961853027;-48.73312759399414
1216;0.0;0.0;0.0;-0.022447999566793442;0.17372798919677734;1.1184959411621094;0.0;0.0;0.0
1218;0.0;0.0;0.0;0.00878399983048439;0.18544000387191772;1.1428959369659424;0.0;0.0;0.0
1220;0.0;0.0;0.0;0.004879999905824661;0.18544000387191772;1.1184959411621094;0.0;0.0;0.0
1222;-0.11297199875116348;0.3142719864845276;1.0030839443206787;0.028303999453783035;0.22448000311851501;1.1712000370025635;2.2925000190734863;-8.399999618530273;-44.32312774658203
1224;0.0;0.0;0.0;0.01659199967980385;0.21276798844337463;1.175104022026062;0.0;0.0;0.0
1226;0.0;0.0;0.0;0.04782399907708168;0.23228800296783447;1.158511996269226;0.0;0.0;0.0
1228;0.0;0.0;0.0;0.05563199892640114;0.21276798844337463;1.1546080112457275;0.0;0.0;0.0
1231;-0.06856399774551392;0.3437959849834442;1.0157719850540161;0.05172799900174141;0.1815359890460968;1.1145919561386108;4.462499618530273;-5.670000076293945;-40.12312698364258
1233;0.0;0.0;0.0;0.07515199482440948;0.21276798844337463;1.097999930381775;0.0;0.0;0.0
1235;0.0;0.0;0.0;0.05953599885106087;0.2869440019130707;1.1389919519424438;0.0;0.0;0.0
1237;0.0;0.0;0.0;0.08686399459838867;0.15030398964881897;1.0570080280303955;0.0;0.0;0.0
1239;-0.044895999133586884;0.33135199546813965;0.9762439727783203;0.0634399950504303;0.1542080044746399;1.1106879711151123;5.0224995613098145;0.0;-35.923126220703125
1241;0.0;0.0;0.0;0.0634399950504303;0.21276798844337463;1.1106879711151123;0.0;0.0;0.0
1243;0.0;0.0;0.0;0.06734399497509003;0.2088640034198761;1.1145919561386108;0.0;0.0;0.0
1245;0.0;0.0;0.0;0.024399999529123306;0.2205759882926941;1.1067839860916138;0.0;0.0;0.0
1248;-0.07807999849319458;0.33842799067497253;0.9698999524116516;0.020495999604463577;0.19715198874473572;1.1106879711151123;4.252499580383301;4.96999979019165;-31.233125686645508
1250;0.0;0.0;0.0;0.02537599951028824;0.21276798844337463;1.0901919603347778;0.0;0.0;0.0
1252;0.0;0.0;0.0;0.01756799966096878;0.27132800221443176;1.1106879711151123;0.0;0.0;0.0
1254;0.0;0.0;0.0;0.029279999434947968;0.21667200326919556;1.0696959495544434;0.0;0.0;0.0
1256;-0.1088239997625351;0.35745999217033386;0.9669719934463501;-0.009759999811649323;0.24009600281715393;1.122399926185608;2.432500123977661;9.239999771118164;-28.223125457763672
1258;0.0;0.0;0.0;-0.0058559998869895935;0.22448000311851501;1.1302080154418945;0.0;0.0;0.0
1260;0.0;0.0;0.0;-0.02147199958562851;0.30646398663520813;1.146799921989441;0.0;0.0;0.0
1262;0.0;0.0;0.0;0.0019519999623298645;0.17372798919677734;1.0618879795074463;0.0;0.0;0.0
1265;-0.12883199751377106;0.366487979888916;0.9850279688835144;-0.0019519999623298645;0.20495998859405518;1.1145919561386108;4.322499752044678;11.34000015258789;-25.213125228881836
1267;0.0;0.0;0.0;-0.045871999114751816;0.2518079876899719;1.1790080070495605;0.0;0.0;0.0
1269;0.0;0.0;0.0;-0.006831999868154526;0.27132800221443176;1.150704026222229;0.0;0.0;0.0
1271;0.0;0.0;0.0;0.0009759999811649323;0.2518079876899719;1.1672959327697754;0.0;0.0;0.0
1273;-0.1320039927959442;0.38332399725914;1.0326080322265625;-0.006831999868154526;0.25571200251579285;1.1956000328063965;7.822499752044678;8.399999618530273;-19.403125762939453
1275;0.0;0.0;0.0;-0.018543999642133713;0.2479040026664734;1.2034080028533936;0.0;0.0;0.0
1277;0.0;0.0;0.0;0.020495999604463577;0.2635200023651123;1.207311987876892;0.0;0.0;0.0
1279;0.0;0.0;0.0;0.04001599922776222;0.27132800221443176;1.2112159729003906;0.0;0.0;0.0
1282;-0.09174399822950363;0.4067479968070984;1.0689640045166016;0.05172799900174141;0.29475200176239014;1.207311987876892;9.012499809265137;3.990000009536743;-11.1431245803833
1284;0.0;0.0;0.0;0.04001599922776222;0.29865598678588867;1.2522079944610596;0.0;0.0;0.0
1286;0.0;0.0;0.0;0.0634399950504303;0.3025600016117096;1.2034080028533936;0.0;0.0;0.0
1288;0.0;0.0;0.0;0.08686399459838867;0.2752319872379303;1.199504017829895;0.0;0.0;0.0
1290;-0.04806799814105034;0.4199239909648895;1.0779919624328613;0.0907679945230484;0.28303998708724976;1.2121919393539429;7.962499618530273;2.940000057220459;-3.3031251430511475
1292;0.0;0.0;0.0;0.12883199751377106;0.30646398663520813;1.207311987876892;0.0;0.0;0.0
1294;0.0;0.0;0.0;0.10150399804115295;0.2635200023651123;1.1672959327697754;0.0;0.0;0.0
1296;0.0;0.0;0.0;0.10150399804115295;0.2596159875392914;1.182911992073059;0.0;0.0;0.0
1299;-0.02391199953854084;0.39893999695777893;1.0557879209518433;0.10150399804115295;0.23228800296783447;1.1672959327697754;5.722499847412109;4.059999942779541;1.3168749809265137
1301;0.0;0.0;0.0;0.11711999773979187;0.23228800296783447;1.1712000370025635;0.0;0.0;0.0
1303;0.0;0.0;0.0;0.1327359974384308;0.22838398814201355;1.158511996269226;0.0;0.0;0.0
1305;0.0;0.0;0.0;0.11711999773979187;0.19324800372123718;1.134112000465393;0.0;0.0;0.0
1307;-0.004879999905824661;0.35453200340270996;1.0140639543533325;0.13663999736309052;0.19715198874473572;1.1389919519424438;4.602499961853027;5.599999904632568;5.16687536239624
1309;0.0;0.0;0.0;0.1483519971370697;0.19715198874473572;1.1389919519424438;0.0;0.0;0.0
1311;0.0;0.0;0.0;0.17177599668502808;0.20105600357055664;1.1058080196380615;0.0;0.0;0.0
1313;0.0;0.0;0.0;0.16787199676036835;0.19715198874473572;1.1058080196380615;0.0;0.0;0.0
1316;0.03391600027680397;0.33427998423576355;0.9891759753227234;0.16396799683570862;0.21276798844337463;1.1058080196380615;4.8125;9.029999732971191;9.436875343322754
1318;0.0;0.0;0.0;0.1756799966096878;0.17763200402259827;1.122399926185608;0.0;0.0;0.0
1320;0.0;0.0;0.0;0.1600639969110489;0.1815359890460968;1.1184959411621094;0.0;0.0;0.0
1322;0.0;0.0;0.0;0.16396799683570862;0.19324800372123718;1.1106879711151123;0.0;0.0;0.0
1324;0.05709599703550339;0.3181760013103485;0.9891759753227234;0.16787199676036835;0.15811198949813843;1.1184959411621094;4.882499694824219;14.699999809265137;12.726875305175781
1326;0.0;0.0;0.0;0.17958399653434753;0.16201600432395935;1.1184959411621094;0.0;0.0;0.0
1328;0.0;0.0;0.0;0.19910399615764618;0.1698240041732788;1.1389919519424438;0.0;0.0;0.0
1330;0.0;0.0;0.0;0.20691199600696564;0.17372798919677734;1.1302080154418945;0.0;0.0;0.0
1333;0.06441599875688553;0.301827996969223;0.9964959621429443;0.15225599706172943;0.18544000387191772;1.1184959411621094;5.862499713897705;20.649999618530273;14.266875267028809
1335;0.0;0.0;0.0;0.19519999623298645;0.1815359890460968;1.1302080154418945;0.0;0.0;0.0
1337;0.0;0.0;0.0;0.19910399615764618;0.16591998934745789;1.1389919519424438;0.0;0.0;0.0
1339;0.0;0.0;0.0;0.17958399653434753;0.1542080044746399;1.1184959411621094;0.0;0.0;0.0
1341;0.06905199587345123;0.29011598229408264;0.990884006023407;0.18348799645900726;0.16201600432395935;1.1389919519424438;9.852499961853027;24.290000915527344;17.066875457763672
1343;0.0;0.0;0.0;0.19129599630832672;0.16201600432395935;1.1106879711151123;0.0;0.0;0.0
1345;0.0;0.0;0.0;0.20691199600696564;0.16201600432395935;1.0940959453582764;0.0;0.0;0.0
1347;0.0;0.0;0.0;0.2147199958562851;0.1542080044746399;1.1184959411621094;0.0;0.0;0.0
1350;0.07685999572277069;0.28303998708724976;0.9891759753227234;0.19910399615764618;0.1698240041732788;1.1302080154418945;15.452499389648438;25.690000534057617;21.826875686645508
1352;0.0;0.0;0.0;0.21081599593162537;0.15030398964881897;1.150704026222229;0.0;0.0;0.0
1354;0.0;0.0;0.0;0.2147199958562851;0.1698240041732788;1.146799921989441;0.0;0.0;0.0
1356;0.0;0.0;0.0;0.22643199563026428;0.17372798919677734;1.175104022026062;0.0;0.0;0.0
1358;0.09516000002622604;0.29109200835227966;1.019919991493225;0.23423999547958374;0.1815359890460968;1.158511996269226;19.232500076293945;25.479999542236328;27.986875534057617
1360;0.0;0.0;0.0;0.23423999547958374;0.1815359890460968;1.182911992073059;0.0;0.0;0.0
1362;0.0;0.0;0.0;0.230335995554924;0.17763200402259827;1.1956000328063965;0.0;0.0;0.0
1364;0.0;0.0;0.0;0.2654719948768616;0.1815359890460968;1.2356159687042236;0.0;0.0;0.0
1367;0.12175599485635757;0.30231598019599915;1.0670119524002075;0.2576639950275421;0.16201600432395935;1.199504017829895;19.372499465942383;25.829999923706055;33.93687438964844
1369;0.0;0.0;0.0;0.23814399540424347;0.1698240041732788;1.1877919435501099;0.0;0.0;0.0
1371;0.0;0.0;0.0;0.230335995554924;0.14640000462532043;1.1956000328063965;0.0;0.0;0.0
1373;0.0;0.0;0.0;0.24985599517822266;0.1424959897994995;1.1877919435501099;0.0;0.0;0.0
1375;0.1268799901008606;0.29011598229408264;1.0660359859466553;0.2420479953289032;0.14640000462532043;1.1916959285736084;16.782499313354492;28.139999389648438;37.296875
1377;0.0;0.0;0.0;0.23423999547958374;0.13859200477600098;1.1790080070495605;0.0;0.0;0.0
1379;0.0;0.0;0.0;0.22643199563026428;0.14640000462532043;1.1350879669189453;0.0;0.0;0.0
1381;0.0;0.0;0.0;0.23814399540424347;0.1424959897994995;1.1302080154418945;0.0;0.0;0.0
1384;0.11711999773979187;0.25693199038505554;1.0247999429702759;0.24595199525356293;0.10735999792814255;1.1389919519424438;14.822500228881836;32.130001068115234;36.38687515258789
1386;0.0;0.0;0.0;0.24595199525356293;0.10735999792814255;1.134112000465393;0.0;0.0;0.0
1388;0.0;0.0;0.0;0.19910399615764618;0.115167997777462;1.122399926185608;0.0;0.0;0.0
1390;0.0;0.0;0.0;0.23423999547958374;0.10735999792814255;1.1106879711151123;0.0;0.0;0.0
1392;0.1117519959807396;0.2298479974269867;0.9869799613952637;0.230335995554924;0.08003199845552444;1.122399926185608;14.192500114440918;34.439998626708984;32.256874084472656
1394;0.0;0.0;0.0;0.21862399578094482;0.11126399785280228;1.1058080196380615;0.0;0.0;0.0
1396;0.0;0.0;0.0;0.22643199563026428;0.09174399822950363;1.122399926185608;0.0;0.0;0.0
1399;0.0;0.0;0.0;0.22252799570560455;0.12297599762678146;1.1184959411621094;0.0;0.0;0.0
1401;0.11614400148391724;0.2454639971256256;0.9803919792175293;0.2420479953289032;0.13468798995018005;1.122399926185608;13.0024995803833;33.25;27.776874542236328
1403;0.0;0.0;0.0;0.23814399540424347;0.11907199770212173;1.1106879711151123;0.0;0.0;0.0
1405;0.0;0.0;0.0;0.23423999547958374;0.13078400492668152;1.1428959369659424;0.0;0.0;0.0
1407;0.0;0.0;0.0;0.22252799570560455;0.1542080044746399;1.1546080112457275;0.0;0.0;0.0
1409;0.1117519959807396;0.2769399881362915;1.014307975769043;0.21081599593162537;0.1815359890460968;1.150704026222229;10.41249942779541;28.84000015258789;25.396875381469727
1411;0.0;0.0;0.0;0.21081599593162537;0.17372798919677734;1.182911992073059;0.0;0.0;0.0
1413;0.0;0.0;0.0;0.23423999547958374;0.1698240041732788;1.182911992073059;0.0;0.0;0.0
1416;0.0;0.0;0.0;0.2576639950275421;0.18934398889541626;1.207311987876892;0.0;0.0;0.0
1418;0.11199599504470825;0.31671199202537537;1.052616000175476;0.2537599802017212;0.17763200402259827;1.1868159770965576;5.722499847412109;24.43000030517578;22.6668758392334
1420;0.0;0.0;0.0;0.23814399540424347;0.2088640034198761;1.1956000328063965;0.0;0.0;0.0
1422;0.0;0.0;0.0;0.26156800985336304;0.20105600357055664;1.2160959243774414;0.0;0.0;0.0
1424;0.0;0.0;0.0;0.2576639950275421;0.16591998934745789;1.2160959243774414;0.0;0.0;0.0
1426;0.13688400387763977;0.33086398243904114;1.0684759616851807;0.2810879945755005;0.18544000387191772;1.1916959285736084;0.19249999523162842;20.93000030517578;20.216875076293945
1428;0.0;0.0;0.0;0.2810879945755005;0.19324800372123718;1.2034080028533936;0.0;0.0;0.0
1430;0.0;0.0;0.0;0.31622397899627686;0.19324800372123718;1.1916959285736084;0.0;0.0;0.0
1433;0.0;0.0;0.0;0.3396480083465576;0.17372798919677734;1.1877919435501099;0.0;0.0;0.0
1435;0.1856839954853058;0.313539981842041;1.0726239681243896;0.3357439935207367;0.14640000462532043;1.2200000286102295;-4.427500247955322;17.71000099182129;18.25687599182129
1437;0.0;0.0;0.0;0.3513599932193756;0.1424959897994995;1.199504017829895;0.0;0.0;0.0
1439;0.0;0.0;0.0;0.3357439935207367;0.115167997777462;1.2034080028533936;0.0;0.0;0.0
1441;0.0;0.0;0.0;0.3513599932193756;0.0878399983048439;1.182911992073059;0.0;0.0;0.0
1443;0.22667600214481354;0.2537599802017212;1.0821399688720703;0.3669759929180145;0.09955199807882309;1.182911992073059;-8.137499809265137;14.5600004196167;16.926876068115234
1445;0.0;0.0;0.0;0.38649600744247437;0.0878399983048439;1.2034080028533936;0.0;0.0;0.0
1447;0.0;0.0;0.0;0.4089439809322357;0.07612799853086472;1.1790080070495605;0.0;0.0;0.0
1450;0.0;0.0;0.0;0.3903999924659729;0.07612799853086472;1.1672959327697754;0.0;0.0;0.0
1452;0.2740119993686676;0.2012999951839447;1.0533479452133179;0.4323679804801941;0.040991999208927155;1.1633919477462769;-9.257500648498535;13.15999984741211;15.876874923706055
1454;0.0;0.0;0.0;0.436271995306015;0.029279999434947968;1.126304030418396;0.0;0.0;0.0
1456;0.0;0.0;0.0;0.4440799951553345;0.02537599951028824;1.1106879711151123;0.0;0.0;0.0
1458;0.0;0.0;0.0;0.4635999798774719;0.02147199958562851;1.1428959369659424;0.0;0.0;0.0
1460;0.3198840022087097;0.15664799511432648;1.0069879293441772;0.4714079797267914;0.02537599951028824;1.1302080154418945;-5.827500343322754;12.319999694824219;16.50687599182129
1462;0.0;0.0;0.0;0.4714079797267914;-0.0058559998869895935;1.1058080196380615;0.0;0.0;0.0
1464;0.0;0.0;0.0;0.47921597957611084;-0.02537599951028824;1.122399926185608;0.0;0.0;0.0
1467;0.0;0.0;0.0;0.537775993347168;-0.0019519999623298645;1.101904034614563;0.0;0.0;0.0
1469;0.3823480010032654;0.1361519992351532;0.9794159531593323;0.5260639786720276;0.013663999736309052;1.0940959453582764;1.3125;11.40999984741211;17.486875534057617
1471;0.0;0.0;0.0;0.5494880080223083;-0.0019519999623298645;1.1106879711151123;0.0;0.0;0.0
1473;0.0;0.0;0.0;0.6461119651794434;-0.01756799966096878;1.0775039196014404;0.0;0.0;0.0
1475;0.0;0.0;0.0;0.6890559792518616;0.0019519999623298645;1.097999930381775;0.0;0.0;0.0
1477;0.5075199604034424;0.14469200372695923;0.9650200009346008;0.7554239630699158;0.01756799966096878;1.1058080196380615;8.242499351501465;12.039999961853027;19.09687614440918
1479;0.0;0.0;0.0;0.8061760067939758;0.04879999905824661;1.1145919561386108;0.0;0.0;0.0
1481;0.0;0.0;0.0;0.8217920064926147;0.07222399860620499;1.126304030418396;0.0;0.0;0.0
1484;0.0;0.0;0.0;0.8842560052871704;0.11126399785280228;1.158511996269226;0.0;0.0;0.0
1486;0.7166280150413513;0.20959599316120148;1.0025960206985474;0.9262239933013916;0.11126399785280228;1.175104022026062;10.97249984741211;15.470000267028809;27.496875762939453
1488;0.0;0.0;0.0;0.9115839600563049;0.13859200477600098;1.1428959369659424;0.0;0.0;0.0
1490;0.0;0.0;0.0;0.896943986415863;0.16591998934745789;1.1389919519424438;0.0;0.0;0.0
1492;0.0;0.0;0.0;0.896943986415863;0.1698240041732788;1.1145919561386108;0.0;0.0;0.0
1494;0.7720159888267517;0.2996319830417633;1.0160160064697266;0.8618080019950867;0.18544000387191772;1.126304030418396;8.66249942779541;21.139999389648438;44.296875
1496;0.0;0.0;0.0;0.8071519732475281;0.15811198949813843;1.101904034614563;0.0;0.0;0.0
1498;0.0;0.0;0.0;0.7681120038032532;0.13078400492668152;1.0862879753112793;0.0;0.0;0.0
1501;0.0;0.0;0.0;0.732975959777832;0.09174399822950363;1.1106879711151123;0.0;0.0;0.0
1503;0.6619719862937927;0.25986000895500183;0.9696559906005859;0.725167989730835;0.05270399898290634;1.0814080238342285;5.932499885559082;25.899999618530273;56.896873474121094
1505;0.0;0.0;0.0;0.700767993927002;0.009759999811649323;1.101904034614563;0.0;0.0;0.0
1507;0.0;0.0;0.0;0.7202879786491394;-0.029279999434947968;1.0579839944839478;0.0;0.0;0.0
1509;0.0;0.0;0.0;0.6773439645767212;-0.07612799853086472;1.0491999387741089;0.0;0.0;0.0
1511;0.5794999599456787;0.09979599714279175;0.9435479640960693;0.6431840062141418;-0.09564799815416336;1.0940959453582764;3.762500047683716;28.90999984741211;57.24687194824219
1513;0.0;0.0;0.0;0.5651040077209473;-0.1424959897994995;1.101904034614563;0.0;0.0;0.0
1515;0.0;0.0;0.0;0.5416799783706665;-0.15030398964881897;1.0775039196014404;0.0;0.0;0.0
1518;0.0;0.0;0.0;0.5182560086250305;-0.1698240041732788;1.1058080196380615;0.0;0.0;0.0
1520;0.4230960011482239;-0.01268799975514412;0.9520879983901978;0.46750399470329285;-0.17372798919677734;1.0901919603347778;0.9625000357627869;29.889999389648438;50.94687271118164
1522;0.0;0.0;0.0;0.447983980178833;-0.1815359890460968;1.1145919561386108;0.0;0.0;0.0
1524;0.0;0.0;0.0;0.47921597957611084;-0.19324800372123718;1.1145919561386108;0.0;0.0;0.0
1526;0.0;0.0;0.0;0.46750399470329285;-0.1698240041732788;1.1106879711151123;0.0;0.0;0.0
1528;0.3606320023536682;-0.06124399974942207;0.9781959652900696;0.4870239794254303;-0.19715198874473572;1.101904034614563;-1.6974999904632568;25.829999923706055;40.09687423706055
1530;0.0;0.0;0.0;0.4987359941005707;-0.17372798919677734;1.1389919519424438;0.0;0.0;0.0
1532;0.0;0.0;0.0;0.4987359941005707;-0.17372798919677734;1.146799921989441;0.0;0.0;0.0
1535;0.0;0.0;0.0;0.522159993648529;-0.15811198949813843;1.1184959411621094;0.0;0.0;0.0
1537;0.38771599531173706;-0.04294399917125702;0.9894199967384338;0.5182560086250305;-0.15811198949813843;1.0862879753112793;-2.6075000762939453;19.110000610351562;33.37687301635742
1539;0.0;0.0;0.0;0.522159993648529;-0.16591998934745789;1.1058080196380615;0.0;0.0;0.0
1541;0.0;0.0;0.0;0.5143519639968872;-0.15811198949813843;1.0657919645309448;0.0;0.0;0.0
1543;0.0;0.0;0.0;0.5299679636955261;-0.13078400492668152;1.1067839860916138;0.0;0.0;0.0
1545;0.39893999695777893;-0.007807999849319458;0.9711199998855591;0.5104479789733887;-0.12297599762678146;1.0940959453582764;-3.5174999237060547;14.489999771118164;29.876874923706055
1547;0.0;0.0;0.0;0.522159993648529;-0.1268799901008606;1.0618879795074463;0.0;0.0;0.0
1549;0.0;0.0;0.0;0.5143519639968872;-0.115167997777462;1.0901919603347778;0.0;0.0;0.0
1552;0.0;0.0;0.0;0.522159993648529;-0.17763200402259827;1.0491999387741089;0.0;0.0;0.0
1554;0.4004040062427521;-0.005367999896407127;0.9389119744300842;0.5026400089263916;-0.14640000462532043;1.0413919687271118;-4.987500190734863;11.829999923706055;28.68687629699707
1556;0.0;0.0;0.0;0.4909279942512512;-0.16201600432395935;1.0335839986801147;0.0;0.0;0.0
1558;0.0;0.0;0.0;0.5416799783706665;-0.1698240041732788;1.0169919729232788;0.0;0.0;0.0
1560;0.0;0.0;0.0;0.5338720083236694;-0.20105600357055664;1.0091840028762817;0.0;0.0;0.0
1562;0.4060159921646118;-0.03635599836707115;0.8901119828224182;0.545583963394165;-0.17372798919677734;1.0169919729232788;-4.777500152587891;12.180000305175781;29.59687614440918
1565;0.0;0.0;0.0;0.5572959780693054;-0.1815359890460968;0.9847840070724487;0.0;0.0;0.0
1566;0.0;0.0;0.0;0.5768159627914429;-0.2088640034198761;0.9437919855117798;0.0;0.0;0.0
1569;0.0;0.0;0.0;0.5651040077209473;-0.19715198874473572;0.9603840112686157;0.0;0.0;0.0
1571;0.4457879960536957;-0.0663679987192154;0.827892005443573;0.5729119777679443;-0.23228800296783447;0.9320799708366394;-1.5575000047683716;17.56999969482422;31.4168758392334
1573;0.0;0.0;0.0;0.5934079885482788;-0.236191987991333;0.9232959747314453;0.0;0.0;0.0
1575;0.0;0.0;0.0;0.6051200032234192;-0.236191987991333;0.9193919897079468;0.0;0.0;0.0
1577;0.0;0.0;0.0;0.5895040035247803;-0.20495998859405518;0.9437919855117798;0.0;0.0;0.0
1579;0.4714079797267914;-0.08515600115060806;0.7969039678573608;0.6129279732704163;-0.21276798844337463;0.9398880004882812;4.182499885559082;28.489999771118164;32.816871643066406
1581;0.0;0.0;0.0;0.5856000185012817;-0.23228800296783447;0.9437919855117798;0.0;0.0;0.0
1584;0.0;0.0;0.0;0.5543680191040039;-0.2205759882926941;0.9564799666404724;0.0;0.0;0.0
1586;0.0;0.0;0.0;0.5426560044288635;-0.22448000311851501;0.9515999555587769;0.0;0.0;0.0
1588;0.440420001745224;-0.08930400013923645;0.8152039647102356;0.5231360197067261;-0.23228800296783447;0.9886879920959473;9.852499961853027;39.060001373291016;34.146873474121094
1590;0.0;0.0;0.0;0.4909279942512512;-0.17372798919677734;1.0130879878997803;0.0;0.0;0.0
1592;0.0;0.0;0.0;0.4987359941005707;-0.2205759882926941;1.0130879878997803;0.0;0.0;0.0
1594;0.0;0.0;0.0;0.42846399545669556;-0.19324800372123718;1.0413919687271118;0.0;0.0;0.0
1596;0.35941198468208313;-0.07954400032758713;0.8844999670982361;0.4323679804801941;-0.2205759882926941;1.0287039279937744;14.052499771118164;40.810001373291016;36.94687271118164
1599;0.0;0.0;0.0;0.4089439809322357;-0.19324800372123718;1.0618879795074463;0.0;0.0;0.0
1601;0.0;0.0;0.0;0.3630719780921936;-0.2088640034198761;1.0696959495544434;0.0;0.0;0.0
1603;0.0;0.0;0.0;0.3474559783935547;-0.18544000387191772;1.0657919645309448;0.0;0.0;0.0
1605;0.2554679811000824;-0.0773480013012886;0.9347639679908752;0.3201279938220978;-0.22838398814201355;1.0862879753112793;17.0625;32.40999984741211;42.0568733215332
1607;0.0;0.0;0.0;0.3123199939727783;-0.18544000387191772;1.1302080154418945;0.0;0.0;0.0
1609;0.0;0.0;0.0;0.30451199412345886;-0.21276798844337463;1.1302080154418945;0.0;0.0;0.0
1611;0.0;0.0;0.0;0.3084160089492798;-0.236191987991333;1.1067839860916138;0.0;0.0;0.0
1613;0.18129199743270874;-0.08637599647045135;0.9872239828109741;0.27327999472618103;-0.2635200023651123;1.1106879711151123;16.922500610351562;21.06999969482422;46.60687255859375
1616;0.0;0.0;0.0;0.33183997869491577;-0.236191987991333;1.1145919561386108;0.0;0.0;0.0
1618;0.0;0.0;0.0;0.3123199939727783;-0.27132800221443176;1.1145919561386108;0.0;0.0;0.0
1620;0.0;0.0;0.0;0.30451199412345886;-0.28303998708724976;1.0814080238342285;0.0;0.0;0.0
1622;0.19885998964309692;-0.1227319985628128;0.9720959663391113;0.32793599367141724;-0.2635200023651123;1.0696959495544434;12.932499885559082;13.09000015258789;47.86687469482422
1624;0.0;0.0;0.0;0.3630719780921936;-0.27132800221443176;1.0940959453582764;0.0;0.0;0.0
1626;0.0;0.0;0.0;0.3786879777908325;-0.30646398663520813;1.0814080238342285;0.0;0.0;0.0
1628;0.0;0.0;0.0;0.35916799306869507;-0.2908479869365692;1.0618879795074463;0.0;0.0;0.0
1630;0.2386319935321808;-0.16787199676036835;0.9437919855117798;0.4021120071411133;-0.3298879861831665;1.0491999387741089;8.872499465942383;8.470000267028809;48.70687484741211
1632;0.0;0.0;0.0;0.39430397748947144;-0.3298879861831665;1.0862879753112793;0.0;0.0;0.0
1635;0.0;0.0;0.0;0.4167519807815552;-0.3142719864845276;1.0775039196014404;0.0;0.0;0.0
1637;0.0;0.0;0.0;0.42455998063087463;-0.33769598603248596;1.0775039196014404;0.0;0.0;0.0
1639;0.2852360010147095;-0.19715198874473572;0.9396439790725708;0.4440799951553345;-0.32598400115966797;1.0618879795074463;4.462499618530273;4.269999980926514;48.566871643066406
1641;0.0;0.0;0.0;0.42163199186325073;-0.31036800146102905;1.10971200466156;0.0;0.0;0.0
1643;0.0;0.0;0.0;0.4987359941005707;-0.3806400001049042;1.0531039237976074;0.0;0.0;0.0
1645;0.0;0.0;0.0;0.47921597957611084;-0.34940800070762634;1.097999930381775;0.0;0.0;0.0
1647;0.3518480062484741;-0.20032399892807007;0.9594079852104187;0.5104479789733887;-0.2908479869365692;1.122399926185608;0.5425000190734863;4.059999942779541;46.046875
1650;0.0;0.0;0.0;0.5065439939498901;-0.33769598603248596;1.1106879711151123;0.0;0.0;0.0
1652;0.0;0.0;0.0;0.5104479789733887;-0.36111998558044434;1.0814080238342285;0.0;0.0;0.0
1654;0.0;0.0;0.0;0.545583963394165;-0.411871999502182;1.0413919687271118;0.0;0.0;0.0
1656;0.4106519818305969;-0.23131199181079865;0.957211971282959;0.5690079927444458;-0.40406399965286255;1.0579839944839478;-3.5875000953674316;9.239999771118164;41.076873779296875
1658;0.0;0.0;0.0;0.522159993648529;-0.40406399965286255;1.0335839986801147;0.0;0.0;0.0
1660;0.0;0.0;0.0;0.4909279942512512;-0.43139198422431946;1.0208959579467773;0.0;0.0;0.0
1662;0.0;0.0;0.0;0.47921597957611084;-0.45871999859809875;1.0169919729232788;0.0;0.0;0.0
1664;0.3777119815349579;-0.3025600016117096;0.8962119817733765;0.436271995306015;-0.4938559830188751;1.0082080364227295;-2.6075000762939453;17.360000610351562;36.24687194824219
1666;0.0;0.0;0.0;0.4167519807815552;-0.45871999859809875;0.9925919771194458;0.0;0.0;0.0
1669;0.0;0.0;0.0;0.3669759929180145;-0.48214399814605713;1.0247999429702759;0.0;0.0;0.0
1671;0.0;0.0;0.0;0.3474559783935547;-0.5289919972419739;1.0169919729232788;0.0;0.0;0.0
1673;0.25619998574256897;-0.3613640069961548;0.8866959810256958;0.30451199412345886;-0.513375997543335;1.0579839944839478;4.322499752044678;16.799999237060547;34.986873626708984
1675;0.0;0.0;0.0;0.27718400955200195;-0.5485119819641113;1.0452959537506104;0.0;0.0;0.0
1677;0.0;0.0;0.0;0.21862399578094482;-0.536799967288971;1.0696959495544434;0.0;0.0;0.0
1679;0.0;0.0;0.0;0.20691199600696564;-0.5250880122184753;1.0775039196014404;0.0;0.0;0.0
1681;0.11248400062322617;-0.3945479989051819;0.9347639679908752;0.17177599668502808;-0.513375997543335;1.1145919561386108;11.742499351501465;7.909999847412109;38.69687271118164
1684;0.0;0.0;0.0;0.1210239976644516;-0.536799967288971;1.122399926185608;0.0;0.0;0.0
1686;0.0;0.0;0.0;0.09759999811649323;-0.4938559830188751;1.134112000465393;0.0;0.0;0.0
1688;0.0;0.0;0.0;0.05563199892640114;-0.5094720125198364;1.1389919519424438;0.0;0.0;0.0
1690;-0.02122800052165985;-0.3781999945640564;0.9821000099182129;0.05563199892640114;-0.5094720125198364;1.1302080154418945;17.342500686645508;-0.49000000953674316;43.03687286376953
1692;0.0;0.0;0.0;0.05563199892640114;-0.521183967590332;1.126304030418396;0.0;0.0;0.0
1694;0.0;0.0;0.0;0.01268799975514412;-0.5250880122184753;1.1302080154418945;0.0;0.0;0.0
1696;0.0;0.0;0.0;-0.0029279999434947968;-0.536799967288971;1.1106879711151123;0.0;0.0;0.0
1698;-0.09320800006389618;-0.37039199471473694;0.9838079810142517;0.01268799975514412;-0.5172799825668335;1.1106879711151123;19.862499237060547;-4.409999847412109;45.5568733215332
1701;0.0;0.0;0.0;0.032207999378442764;-0.5328959822654724;1.0823839902877808;0.0;0.0;0.0
1703;0.0;0.0;0.0;0.028303999453783035;-0.5524159669876099;1.097999930381775;0.0;0.0;0.0
1705;0.0;0.0;0.0;0.04782399907708168;-0.5407040119171143;1.1106879711151123;0.0;0.0;0.0
1707;-0.08979199826717377;-0.3967439830303192;0.9681919813156128;0.06734399497509003;-0.5485119819641113;1.0940959453582764;19.512500762939453;-4.690000057220459;48.076873779296875
1709;0.0;0.0;0.0;0.07124799489974976;-0.5289919972419739;1.0901919603347778;0.0;0.0;0.0
1711;0.0;0.0;0.0;0.10931199789047241;-0.5641279816627502;1.1145919561386108;0.0;0.0;0.0
1713;0.0;0.0;0.0;0.1483519971370697;-0.5328959822654724;1.0452959537506104;0.0;0.0;0.0
1715;-0.007319999858736992;-0.41919198632240295;0.9523319602012634;0.17177599668502808;-0.5758399963378906;1.0862879753112793;16.082500457763672;-2.380000114440918;50.17687225341797
1718;0.0;0.0;0.0;0.21081599593162537;-0.5680319666862488;1.0618879795074463;0.0;0.0;0.0
1720;0.0;0.0;0.0;0.22643199563026428;-0.5641279816627502;1.0570080280303955;0.0;0.0;0.0
1722;0.0;0.0;0.0;0.19910399615764618;-0.5797439813613892;1.073599934577942;0.0;0.0;0.0
1724;0.08881600201129913;-0.4472520053386688;0.9406200051307678;0.24595199525356293;-0.5914559960365295;1.0696959495544434;12.022500038146973;4.760000228881836;52.13687515258789
1726;0.0;0.0;0.0;0.2576639950275421;-0.6226879954338074;1.0940959453582764;0.0;0.0;0.0
1728;0.0;0.0;0.0;0.27718400955200195;-0.6578239798545837;1.097999930381775;0.0;0.0;0.0
1730;0.0;0.0;0.0;0.2693759799003601;-0.6383039951324463;1.1106879711151123;0.0;0.0;0.0
1732;0.1512800008058548;-0.48482799530029297;0.9735599756240845;0.2967039942741394;-0.6617279648780823;1.126304030418396;8.942500114440918;12.25;55.006874084472656
1735;0.0;0.0;0.0;0.3084160089492798;-0.6148799657821655;1.1633919477462769;0.0;0.0;0.0
1737;0.0;0.0;0.0;0.2967039942741394;-0.6656320095062256;1.1712000370025635;0.0;0.0;0.0
1739;0.0;0.0;0.0;0.2693759799003601;-0.6617279648780823;1.158511996269226;0.0;0.0;0.0
1741;0.17299599945545197;-0.5206959843635559;1.02675199508667;0.28889599442481995;-0.6461119651794434;1.1877919435501099;6.842499732971191;17.290000915527344;56.4068717956543
1743;0.0;0.0;0.0;0.2693759799003601;-0.6656320095062256;1.207311987876892;0.0;0.0;0.0
1745;0.0;0.0;0.0;0.2693759799003601;-0.685151994228363;1.199504017829895;0.0;0.0;0.0
1747;0.0;0.0;0.0;0.22643199563026428;-0.700767993927002;1.1956000328063965;0.0;0.0;0.0
1749;0.1349319964647293;-0.5648599863052368;1.0731120109558105;0.23814399540424347;-0.7241919636726379;1.2112159729003906;5.862499713897705;18.969999313354492;54.58687210083008
1752;0.0;0.0;0.0;0.2030079960823059;-0.7437120079994202;1.2112159729003906;0.0;0.0;0.0
1754;0.0;0.0;0.0;0.2030079960823059;-0.774944007396698;1.231711983680725;0.0;0.0;0.0
1756;0.0;0.0;0.0;0.20691199600696564;-0.7632319927215576;1.231711983680725;0.0;0.0;0.0
1758;0.06880799680948257;-0.6095119714736938;1.0945839881896973;0.15225599706172943;-0.7476159930229187;1.2200000286102295;6.772500038146973;17.43000030517578;49.26687240600586
1760;0.0;0.0;0.0;0.1571359932422638;-0.7398079633712769;1.231711983680725;0.0;0.0;0.0
1762;0.0;0.0;0.0;0.13761599361896515;-0.7437120079994202;1.2600159645080566;0.0;0.0;0.0
1764;0.0;0.0;0.0;0.09174399822950363;-0.7593280076980591;1.223904013633728;0.0;0.0;0.0
1766;0.0026839999482035637;-0.619271993637085;1.1067839860916138;0.0878399983048439;-0.7476159930229187;1.2404959201812744;9.22249984741211;13.300000190734863;43.45687484741211
1769;0.0;0.0;0.0;0.09564799815416336;-0.7632319927215576;1.223904013633728;0.0;0.0;0.0
1771;0.0;0.0;0.0;0.05270399898290634;-0.7593280076980591;1.223904013633728;0.0;0.0;0.0
1773;0.0;0.0;0.0;0.07612799853086472;-0.708575963973999;1.2160959243774414;0.0;0.0;0.0
1775;-0.07246799767017365;-0.6092680096626282;1.0889719724655151;0.009759999811649323;-0.7515199780464172;1.2034080028533936;12.302499771118164;11.0600004196167;37.22687530517578
1777;0.0;0.0;0.0;-0.03415999934077263;-0.7280960083007812;1.1672959327697754;0.0;0.0;0.0
1779;0.0;0.0;0.0;0.04391999915242195;-0.685151994228363;1.158511996269226;0.0;0.0;0.0
1781;0.0;0.0;0.0;-0.006831999868154526;-0.6383039951324463;1.1956000328063965;0.0;0.0;0.0
1783;-0.115167997777462;-0.5529040098190308;1.0528600215911865;-0.006831999868154526;-0.6578239798545837;1.1790080070495605;17.0625;9.9399995803833;32.74687194824219
1786;0.0;0.0;0.0;0.05563199892640114;-0.6148799657821655;1.1916959285736084;0.0;0.0;0.0
1788;0.0;0.0;0.0;-0.010735999792814255;-0.5797439813613892;1.1790080070495605;0.0;0.0;0.0
1790;0.0;0.0;0.0;-0.006831999868154526;-0.5914559960365295;1.146799921989441;0.0;0.0;0.0
1792;-0.10443200170993805;-0.472383975982666;1.0394400358200073;0.0009759999811649323;-0.587552011013031;1.1302080154418945;21.332500457763672;5.809999942779541;36.8068733215332
1794;0.0;0.0;0.0;-0.049775999039411545;-0.5914559960365295;1.0814080238342285;0.0;0.0;0.0
1796;0.0;0.0;0.0;-0.07710400223731995;-0.6031680107116699;1.0208959579467773;0.0;0.0;0.0
1798;0.0;0.0;0.0;-0.057583998888731;-0.6070719957351685;1.0247999429702759;0.0;0.0;0.0
1800;-0.19471199810504913;-0.46872398257255554;0.9206119775772095;-0.20105600357055664;-0.6148799657821655;1.0335839986801147;29.592500686645508;8.050000190734863;39.396873474121094
1803;0.0;0.0;0.0;-0.2518079876899719;-0.6187840104103088;1.0374879837036133;0.0;0.0;0.0
1805;0.0;0.0;0.0;-0.28303998708724976;-0.5797439813613892;1.0862879753112793;0.0;0.0;0.0
1807;0.0;0.0;0.0;-0.31036800146102905;-0.5953599810600281;1.101904034614563;0.0;0.0;0.0
1809;-0.3984519839286804;-0.4609159827232361;0.9393999576568604;-0.32598400115966797;-0.5758399963378906;1.097999930381775;43.872501373291016;4.690000057220459;35.756874084472656
1811;0.0;0.0;0.0;-0.35233598947525024;-0.5407040119171143;1.122399926185608;0.0;0.0;0.0
1813;0.0;0.0;0.0;-0.32207998633384705;-0.5289919972419739;1.1546080112457275;0.0;0.0;0.0
1815;0.0;0.0;0.0;-0.34062400460243225;-0.5016639828681946;1.175104022026062;0.0;0.0;0.0
1817;-0.4440799951553345;-0.3921079933643341;1.0250439643859863;-0.32500800490379333;-0.47043198347091675;1.2034080028533936;50.382503509521484;-3.7799999713897705;25.676876068115234
1820;0.0;0.0;0.0;-0.3025600016117096;-0.4899519979953766;1.2404959201812744;0.0;0.0;0.0
1822;0.0;0.0;0.0;-0.33769598603248596;-0.4470079839229584;1.2600159645080566;0.0;0.0;0.0
1824;0.0;0.0;0.0;-0.3298879861831665;-0.4470079839229584;1.272704005241394;0.0;0.0;0.0
1826;-0.44359198212623596;-0.3147599995136261;1.1245959997177124;-0.30646398663520813;-0.43139198422431946;1.2932000160217285;46.18250274658203;-10.430000305175781;12.586874961853027
1828;0.0;0.0;0.0;-0.3181760013103485;-0.423583984375;1.3049119710922241;0.0;0.0;0.0
1830;0.0;0.0;0.0;-0.3142719864845276;-0.4391999840736389;1.3176000118255615;0.0;0.0;0.0
1832;0.0;0.0;0.0;-0.3025600016117096;-0.3962559998035431;1.3010079860687256;0.0;0.0;0.0
1834;-0.4396879971027374;-0.28718799352645874;1.1712000370025635;-0.3337920010089874;-0.4352959990501404;1.297104001045227;33.02250289916992;-15.539999961853027;-2.6031250953674316
1837;0.0;0.0;0.0;-0.3142719864845276;-0.43139198422431946;1.2932000160217285;0.0;0.0;0.0
1839;0.0;0.0;0.0;-0.3025600016117096;-0.4274879992008209;1.2932000160217285;0.0;0.0;0.0
1841;0.0;0.0;0.0;-0.32207998633384705;-0.4391999840736389;1.2688000202178955;0.0;0.0;0.0
1843;-0.4421280026435852;-0.2945079803466797;1.152411937713623;-0.3181760013103485;-0.43139198422431946;1.272704005241394;19.72249984741211;-18.899999618530273;-18.63312530517578
1845;0.0;0.0;0.0;-0.31036800146102905;-0.43139198422431946;1.2404959201812744;0.0;0.0;0.0
1847;0.0;0.0;0.0;-0.2752319872379303;-0.41577598452568054;1.248304009437561;0.0;0.0;0.0
1849;0.0;0.0;0.0;-0.3025600016117096;-0.4079679846763611;1.2356159687042236;0.0;0.0;0.0
1851;-0.43505197763442993;-0.2786479890346527;1.1075159311294556;-0.29475200176239014;-0.3962559998035431;1.231711983680725;10.97249984741211;-24.639999389648438;-29.973125457763672
1854;0.0;0.0;0.0;-0.31036800146102905;-0.38844799995422363;1.207311987876892;0.0;0.0;0.0
1856;0.0;0.0;0.0;-0.31036800146102905;-0.3845439851284027;1.1956000328063965;0.0;0.0;0.0
1858;0.0;0.0;0.0;-0.30646398663520813;-0.3728320002555847;1.199504017829895;0.0;0.0;0.0
1860;-0.43187999725341797;-0.24912399053573608;1.073356032371521;-0.30646398663520813;-0.3533119857311249;1.1868159770965576;5.862499713897705;-27.790000915527344;-39.493125915527344
1862;0.0;0.0;0.0;-0.29475200176239014;-0.33769598603248596;1.207311987876892;0.0;0.0;0.0
1864;0.0;0.0;0.0;-0.32891198992729187;-0.33769598603248596;1.1633919477462769;0.0;0.0;0.0
1866;0.0;0.0;0.0;-0.3025600016117096;-0.3142719864845276;1.1672959327697754;0.0;0.0;0.0
1868;-0.4274879992008209;-0.2117919921875;1.0496879816055298;-0.2908479869365692;-0.3181760013103485;1.175104022026062;3.4125001430511475;-28.350000381469727;-49.29312515258789
1871;0.0;0.0;0.0;-0.3025600016117096;-0.29865598678588867;1.158511996269226;0.0;0.0;0.0
1873;0.0;0.0;0.0;-0.3025600016117096;-0.27132800221443176;1.1672959327697754;0.0;0.0;0.0
1875;0.0;0.0;0.0;-0.2752319872379303;-0.2635200023651123;1.1712000370025635;0.0;0.0;0.0
1877;-0.42382800579071045;-0.14469200372695923;1.0352920293807983;-0.2791360020637512;-0.24009600281715393;1.146799921989441;2.7125000953674316;-28.770000457763672;-59.023128509521484
1879;0.0;0.0;0.0;-0.2869440019130707;-0.23228800296783447;1.1712000370025635;0.0;0.0;0.0
1881;0.0;0.0;0.0;-0.2752319872379303;-0.18544000387191772;1.1790080070495605;0.0;0.0;0.0
1883;0.0;0.0;0.0;-0.28303998708724976;-0.2088640034198761;1.158511996269226;0.0;0.0;0.0
1885;-0.40357598662376404;-0.07197999954223633;1.040903925895691;-0.2752319872379303;-0.20105600357055664;1.1633919477462769;1.4524999856948853;-31.56999969482422;-64.76312255859375
1888;0.0;0.0;0.0;-0.2479040026664734;-0.15811198949813843;1.1916959285736084;0.0;0.0;0.0
1890;0.0;0.0;0.0;-0.2479040026664734;-0.16591998934745789;1.1712000370025635;0.0;0.0;0.0
1892;0.0;0.0;0.0;-0.2518079876899719;-0.13468798995018005;1.1868159770965576;0.0;0.0;0.0
1894;-0.36965999007225037;-0.019276000559329987;1.047003984451294;-0.2205759882926941;-0.11907199770212173;1.1916959285736084;-1.1375000476837158;-33.459999084472656;-65.39311981201172
1896;0.0;0.0;0.0;-0.21569599211215973;-0.11907199770212173;1.1672959327697754;0.0;0.0;0.0
1898;0.0;0.0;0.0;-0.2664479911327362;-0.12297599762678146;1.1428959369659424;0.0;0.0;0.0
1900;0.0;0.0;0.0;-0.2508319914340973;-0.09564799815416336;1.1389919519424438;0.0;0.0;0.0
1902;-0.36502400040626526;0.017324000597000122;1.0247999429702759;-0.2664479911327362;-0.08003199845552444;1.1184959411621094;-4.21750020980835;-32.900001525878906;-62.9431266784668
1905;0.0;0.0;0.0;-0.2781600058078766;-0.07222399860620499;1.1350879669189453;0.0;0.0;0.0
1907;0.0;0.0;0.0;-0.3093920052051544;-0.05660799890756607;1.126304030418396;0.0;0.0;0.0
1909;0.0;0.0;0.0;-0.2781600058078766;-0.06441599875688553;1.146799921989441;0.0;0.0;0.0
1911;-0.4079679846763611;0.0710039958357811;0.9991799592971802;-0.31329599022865295;-0.037087999284267426;1.122399926185608;-6.317500114440918;-32.54999923706055;-60.21312713623047
1913;0.0;0.0;0.0;-0.3142719864845276;-0.037087999284267426;1.1184959411621094;0.0;0.0;0.0
1915;0.0;0.0;0.0;-0.31036800146102905;-0.029279999434947968;1.101904034614563;0.0;0.0;0.0
1917;0.0;0.0;0.0;-0.32598400115966797;-0.029279999434947968;1.1184959411621094;0.0;0.0;0.0
1919;-0.4340759813785553;0.09662400186061859;0.9821000099182129;-0.3142719864845276;-0.06441599875688553;1.122399926185608;-7.577500343322754;-34.22999954223633;-58.743125915527344
1922;0.0;0.0;0.0;-0.3025600016117096;-0.0605119988322258;1.0940959453582764;0.0;0.0;0.0
1924;0.0;0.0;0.0;-0.2908479869365692;-0.05270399898290634;1.097999930381775;0.0;0.0;0.0
1926;0.0;0.0;0.0;-0.31036800146102905;-0.029279999434947968;1.0775039196014404;0.0;0.0;0.0
1928;-0.42455998063087463;0.08735200017690659;0.9684360027313232;-0.3484320044517517;-0.040991999208927155;1.1145919561386108;-8.627500534057617;-36.61000061035156;-53.423126220703125
1930;0.0;0.0;0.0;-0.33769598603248596;0.0058559998869895935;1.0862879753112793;0.0;0.0;0.0
1932;0.0;0.0;0.0;-0.33671998977661133;0.02537599951028824;1.1058080196380615;0.0;0.0;0.0
1934;0.0;0.0;0.0;-0.3298879861831665;-0.0019519999623298645;1.126304030418396;0.0;0.0;0.0
1936;-0.45164400339126587;0.130295991897583;0.9752680063247681;-0.35624000430107117;0.0331839993596077;1.1145919561386108;-11.4975004196167;-37.17000198364258;-47.1931266784668
1939;0.0;0.0;0.0;-0.3445279896259308;0.02537599951028824;1.101904034614563;0.0;0.0;0.0
1941;0.0;0.0;0.0;-0.3484320044517517;0.044895999133586884;1.101904034614563;0.0;0.0;0.0
1943;0.0;0.0;0.0;-0.35624000430107117;0.06831999868154526;1.1106879711151123;0.0;0.0;0.0
1945;-0.4677479863166809;0.17348399758338928;0.9801479578018188;-0.35624000430107117;0.05270399898290634;1.10971200466156;-16.887500762939453;-37.029998779296875;-44.673126220703125
1947;0.0;0.0;0.0;-0.35233598947525024;0.08003199845552444;1.0940959453582764;0.0;0.0;0.0
1949;0.0;0.0;0.0;-0.33671998977661133;0.06831999868154526;1.1106879711151123;0.0;0.0;0.0
1951;0.0;0.0;0.0;-0.3640480041503906;0.06831999868154526;1.0940959453582764;0.0;0.0;0.0
1953;-0.46530798077583313;0.20325200259685516;0.9838079810142517;-0.32207998633384705;0.07612799853086472;1.101904034614563;-22.207500457763672;-36.33000183105469;-46.353126525878906
1956;0.0;0.0;0.0;-0.3181760013103485;0.0605119988322258;1.097999930381775;0.0;0.0;0.0
1958;0.0;0.0;0.0;-0.32207998633384705;0.05660799890756607;1.0940959453582764;0.0;0.0;0.0
1960;0.0;0.0;0.0;-0.28303998708724976;0.01756799966096878;1.0940959453582764;0.0;0.0;0.0
1962;-0.4340759813785553;0.17616799473762512;0.9720959663391113;-0.3025600016117096;-0.013663999736309052;1.1058080196380615;-26.75749969482422;-34.09000015258789;-49.923126220703125
1964;0.0;0.0;0.0;-0.2869440019130707;-0.0019519999623298645;1.0775039196014404;0.0;0.0;0.0
1966;0.0;0.0;0.0;-0.28303998708724976;-0.009759999811649323;1.0862879753112793;0.0;0.0;0.0
1968;0.0;0.0;0.0;-0.25571200251579285;-0.0331839993596077;1.0452959537506104;0.0;0.0;0.0
1970;-0.3899119794368744;0.10858000069856644;0.9352520108222961;-0.23228800296783447;-0.07222399860620499;1.0579839944839478;-28.57750129699707;-29.469999313354492;-52.30312728881836
1973;0.0;0.0;0.0;-0.2596159875392914;-0.08393599838018417;1.0452959537506104;0.0;0.0;0.0
1975;0.0;0.0;0.0;-0.2596159875392914;-0.08003199845552444;1.0208959579467773;0.0;0.0;0.0
1977;0.0;0.0;0.0;-0.2205759882926941;-0.09564799815416336;1.0169919729232788;0.0;0.0;0.0
1979;-0.3606320023536682;0.05148399993777275;0.9008479714393616;-0.236191987991333;-0.09174399822950363;1.0169919729232788;-27.387500762939453;-24.989999771118164;-51.113128662109375
1981;0.0;0.0;0.0;-0.21276798844337463;-0.11907199770212173;1.0169919729232788;0.0;0.0;0.0
1983;0.0;0.0;0.0;-0.21667200326919556;-0.11907199770212173;0.9886879920959473;0.0;0.0;0.0
1985;0.0;0.0;0.0;-0.2205759882926941;-0.11907199770212173;0.9964959621429443;0.0;0.0;0.0
1988;-0.3396480083465576;0.023667998611927032;0.8793759942054749;-0.20495998859405518;-0.11907199770212173;0.9964959621429443;-23.817501068115234;-21.559999465942383;-48.66312789916992
1990;0.0;0.0;0.0;-0.18544000387191772;-0.1424959897994995;1.0247999429702759;0.0;0.0;0.0
1992;0.0;0.0;0.0;-0.21667200326919556;-0.09174399822950363;0.9759999513626099;0.0;0.0;0.0
1994;0.0;0.0;0.0;-0.19715198874473572;-0.1424959897994995;1.0091840028762817;0.0;0.0;0.0
1996;-0.32915598154067993;0.013175999745726585;0.8696159720420837;-0.18934398889541626;-0.12297599762678146;1.0130879878997803;-19.337499618530273;-16.940000534057617;-48.103126525878906
1998;0.0;0.0;0.0;-0.2088640034198761;-0.11126399785280228;0.9925919771194458;0.0;0.0;0.0
2000;0.0;0.0;0.0;-0.22448000311851501;-0.10735999792814255;0.9964959621429443;0.0;0.0;0.0
2002;0.0;0.0;0.0;-0.21667200326919556;-0.115167997777462;1.0003999471664429;0.0;0.0;0.0
2005;-0.3374519944190979;0.016835998743772507;0.8740079998970032;-0.21276798844337463;-0.115167997777462;0.9925919771194458;-14.92750072479248;-13.300000190734863;-48.523128509521484
2007;0.0;0.0;0.0;-0.21276798844337463;-0.1268799901008606;1.0091840028762817;0.0;0.0;0.0
2009;0.0;0.0;0.0;-0.236191987991333;-0.09174399822950363;1.0208959579467773;0.0;0.0;0.0
2011;0.0;0.0;0.0;-0.2088640034198761;-0.09174399822950363;1.0335839986801147;0.0;0.0;0.0
2013;-0.3442839980125427;0.04416399821639061;0.892795979976654;-0.2205759882926941;-0.06831999868154526;1.0491999387741089;-11.567500114440918;-11.130000114440918;-49.57312774658203
2015;0.0;0.0;0.0;-0.24009600281715393;-0.04879999905824661;1.0287039279937744;0.0;0.0;0.0
2017;0.0;0.0;0.0;-0.19715198874473572;-0.06441599875688553;1.0531039237976074;0.0;0.0;0.0
2019;0.0;0.0;0.0;-0.22448000311851501;-0.04879999905824661;1.0531039237976074;0.0;0.0;0.0
2022;-0.34647998213768005;0.08271599560976028;0.9262239933013916;-0.24009600281715393;-0.037087999284267426;1.0814080238342285;-10.867500305175781;-9.449999809265137;-50.41312789916992
2024;0.0;0.0;0.0;-0.236191987991333;-0.009759999811649323;1.0862879753112793;0.0;0.0;0.0
2026;0.0;0.0;0.0;-0.2088640034198761;-0.02537599951028824;1.097999930381775;0.0;0.0;0.0
2028;0.0;0.0;0.0;-0.2479040026664734;-0.013663999736309052;1.0696959495544434;0.0;0.0;0.0
2030;-0.3596560060977936;0.11711999773979187;0.9486719965934753;-0.25571200251579285;-0.0058559998869895935;1.097999930381775;-12.617500305175781;-7.630000114440918;-51.113128662109375
2032;0.0;0.0;0.0;-0.24009600281715393;0.013663999736309052;1.0814080238342285;0.0;0.0;0.0
2034;0.0;0.0;0.0;-0.2205759882926941;0.040991999208927155;1.1145919561386108;0.0;0.0;0.0
2036;0.0;0.0;0.0;-0.2752319872379303;0.0019519999623298645;1.1145919561386108;0.0;0.0;0.0
2039;-0.38551998138427734;0.14469200372695923;0.9633119702339172;-0.28303998708724976;0.029279999434947968;1.1145919561386108;-14.92750072479248;-6.440000057220459;-51.25312805175781
2041;0.0;0.0;0.0;-0.2869440019130707;0.01756799966096878;1.1184959411621094;0.0;0.0;0.0
2043;0.0;0.0;0.0;-0.26742398738861084;0.037087999284267426;1.122399926185608;0.0;0.0;0.0
2045;0.0;0.0;0.0;-0.28303998708724976;0.04879999905824661;1.134112000465393;0.0;0.0;0.0
2047;-0.4004040062427521;0.17323999106884003;0.9818559885025024;-0.29865598678588867;0.05660799890756607;1.126304030418396;-15.417500495910645;-9.239999771118164;-49.29312515258789
2049;0.0;0.0;0.0;-0.2635200023651123;0.06831999868154526;1.1184959411621094;0.0;0.0;0.0
2051;0.0;0.0;0.0;-0.236191987991333;0.04879999905824661;1.122399926185608;0.0;0.0;0.0
2053;0.0;0.0;0.0;-0.2596159875392914;0.05660799890756607;1.1058080196380615;0.0;0.0;0.0
2056;-0.3745400011539459;0.20154400169849396;1.0001559257507324;-0.2205759882926941;0.08393599838018417;1.1389919519424438;-13.107500076293945;-15.470000267028809;-43.55312728881836
2058;0.0;0.0;0.0;-0.2088640034198761;0.06831999868154526;1.146799921989441;0.0;0.0;0.0
2060;0.0;0.0;0.0;-0.2088640034198761;0.08393599838018417;1.1302080154418945;0.0;0.0;0.0
2062;0.0;0.0;0.0;-0.18544000387191772;0.06441599875688553;1.134112000465393;0.0;0.0;0.0
2064;-0.31963998079299927;0.20398399233818054;1.0057679414749146;-0.15811198949813843;0.06441599875688553;1.122399926185608;-10.727499961853027;-19.670000076293945;-36.203125
2066;0.0;0.0;0.0;-0.16201600432395935;0.0605119988322258;1.1145919561386108;0.0;0.0;0.0
2068;0.0;0.0;0.0;-0.13566400110721588;0.06441599875688553;1.101904034614563;0.0;0.0;0.0
2070;0.0;0.0;0.0;-0.1542080044746399;0.044895999133586884;1.1106879711151123;0.0;0.0;0.0
2073;-0.2671799957752228;0.19300399720668793;0.982587993144989;-0.11224000155925751;0.06441599875688553;1.101904034614563;-10.167500495910645;-18.6200008392334;-31.02312469482422
2075;0.0;0.0;0.0;-0.12004800140857697;0.05270399898290634;1.0775039196014404;0.0;0.0;0.0
2077;0.0;0.0;0.0;-0.10052800178527832;0.05270399898290634;1.0775039196014404;0.0;0.0;0.0
2079;0.0;0.0;0.0;-0.12004800140857697;0.0605119988322258;1.0531039237976074;0.0;0.0;0.0
2081;-0.23253199458122253;0.18592800199985504;0.9452559947967529;-0.10052800178527832;0.05270399898290634;1.0862879753112793;-10.867500305175781;-15.539999961853027;-29.413124084472656
2083;0.0;0.0;0.0;-0.08100800216197968;0.037087999284267426;1.0531039237976074;0.0;0.0;0.0
2085;0.0;0.0;0.0;-0.0849120020866394;0.05270399898290634;1.0696959495544434;0.0;0.0;0.0
2087;0.0;0.0;0.0;-0.057583998888731;0.029279999434947968;1.0491999387741089;0.0;0.0;0.0
2090;-0.19324800372123718;0.17909599840641022;0.9252479672431946;-0.049775999039411545;0.06831999868154526;1.0374879837036133;-12.33750057220459;-11.760000228881836;-30.3231258392334
2092;0.0;0.0;0.0;-0.04196799919009209;0.044895999133586884;1.0413919687271118;0.0;0.0;0.0
2094;0.0;0.0;0.0;-0.06148799881339073;0.044895999133586884;1.0413919687271118;0.0;0.0;0.0
2096;0.0;0.0;0.0;-0.07320000231266022;0.037087999284267426;1.0452959537506104;0.0;0.0;0.0
2098;-0.1768999993801117;0.16884799301624298;0.9076799750328064;-0.053679998964071274;0.029279999434947968;1.0374879837036133;-13.59749984741211;-5.25;-31.723125457763672
2100;0.0;0.0;0.0;-0.06929600238800049;0.06831999868154526;1.0247999429702759;0.0;0.0;0.0
2102;0.0;0.0;0.0;-0.10443200170993805;0.013663999736309052;1.0413919687271118;0.0;0.0;0.0
2104;0.0;0.0;0.0;-0.11614400148391724;0.0605119988322258;1.0579839944839478;0.0;0.0;0.0
2107;-0.21569599211215973;0.1803160011768341;0.9108519554138184;-0.12785600125789642;0.0605119988322258;1.0618879795074463;-11.917500495910645;0.3499999940395355;-32.353126525878906
2109;0.0;0.0;0.0;-0.1239520013332367;0.0605119988322258;1.0814080238342285;0.0;0.0;0.0
2111;0.0;0.0;0.0;-0.13176000118255615;0.07222399860620499;1.101904034614563;0.0;0.0;0.0
2113;0.0;0.0;0.0;-0.1395680010318756;0.11126399785280228;1.097999930381775;0.0;0.0;0.0
2115;-0.24814799427986145;0.22155199944972992;0.9579439759254456;-0.11907199770212173;0.11126399785280228;1.126304030418396;-7.857500076293945;1.4700000286102295;-30.813125610351562
2117;0.0;0.0;0.0;-0.1424959897994995;0.13859200477600098;1.1428959369659424;0.0;0.0;0.0
2119;0.0;0.0;0.0;-0.15323199331760406;0.12297599762678146;1.146799921989441;0.0;0.0;0.0
2121;0.0;0.0;0.0;-0.15811198949813843;0.18934398889541626;1.1790080070495605;0.0;0.0;0.0
2124;-0.28133198618888855;0.2915799915790558;1.0284600257873535;-0.1844639927148819;0.1815359890460968;1.1790080070495605;-5.617500305175781;-1.4700000286102295;-26.193124771118164
2126;0.0;0.0;0.0;-0.1571359932422638;0.22838398814201355;1.1956000328063965;0.0;0.0;0.0
2128;0.0;0.0;0.0;-0.16494399309158325;0.2205759882926941;1.1956000328063965;0.0;0.0;0.0
2130;0.0;0.0;0.0;-0.13859200477600098;0.22838398814201355;1.2034080028533936;0.0;0.0;0.0
2132;-0.28133198618888855;0.33940398693084717;1.067255973815918;-0.1571359932422638;0.24009600281715393;1.1712000370025635;-7.367500305175781;-5.389999866485596;-23.533124923706055
2134;0.0;0.0;0.0;-0.1542080044746399;0.24399998784065247;1.1868159770965576;0.0;0.0;0.0
2136;0.0;0.0;0.0;-0.15323199331760406;0.20495998859405518;1.182911992073059;0.0;0.0;0.0
2138;0.0;0.0;0.0;-0.14932799339294434;0.1815359890460968;1.1790080070495605;0.0;0.0;0.0
2141;-0.26620399951934814;0.3315959870815277;1.0479799509048462;-0.1454239934682846;0.13078400492668152;1.1302080154418945;-10.307499885559082;-6.929999828338623;-20.873125076293945
2143;0.0;0.0;0.0;-0.13078400492668152;0.2752319872379303;1.182911992073059;0.0;0.0;0.0
2145;0.0;0.0;0.0;-0.07612799853086472;0.17763200402259827;1.0775039196014404;0.0;0.0;0.0
2147;0.0;0.0;0.0;-0.1268799901008606;0.15811198949813843;1.126304030418396;0.0;0.0;0.0
2149;-0.236191987991333;0.3340359926223755;1.0055240392684937;-0.07612799853086472;0.2205759882926941;1.1672959327697754;-10.727499961853027;-7.070000171661377;-17.303125381469727
2151;0.0;0.0;0.0;-0.09272000193595886;0.19715198874473572;1.146799921989441;0.0;0.0;0.0
2153;0.0;0.0;0.0;-0.08881600201129913;0.24009600281715393;1.1633919477462769;0.0;0.0;0.0
2155;0.0;0.0;0.0;-0.08100800216197968;0.18544000387191772;1.1184959411621094;0.0;0.0;0.0
2158;-0.20325200259685516;0.32671600580215454;1.0067440271377563;-0.04196799919009209;0.17372798919677734;1.10971200466156;-12.617500305175781;-6.929999828338623;-13.523124694824219
2160;0.0;0.0;0.0;-0.045871999114751816;0.19324800372123718;1.1145919561386108;0.0;0.0;0.0
2162;0.0;0.0;0.0;-0.0302559994161129;0.19324800372123718;1.0862879753112793;0.0;0.0;0.0
2164;0.0;0.0;0.0;-0.014639999717473984;0.2205759882926941;1.0657919645309448;0.0;0.0;0.0
2166;-0.15323199331760406;0.333547979593277;0.9579439759254456;-0.03806399926543236;0.1815359890460968;1.0579839944839478;-14.717500686645508;-3.2899999618530273;-11.283124923706055
2168;0.0;0.0;0.0;-0.049775999039411545;0.19715198874473572;1.0657919645309448;0.0;0.0;0.0
2170;0.0;0.0;0.0;-0.03415999934077263;0.2088640034198761;1.0413919687271118;0.0;0.0;0.0
2173;0.0;0.0;0.0;-0.06539200246334076;0.2088640034198761;1.0657919645309448;0.0;0.0;0.0
2175;-0.15567199885845184;0.34525999426841736;0.9340319633483887;-0.04196799919009209;0.236191987991333;1.073599934577942;-10.797500610351562;-2.1700000762939453;-7.08312463760376
2177;0.0;0.0;0.0;-0.04196799919009209;0.21667200326919556;1.0940959453582764;0.0;0.0;0.0
2179;0.0;0.0;0.0;-0.0302559994161129;0.2479040026664734;1.097999930381775;0.0;0.0;0.0
2181;0.0;0.0;0.0;-0.014639999717473984;0.24399998784065247;1.1145919561386108;0.0;0.0;0.0
2183;-0.1227319985628128;0.3764919936656952;0.9757559895515442;0.024399999529123306;0.2635200023651123;1.1302080154418945;-6.387500286102295;-4.130000114440918;-2.5331249237060547
2185;0.0;0.0;0.0;0.04782399907708168;0.2635200023651123;1.1428959369659424;0.0;0.0;0.0
2187;0.0;0.0;0.0;0.05563199892640114;0.27132800221443176;1.1302080154418945;0.0;0.0;0.0
2190;0.0;0.0;0.0;0.05563199892640114;0.26742398738861084;1.158511996269226;0.0;0.0;0.0
2192;-0.06173199787735939;0.4065040051937103;1.0182119607925415;0.08686399459838867;0.2752319872379303;1.1546080112457275;-4.427500247955322;-3.990000009536743;2.856874942779541
2194;0.0;0.0;0.0;0.08295999467372894;0.2479040026664734;1.158511996269226;0.0;0.0;0.0
2196;0.0;0.0;0.0;0.05953599885106087;0.27132800221443176;1.1877919435501099;0.0;0.0;0.0
2198;0.0;0.0;0.0;0.08686399459838867;0.3845439851284027;1.2278079986572266;0.0;0.0;0.0
2200;-0.037087999284267426;0.41967999935150146;1.0557879209518433;0.10931199789047241;0.2791360020637512;1.1712000370025635;-4.357500076293945;-4.340000152587891;9.296875
2202;0.0;0.0;0.0;0.11711999773979187;0.236191987991333;1.1877919435501099;0.0;0.0;0.0
2204;0.0;0.0;0.0;0.07905599474906921;0.30646398663520813;1.2356159687042236;0.0;0.0;0.0
2207;0.0;0.0;0.0;0.11321599781513214;0.29865598678588867;1.2278079986572266;0.0;0.0;0.0
2209;-0.01439599972218275;0.4089439809322357;1.079699993133545;0.14054399728775024;0.2479040026664734;1.199504017829895;-7.71750020980835;-2.450000047683716;15.246875762939453
2211;0.0;0.0;0.0;0.11028799414634705;0.24009600281715393;1.207311987876892;0.0;0.0;0.0
2213;0.0;0.0;0.0;0.11028799414634705;0.2635200023651123;1.2200000286102295;0.0;0.0;0.0
2215;0.0;0.0;0.0;0.14444799721240997;0.2205759882926941;1.2160959243774414;0.0;0.0;0.0
2217;0.0014639999717473984;0.36502400040626526;1.0784800052642822;0.11711999773979187;0.20495998859405518;1.2034080028533936;-11.987500190734863;2.5199999809265137;20.776874542236328
2219;0.0;0.0;0.0;0.11711999773979187;0.19715198874473572;1.2112159729003906;0.0;0.0;0.0
2221;0.0;0.0;0.0;0.13663999736309052;0.18934398889541626;1.207311987876892;0.0;0.0;0.0
2224;0.0;0.0;0.0;0.15225599706172943;0.1698240041732788;1.1956000328063965;0.0;0.0;0.0
2226;0.014639999717473984;0.3181760013103485;1.0721359252929688;0.09759999811649323;0.16201600432395935;1.1790080070495605;-12.967500686645508;6.510000228881836;27.356874465942383
2228;0.0;0.0;0.0;0.11419199407100677;0.17372798919677734;1.1956000328063965;0.0;0.0;0.0
2230;0.0;0.0;0.0;0.14054399728775024;0.1815359890460968;1.199504017829895;0.0;0.0;0.0
2232;0.0;0.0;0.0;0.12492799758911133;0.15811198949813843;1.1956000328063965;0.0;0.0;0.0
2234;0.0058559998869895935;0.29597198963165283;1.0643279552459717;0.1483519971370697;0.1268799901008606;1.1916959285736084;-11.917500495910645;9.170000076293945;31.97687530517578
2237;0.0;0.0;0.0;0.11321599781513214;0.17372798919677734;1.182911992073059;0.0;0.0;0.0
2238;0.0;0.0;0.0;0.1483519971370697;0.15030398964881897;1.1877919435501099;0.0;0.0;0.0
2241;0.0;0.0;0.0;0.12492799758911133;0.14640000462532043;1.182911992073059;0.0;0.0;0.0
2243;-0.0009759999811649323;0.27742800116539;1.050663948059082;0.11321599781513214;0.13468798995018005;1.1790080070495605;-9.7475004196167;9.380000114440918;33.796875
2245;0.0;0.0;0.0;0.12883199751377106;0.12297599762678146;1.182911992073059;0.0;0.0;0.0
2247;0.0;0.0;0.0;0.1483519971370697;0.12297599762678146;1.175104022026062;0.0;0.0;0.0
2249;0.0;0.0;0.0;0.1756799966096878;0.1268799901008606;1.1712000370025635;0.0;0.0;0.0
2251;0.01439599972218275;0.2588839828968048;1.038219928741455;0.12492799758911133;0.11126399785280228;1.1712000370025635;-6.6675004959106445;7.840000152587891;34.35687255859375
2253;0.0;0.0;0.0;0.14054399728775024;0.115167997777462;1.150704026222229;0.0;0.0;0.0
2255;0.0;0.0;0.0;0.17177599668502808;0.09955199807882309;1.158511996269226;0.0;0.0;0.0
2258;0.0;0.0;0.0;0.18348799645900726;0.09955199807882309;1.1712000370025635;0.0;0.0;0.0
2260;0.050995998084545135;0.2466839998960495;1.0343159437179565;0.19910399615764618;0.10735999792814255;1.1672959327697754;-4.287500381469727;6.789999961853027;33.93687438964844
2262;0.0;0.0;0.0;0.187391996383667;0.13078400492668152;1.1672959327697754;0.0;0.0;0.0
2264;0.0;0.0;0.0;0.19519999623298645;0.11126399785280228;1.1672959327697754;0.0;0.0;0.0
2266;0.0;0.0;0.0;0.21862399578094482;0.10345599800348282;1.1350879669189453;0.0;0.0;0.0
2268;0.09613599628210068;0.24424399435520172;1.0299240350723267;0.23814399540424347;0.11126399785280228;1.1389919519424438;-2.327500104904175;7.070000171661377;32.67687225341797
2270;0.0;0.0;0.0;0.24595199525356293;0.115167997777462;1.158511996269226;0.0;0.0;0.0
2272;0.0;0.0;0.0;0.2537599802017212;0.08393599838018417;1.146799921989441;0.0;0.0;0.0
2275;0.0;0.0;0.0;0.2537599802017212;0.10735999792814255;1.126304030418396;0.0;0.0;0.0
2277;0.1285879909992218;0.24009600281715393;1.0118680000305176;0.26156800985336304;0.115167997777462;1.1302080154418945;-0.017499998211860657;9.869999885559082;30.926876068115234
2279;0.0;0.0;0.0;0.2576639950275421;0.11126399785280228;1.1302080154418945;0.0;0.0;0.0
2281;0.0;0.0;0.0;0.24985599517822266;0.10345599800348282;1.1389919519424438;0.0;0.0;0.0
2283;0.0;0.0;0.0;0.2654719948768616;0.11126399785280228;1.1633919477462769;0.0;0.0;0.0
2285;0.14103199541568756;0.2386319935321808;1.0160160064697266;0.2420479953289032;0.09564799815416336;1.158511996269226;3.622499942779541;13.300000190734863;29.946874618530273
2288;0.0;0.0;0.0;0.284991979598999;0.1268799901008606;1.1790080070495605;0.0;0.0;0.0
2289;0.0;0.0;0.0;0.28889599442481995;0.1268799901008606;1.182911992073059;0.0;0.0;0.0
2292;0.0;0.0;0.0;0.30060797929763794;0.12297599762678146;1.1790080070495605;0.0;0.0;0.0
2294;0.17299599945545197;0.25351598858833313;1.044319987297058;0.3630719780921936;0.14640000462532043;1.1633919477462769;8.3125;15.399999618530273;30.36687469482422
2296;0.0;0.0;0.0;0.37088000774383545;0.13468798995018005;1.175104022026062;0.0;0.0;0.0
2298;0.0;0.0;0.0;0.32793599367141724;0.13468798995018005;1.1633919477462769;0.0;0.0;0.0
2300;0.0;0.0;0.0;0.35916799306869507;0.13468798995018005;1.1868159770965576;0.0;0.0;0.0
2302;0.21789199113845825;0.2583959996700287;1.0467599630355835;0.34355199337005615;0.12297599762678146;1.1672959327697754;12.932499885559082;17.850000381469727;31.906875610351562
2304;0.0;0.0;0.0;0.3601439893245697;0.12297599762678146;1.150704026222229;0.0;0.0;0.0
2306;0.0;0.0;0.0;0.35233598947525024;0.13078400492668152;1.1712000370025635;0.0;0.0;0.0
2309;0.0;0.0;0.0;0.387472003698349;0.1268799901008606;1.1633919477462769;0.0;0.0;0.0
2311;0.2513200044631958;0.2525399923324585;1.0333399772644043;0.3718560039997101;0.12297599762678146;1.1672959327697754;16.502500534057617;21.700000762939453;33.166873931884766
2313;0.0;0.0;0.0;0.3484320044517517;0.11126399785280228;1.1712000370025635;0.0;0.0;0.0
2315;0.0;0.0;0.0;0.3757599890232086;0.0878399983048439;1.1350879669189453;0.0;0.0;0.0
2317;0.0;0.0;0.0;0.37966400384902954;0.12297599762678146;1.1790080070495605;0.0;0.0;0.0
2319;0.2642520070075989;0.2466839998960495;1.0250439643859863;0.3835679888725281;0.09564799815416336;1.150704026222229;18.042499542236328;25.479999542236328;34.146873474121094
2321;0.0;0.0;0.0;0.3786879777908325;0.115167997777462;1.150704026222229;0.0;0.0;0.0
2323;0.0;0.0;0.0;0.35526400804519653;0.10345599800348282;1.182911992073059;0.0;0.0;0.0
2326;0.0;0.0;0.0;0.38649600744247437;0.115167997777462;1.1594879627227783;0.0;0.0;0.0
2328;0.2635200023651123;0.24692799150943756;1.0321199893951416;0.3630719780921936;0.12297599762678146;1.158511996269226;17.342500686645508;27.09000015258789;34.63687515258789
2330;0.0;0.0;0.0;0.3786879777908325;0.115167997777462;1.1672959327697754;0.0;0.0;0.0
2332;0.0;0.0;0.0;0.3903999924659729;0.11126399785280228;1.1624159812927246;0.0;0.0;0.0
2334;0.0;0.0;0.0;0.4177280068397522;0.12297599762678146;1.1633919477462769;0.0;0.0;0.0
2336;0.2740119993686676;0.24302399158477783;1.0348039865493774;0.39430397748947144;0.0878399983048439;1.150704026222229;14.962499618530273;27.579999923706055;34.63687515258789
2338;0.0;0.0;0.0;0.38649600744247437;0.09955199807882309;1.150704026222229;0.0;0.0;0.0
2341;0.0;0.0;0.0;0.35916799306869507;0.115167997777462;1.1389919519424438;0.0;0.0;0.0
2343;0.0;0.0;0.0;0.38649600744247437;0.09955199807882309;1.1389919519424438;0.0;0.0;0.0
2345;0.264739990234375;0.23716799914836884;1.0218719244003296;0.35526400804519653;0.08393599838018417;1.1428959369659424;12.092499732971191;27.860000610351562;33.166873931884766
2347;0.0;0.0;0.0;0.37088000774383545;0.10345599800348282;1.1546080112457275;0.0;0.0;0.0
2349;0.0;0.0;0.0;0.3474559783935547;0.115167997777462;1.146799921989441;0.0;0.0;0.0
2351;0.0;0.0;0.0;0.3630719780921936;0.10345599800348282;1.150704026222229;0.0;0.0;0.0
2353;0.24180398881435394;0.240339994430542;1.019919991493225;0.33183997869491577;0.09955199807882309;1.1672959327697754;9.642499923706055;27.020000457763672;31.556875228881836
2356;0.0;0.0;0.0;0.32891198992729187;0.115167997777462;1.150704026222229;0.0;0.0;0.0
2357;0.0;0.0;0.0;0.34062400460243225;0.09955199807882309;1.1672959327697754;0.0;0.0;0.0
2360;0.0;0.0;0.0;0.3601439893245697;0.09174399822950363;1.1633919477462769;0.0;0.0;0.0
2362;0.23472799360752106;0.2378999888896942;1.0357799530029297;0.3601439893245697;0.0878399983048439;1.182911992073059;8.032500267028809;24.989999771118164;31.556875228881836
2364;0.0;0.0;0.0;0.3445279896259308;0.10345599800348282;1.2121919393539429;0.0;0.0;0.0
2366;0.0;0.0;0.0;0.35624000430107117;0.09564799815416336;1.231711983680725;0.0;0.0;0.0
2368;0.0;0.0;0.0;0.35233598947525024;0.06831999868154526;1.2278079986572266;0.0;0.0;0.0
2370;0.24131599068641663;0.21911199390888214;1.0775039196014404;0.3718560039997101;0.0878399983048439;1.2404959201812744;5.722499847412109;22.68000030517578;33.166873931884766
2373;0.0;0.0;0.0;0.38259199261665344;0.07222399860620499;1.223904013633728;0.0;0.0;0.0
2375;0.0;0.0;0.0;0.40991997718811035;0.08003199845552444;1.2200000286102295;0.0;0.0;0.0
2377;0.0;0.0;0.0;0.3903999924659729;0.06831999868154526;1.2160959243774414;0.0;0.0;0.0
2379;0.28303998708724976;0.20374000072479248;1.0943399667739868;0.42553597688674927;0.05270399898290634;1.2160959243774414;2.362499952316284;20.15999984741211;38.34687423706055
2381;0.0;0.0;0.0;0.4089439809322357;0.0605119988322258;1.223904013633728;0.0;0.0;0.0
2383;0.0;0.0;0.0;0.42846399545669556;0.04879999905824661;1.2160959243774414;0.0;0.0;0.0
2385;0.0;0.0;0.0;0.436271995306015;0.02537599951028824;1.248304009437561;0.0;0.0;0.0
2387;0.30695199966430664;0.1803160011768341;1.1094679832458496;0.447983980178833;0.044895999133586884;1.248304009437561;-0.3675000071525574;19.31999969482422;46.326873779296875
2390;0.0;0.0;0.0;0.42455998063087463;0.01756799966096878;1.256111979484558;0.0;0.0;0.0
2392;0.0;0.0;0.0;0.42455998063087463;0.009759999811649323;1.248304009437561;0.0;0.0;0.0
2394;0.0;0.0;0.0;0.4753119945526123;-0.01756799966096878;1.2844159603118896;0.0;0.0;0.0
2396;0.3352559804916382;0.14151999354362488;1.1350879669189453;0.47921597957611084;-0.013663999736309052;1.2639199495315552;-3.6575000286102295;19.25;53.67687225341797
2398;0.0;0.0;0.0;0.48311999440193176;-0.02147199958562851;1.248304009437561;0.0;0.0;0.0
