Timestamp(ms);LG-Accel x(g);LG-Accel y(g);LG-Accel z(g);HG-Accel x(g);HG-Accel y(g);HG-Accel z(g);Gyro x(dps);Gyro y(dps);Gyro z(dps)
63;0.0;0.0;0.0;0.05075199902057648;-0.2391199916601181;1.309791922569275;0.0;0.0;0.0
65;0.0;0.0;0.0;0.03513599932193756;-0.22740799188613892;1.2980799674987793;0.0;0.0;0.0
67;0.0;0.0;0.0;0.03513599932193756;-0.24302399158477783;1.2941759824752808;0.0;0.0;0.0
69;0.0;0.0;0.0;0.023423999547958374;-0.27425599098205566;1.2941759824752808;0.0;0.0;0.0
71;0.0;0.0;0.0;0.019519999623298645;-0.2781600058078766;1.2814879417419434;0.0;0.0;0.0
73;0.0;0.0;0.0;0.03415999934077263;-0.32207998633384705;1.3039360046386719;0.0;0.0;0.0
76;0.0;0.0;0.0;0.010735999792814255;-0.3298879861831665;1.2834399938583374;0.0;0.0;0.0
78;0.0;0.0;0.0;0.022447999566793442;-0.36111998558044434;1.287343978881836;0.0;0.0;0.0
80;-0.11077599972486496;-0.187391996383667;1.1597319841384888;-0.004879999905824661;-0.3416000008583069;1.2756320238113403;0.0;0.0;0.0
82;0.0;0.0;0.0;0.010735999792814255;-0.3533119857311249;1.2834399938583374;0.0;0.0;0.0
84;0.0;0.0;0.0;0.010735999792814255;-0.39235198497772217;1.2512320280075073;0.0;0.0;0.0
86;0.0;0.0;0.0;-0.0009759999811649323;-0.38844799995422363;1.2590399980545044;0.0;0.0;0.0
88;-0.1268799901008606;-0.25400400161743164;1.1385040283203125;-0.01268799975514412;-0.4352959990501404;1.2678239345550537;0.0;0.0;0.0
90;0.0;0.0;0.0;-0.0058559998869895935;-0.4274879992008209;1.2512320280075073;0.0;0.0;0.0
93;0.0;0.0;0.0;-0.009759999811649323;-0.44310399889945984;1.2512320280075073;0.0;0.0;0.0
95;0.0;0.0;0.0;0.0019519999623298645;-0.4626239836215973;1.2307360172271729;0.0;0.0;0.0
97;-0.12077999860048294;-0.3037799894809723;1.111907958984375;0.0058559998869895935;-0.4626239836215973;1.2229279279708862;0.0;0.0;0.0
99;0.0;0.0;0.0;0.0058559998869895935;-0.47043198347091675;1.2112159729003906;0.0;0.0;0.0
101;0.0;0.0;0.0;-0.0058559998869895935;-0.47433599829673767;1.2151199579238892;0.0;0.0;0.0
103;0.0;0.0;0.0;0.029279999434947968;-0.4899519979953766;1.2063360214233398;0.0;0.0;0.0
105;-0.11443600058555603;-0.3386719822883606;1.0782359838485718;0.0058559998869895935;-0.48604798316955566;1.1946239471435547;0.0;0.0;0.0
108;0.0;0.0;0.0;0.02147199958562851;-0.45871999859809875;1.1946239471435547;0.0;0.0;0.0
110;0.0;0.0;0.0;0.02537599951028824;-0.4626239836215973;1.1819360256195068;0.0;0.0;0.0
112;0.0;0.0;0.0;0.040991999208927155;-0.4470079839229584;1.1946239471435547;0.0;0.0;0.0
114;-0.10321199893951416;-0.3311080038547516;1.0584720373153687;0.01756799966096878;-0.4470079839229584;1.1575360298156738;0.0;0.0;0.0
116;0.0;0.0;0.0;0.037087999284267426;-0.43139198422431946;1.2063360214233398;0.0;0.0;0.0
118;0.0;0.0;0.0;0.013663999736309052;-0.43139198422431946;1.1946239471435547;0.0;0.0;0.0
120;0.0;0.0;0.0;0.0019519999623298645;-0.3962559998035431;1.2112159729003906;0.0;0.0;0.0
122;-0.10906799882650375;-0.2908479869365692;1.0604239702224731;0.013663999736309052;-0.4470079839229584;1.1624159812927246;-0.8400000333786011;-0.07000000029802322;-23.821874618530273
125;0.0;0.0;0.0;-0.004879999905824661;-0.3806400001049042;1.1907199621200562;0.0;0.0;0.0
127;0.0;0.0;0.0;0.010735999792814255;-0.38844799995422363;1.1536319255828857;0.0;0.0;0.0
129;0.0;0.0;0.0;-0.004879999905824661;-0.39235198497772217;1.1907199621200562;0.0;0.0;0.0
131;-0.1320039927959442;-0.2622999846935272;1.0540800094604492;-0.00878399983048439;-0.3845439851284027;1.1663199663162231;1.8200000524520874;-2.450000047683716;-31.661874771118164
133;0.0;0.0;0.0;-0.032207999378442764;-0.3806400001049042;1.1624159812927246;0.0;0.0;0.0
135;0.0;0.0;0.0;-0.03611199930310249;-0.3806400001049042;1.1624159812927246;0.0;0.0;0.0
137;0.0;0.0;0.0;-0.07124799489974976;-0.37673598527908325;1.1497279405593872;0.0;0.0;0.0
139;-0.1668960005044937;-0.2496119886636734;1.0296800136566162;-0.07124799489974976;-0.3845439851284027;1.1458239555358887;5.949999809265137;-4.199999809265137;-40.06187438964844
142;0.0;0.0;0.0;-0.07515199482440948;-0.37673598527908325;1.1331360340118408;0.0;0.0;0.0
144;0.0;0.0;0.0;-0.07515199482440948;-0.3416000008583069;1.134112000465393;0.0;0.0;0.0
146;0.0;0.0;0.0;-0.04001599922776222;-0.3416000008583069;1.1048319339752197;0.0;0.0;0.0
148;-0.1878799945116043;-0.21374399960041046;0.9928359985351562;-0.08686399459838867;-0.3025600016117096;1.0765279531478882;11.130000114440918;-4.409999847412109;-49.37187576293945
150;0.0;0.0;0.0;-0.09467199444770813;-0.27132800221443176;1.1175199747085571;0.0;0.0;0.0
152;0.0;0.0;0.0;-0.08686399459838867;-0.2518079876899719;1.1175199747085571;0.0;0.0;0.0
154;0.0;0.0;0.0;-0.1180959939956665;-0.24399998784065247;1.0804319381713867;0.0;0.0;0.0
156;-0.21276798844337463;-0.13639599084854126;0.9652639627456665;-0.09467199444770813;-0.21667200326919556;1.0804319381713867;16.940000534057617;-5.110000133514404;-56.791873931884766
159;0.0;0.0;0.0;-0.10345599800348282;-0.21667200326919556;1.10971200466156;0.0;0.0;0.0
161;0.0;0.0;0.0;-0.115167997777462;-0.16591998934745789;1.1175199747085571;0.0;0.0;0.0
163;0.0;0.0;0.0;-0.10735999792814255;-0.13468798995018005;1.0804319381713867;0.0;0.0;0.0
165;-0.22667600214481354;-0.03001200035214424;0.966484010219574;-0.09955199807882309;-0.09955199807882309;1.0726239681243896;19.18000030517578;-7.210000038146973;-60.78187561035156
167;0.0;0.0;0.0;-0.10735999792814255;-0.10345599800348282;1.1175199747085571;0.0;0.0;0.0
169;0.0;0.0;0.0;-0.10345599800348282;-0.08393599838018417;1.134112000465393;0.0;0.0;0.0
171;0.0;0.0;0.0;-0.13859200477600098;-0.044895999133586884;1.1175199747085571;0.0;0.0;0.0
173;-0.23204399645328522;0.06392800062894821;0.9781959652900696;-0.11907199770212173;-0.013663999736309052;1.1253279447555542;14.90999984741211;-8.119999885559082;-60.85187530517578
176;0.0;0.0;0.0;-0.11907199770212173;-0.02147199958562851;1.134112000465393;0.0;0.0;0.0
178;0.0;0.0;0.0;-0.08003199845552444;-0.013663999736309052;1.085312008857727;0.0;0.0;0.0
180;0.0;0.0;0.0;-0.13859200477600098;-0.0331839993596077;1.0931199789047241;0.0;0.0;0.0
182;-0.24448800086975098;0.10369999706745148;0.9698999524116516;-0.11907199770212173;-0.02537599951028824;1.0804319381713867;5.460000038146973;-6.929999828338623;-59.66187286376953
184;0.0;0.0;0.0;-0.14932799339294434;-0.0605119988322258;1.0765279531478882;0.0;0.0;0.0
186;0.0;0.0;0.0;-0.1454239934682846;-0.01756799966096878;1.036512017250061;0.0;0.0;0.0
188;0.0;0.0;0.0;-0.14932799339294434;-0.05660799890756607;1.036512017250061;0.0;0.0;0.0
190;-0.2554679811000824;0.09516000002622604;0.9208559989929199;-0.14151999354362488;-0.040991999208927155;1.0160160064697266;-4.480000019073486;-3.5;-58.051876068115234
193;0.0;0.0;0.0;-0.10735999792814255;-0.06441599875688553;1.0033279657363892;0.0;0.0;0.0
195;0.0;0.0;0.0;-0.115167997777462;-0.0605119988322258;0.9994239807128906;0.0;0.0;0.0
197;0.0;0.0;0.0;-0.11907199770212173;-0.09564799815416336;0.9750239849090576;0.0;0.0;0.0
199;-0.2374119907617569;0.06075599789619446;0.8610759973526001;-0.09955199807882309;-0.09174399822950363;0.9759999513626099;-11.899999618530273;1.190000057220459;-55.461875915527344
201;0.0;0.0;0.0;-0.07612799853086472;-0.08003199845552444;0.9506239891052246;0.0;0.0;0.0
203;0.0;0.0;0.0;-0.04879999905824661;-0.09955199807882309;0.9389119744300842;0.0;0.0;0.0
205;0.0;0.0;0.0;-0.06831999868154526;-0.13078400492668152;0.9506239891052246;0.0;0.0;0.0
207;-0.187391996383667;0.0302559994161129;0.8213039636611938;-0.05270399898290634;-0.11126399785280228;0.9389119744300842;-15.190000534057617;6.929999828338623;-50.771873474121094
210;0.0;0.0;0.0;-0.05270399898290634;-0.09174399822950363;0.9271999597549438;0.0;0.0;0.0
212;0.0;0.0;0.0;-0.040991999208927155;-0.13859200477600098;0.9311040043830872;0.0;0.0;0.0
214;0.0;0.0;0.0;-0.06441599875688553;-0.1542080044746399;0.9184159636497498;0.0;0.0;0.0
216;-0.16787199676036835;-0.0026839999482035637;0.8054440021514893;-0.06831999868154526;-0.15811198949813843;0.9428159594535828;-14.5600004196167;12.8100004196167;-44.12187576293945
218;0.0;0.0;0.0;-0.0605119988322258;-0.15811198949813843;0.9311040043830872;0.0;0.0;0.0
220;0.0;0.0;0.0;-0.04879999905824661;-0.16591998934745789;0.9223200082778931;0.0;0.0;0.0
222;0.0;0.0;0.0;-0.04879999905824661;-0.16591998934745789;0.9271999597549438;0.0;0.0;0.0
224;-0.1786080002784729;-0.04172400012612343;0.7986119985580444;-0.04879999905824661;-0.19324800372123718;0.9271999597549438;-9.730000495910645;16.729999542236328;-37.6818733215332
227;0.0;0.0;0.0;-0.05953599885106087;-0.2088640034198761;0.9184159636497498;0.0;0.0;0.0
229;0.0;0.0;0.0;-0.05172799900174141;-0.21276798844337463;0.9311040043830872;0.0;0.0;0.0
231;0.0;0.0;0.0;-0.07124799489974976;-0.21276798844337463;0.9145119786262512;0.0;0.0;0.0
233;-0.1925159990787506;-0.06709999591112137;0.7956839799880981;-0.05172799900174141;-0.2088640034198761;0.9184159636497498;-3.009999990463257;17.989999771118164;-33.69187545776367
235;0.0;0.0;0.0;-0.06734399497509003;-0.20105600357055664;0.9271999597549438;0.0;0.0;0.0
237;0.0;0.0;0.0;-0.06734399497509003;-0.23228800296783447;0.9067040085792542;0.0;0.0;0.0
239;0.0;0.0;0.0;-0.08295999467372894;-0.21667200326919556;0.9067040085792542;0.0;0.0;0.0
241;-0.19812799990177155;-0.08881600201129913;0.7932440042495728;-0.06734399497509003;-0.21667200326919556;0.9223200082778931;2.380000114440918;18.969999313354492;-32.64187240600586
244;0.0;0.0;0.0;-0.08003199845552444;-0.24009600281715393;0.8823039531707764;0.0;0.0;0.0
246;0.0;0.0;0.0;-0.07612799853086472;-0.27132800221443176;0.8657119870185852;0.0;0.0;0.0
248;0.0;0.0;0.0;-0.0878399983048439;-0.3142719864845276;0.8256959915161133;0.0;0.0;0.0
250;-0.1978839933872223;-0.1361519992351532;0.7444440126419067;-0.09174399822950363;-0.2908479869365692;0.8217920064926147;6.650000095367432;21.979999542236328;-35.51187515258789
252;0.0;0.0;0.0;-0.08393599838018417;-0.3142719864845276;0.8169119954109192;0.0;0.0;0.0
254;0.0;0.0;0.0;-0.10345599800348282;-0.2869440019130707;0.8091039657592773;0.0;0.0;0.0
256;0.0;0.0;0.0;-0.09174399822950363;-0.29865598678588867;0.8295999765396118;0.0;0.0;0.0
258;-0.20276398956775665;-0.17080000042915344;0.6880800127983093;-0.07612799853086472;-0.29865598678588867;0.7973920106887817;10.010000228881836;28.0;-43.28187561035156
261;0.0;0.0;0.0;-0.09955199807882309;-0.29475200176239014;0.8169119954109192;0.0;0.0;0.0
263;0.0;0.0;0.0;-0.05270399898290634;-0.2635200023651123;0.8413119912147522;0.0;0.0;0.0
265;0.0;0.0;0.0;-0.0878399983048439;-0.2518079876899719;0.8335039615631104;0.0;0.0;0.0
267;-0.17933999001979828;-0.13566400110721588;0.6993039846420288;-0.04879999905824661;-0.22448000311851501;0.8539999723434448;9.520000457763672;33.810001373291016;-52.451873779296875
269;0.0;0.0;0.0;-0.02537599951028824;-0.19715198874473572;0.8452159762382507;0.0;0.0;0.0
271;0.0;0.0;0.0;-0.02537599951028824;-0.19324800372123718;0.8940159678459167;0.0;0.0;0.0
273;0.0;0.0;0.0;-0.0019519999623298645;-0.19324800372123718;0.8744959831237793;0.0;0.0;0.0
275;-0.13932399451732635;-0.08173999935388565;0.7546919584274292;-0.01756799966096878;-0.20495998859405518;0.9067040085792542;3.1500000953674316;41.15999984741211;-60.01187515258789
278;0.0;0.0;0.0;-0.01659199967980385;-0.21276798844337463;0.9184159636497498;0.0;0.0;0.0
280;0.0;0.0;0.0;-0.020495999604463577;-0.20105600357055664;0.9467200040817261;0.0;0.0;0.0
282;0.0;0.0;0.0;-0.05172799900174141;-0.18544000387191772;0.9515999555587769;0.0;0.0;0.0
284;-0.14395999908447266;-0.06026799976825714;0.8108119964599609;-0.032207999378442764;-0.15030398964881897;0.9916160106658936;-6.369999885559082;48.58000183105469;-65.68187713623047
286;0.0;0.0;0.0;-0.07124799489974976;-0.19324800372123718;0.9594079852104187;0.0;0.0;0.0
288;0.0;0.0;0.0;-0.1180959939956665;-0.20105600357055664;0.9877119660377502;0.0;0.0;0.0
290;0.0;0.0;0.0;-0.0907679945230484;-0.15811198949813843;0.9955199956893921;0.0;0.0;0.0
293;-0.21227999031543732;-0.050995998084545135;0.8552199602127075;-0.13761599361896515;-0.20105600357055664;1.0277279615402222;-14.699999809265137;50.75;-71.14187622070312
295;0.0;0.0;0.0;-0.16494399309158325;-0.15811198949813843;1.012112021446228;0.0;0.0;0.0
297;0.0;0.0;0.0;-0.15030398964881897;-0.1542080044746399;1.0033279657363892;0.0;0.0;0.0
299;0.0;0.0;0.0;-0.16103999316692352;-0.1815359890460968;1.012112021446228;0.0;0.0;0.0
301;-0.268887996673584;-0.03879600018262863;0.8740079998970032;-0.16494399309158325;-0.14640000462532043;1.0082080364227295;-20.3700008392334;45.92000198364258;-77.09187316894531
303;0.0;0.0;0.0;-0.16884799301624298;-0.16201600432395935;0.9916160106658936;0.0;0.0;0.0
305;0.0;0.0;0.0;-0.15323199331760406;-0.15030398964881897;1.0033279657363892;0.0;0.0;0.0
307;0.0;0.0;0.0;-0.1727519929409027;-0.16591998934745789;1.0160160064697266;0.0;0.0;0.0
309;-0.28718799352645874;-0.013175999745726585;0.8876720070838928;-0.1727519929409027;-0.13859200477600098;1.0160160064697266;-24.920000076293945;37.59000015258789;-81.78187561035156
312;0.0;0.0;0.0;-0.19227199256420135;-0.1268799901008606;0.9916160106658936;0.0;0.0;0.0
314;0.0;0.0;0.0;-0.20398399233818054;-0.15030398964881897;0.9838079810142517;0.0;0.0;0.0
316;0.0;0.0;0.0;-0.16103999316692352;-0.09564799815416336;0.9633119702339172;0.0;0.0;0.0
318;-0.3084160089492798;0.004635999910533428;0.8593679666519165;-0.19227199256420135;-0.11907199770212173;0.9594079852104187;-28.770000457763672;31.010000228881836;-86.54187774658203
320;0.0;0.0;0.0;-0.2000799924135208;-0.14640000462532043;0.9350079894065857;0.0;0.0;0.0
322;0.0;0.0;0.0;-0.1844639927148819;-0.12297599762678146;0.9223200082778931;0.0;0.0;0.0
324;0.0;0.0;0.0;-0.16494399309158325;-0.1268799901008606;0.9145119786262512;0.0;0.0;0.0
326;-0.3071959912776947;0.004635999910533428;0.799344003200531;-0.1844639927148819;-0.115167997777462;0.9106079936027527;-30.380001068115234;29.96000099182129;-95.64187622070312
329;0.0;0.0;0.0;-0.14932799339294434;-0.11126399785280228;0.8901119828224182;0.0;0.0;0.0
331;0.0;0.0;0.0;-0.115167997777462;-0.11126399785280228;0.8901119828224182;0.0;0.0;0.0
333;0.0;0.0;0.0;-0.1268799901008606;-0.09564799815416336;0.9106079936027527;0.0;0.0;0.0
335;-0.26376399397850037;0.0348920002579689;0.7783600091934204;-0.11907199770212173;-0.08393599838018417;0.8988959789276123;-29.610000610351562;31.149999618530273;-102.64187622070312
337;0.0;0.0;0.0;-0.10735999792814255;-0.044895999133586884;0.9271999597549438;0.0;0.0;0.0
339;0.0;0.0;0.0;-0.06831999868154526;-0.02537599951028824;0.9223200082778931;0.0;0.0;0.0
341;0.0;0.0;0.0;-0.040991999208927155;-0.02537599951028824;0.9271999597549438;0.0;0.0;0.0
344;-0.18592800199985504;0.09491600096225739;0.8010519742965698;-0.040991999208927155;-0.0058559998869895935;0.9506239891052246;-28.139999389648438;33.95000076293945;-104.60187530517578
346;0.0;0.0;0.0;-0.0058559998869895935;-0.0019519999623298645;0.9594079852104187;0.0;0.0;0.0
348;0.0;0.0;0.0;0.0058559998869895935;0.0605119988322258;0.9955199956893921;0.0;0.0;0.0
350;0.0;0.0;0.0;0.02537599951028824;0.05270399898290634;0.9799039959907532;0.0;0.0;0.0
352;-0.11663199961185455;0.1622599959373474;0.8542439937591553;0.02537599951028824;0.0605119988322258;0.9955199956893921;-26.110000610351562;37.72999954223633;-100.96187591552734
354;0.0;0.0;0.0;0.04879999905824661;0.06441599875688553;1.0326080322265625;0.0;0.0;0.0
356;0.0;0.0;0.0;0.037087999284267426;0.115167997777462;1.036512017250061;0.0;0.0;0.0
358;0.0;0.0;0.0;0.0605119988322258;0.1268799901008606;1.0687199831008911;0.0;0.0;0.0
361;-0.07954400032758713;0.2298479974269867;0.9140239953994751;0.040991999208927155;0.1424959897994995;1.0648159980773926;-22.96000099182129;40.25;-90.671875
363;0.0;0.0;0.0;0.04879999905824661;0.14640000462532043;1.0931199789047241;0.0;0.0;0.0
365;0.0;0.0;0.0;0.04879999905824661;0.1542080044746399;1.10971200466156;0.0;0.0;0.0
367;0.0;0.0;0.0;0.0019519999623298645;0.1815359890460968;1.1253279447555542;0.0;0.0;0.0
369;-0.09467199444770813;0.2862119972705841;0.9708759784698486;-0.0019519999623298645;0.1424959897994995;1.1380159854888916;-20.510000228881836;40.459999084472656;-75.83187103271484
371;0.0;0.0;0.0;-0.02537599951028824;0.15811198949813843;1.1331360340118408;0.0;0.0;0.0
373;0.0;0.0;0.0;-0.009759999811649323;0.17372798919677734;1.1253279447555542;0.0;0.0;0.0
375;0.0;0.0;0.0;-0.05660799890756607;0.16591998934745789;1.1253279447555542;0.0;0.0;0.0
378;-0.15689200162887573;0.29353198409080505;1.0033279657363892;-0.07222399860620499;0.1698240041732788;1.1380159854888916;-17.43000030517578;39.130001068115234;-60.921875
380;0.0;0.0;0.0;-0.08393599838018417;0.13468798995018005;1.10971200466156;0.0;0.0;0.0
382;0.0;0.0;0.0;-0.10735999792814255;0.10345599800348282;1.0765279531478882;0.0;0.0;0.0
384;0.0;0.0;0.0;-0.14640000462532043;0.09174399822950363;1.085312008857727;0.0;0.0;0.0
386;-0.23936399817466736;0.2566879987716675;0.9698999524116516;-0.16103999316692352;0.11126399785280228;1.0892159938812256;-11.760000228881836;38.56999969482422;-50.84187316894531
388;0.0;0.0;0.0;-0.1727519929409027;0.09174399822950363;1.0326080322265625;0.0;0.0;0.0
390;0.0;0.0;0.0;-0.1844639927148819;0.09955199807882309;1.0814080238342285;0.0;0.0;0.0
392;0.0;0.0;0.0;-0.15030398964881897;0.09955199807882309;1.0804319381713867;0.0;0.0;0.0
395;-0.2857239842414856;0.23716799914836884;0.9372040033340454;-0.1571359932422638;0.09564799815416336;1.0687199831008911;-4.829999923706055;38.220001220703125;-47.76187515258789
397;0.0;0.0;0.0;-0.14932799339294434;0.13468798995018005;1.0687199831008911;0.0;0.0;0.0
399;0.0;0.0;0.0;-0.15323199331760406;0.1424959897994995;1.0931199789047241;0.0;0.0;0.0
401;0.0;0.0;0.0;-0.14640000462532043;0.1542080044746399;1.1136159896850586;0.0;0.0;0.0
403;-0.26327598094940186;0.2588839828968048;0.9684360027313232;-0.13078400492668152;0.15030398964881897;1.1380159854888916;-0.42000001668930054;37.869998931884766;-48.53187561035156
405;0.0;0.0;0.0;-0.09564799815416336;0.16201600432395935;1.1663199663162231;0.0;0.0;0.0
407;0.0;0.0;0.0;-0.10735999792814255;0.20495998859405518;1.1780319213867188;0.0;0.0;0.0
409;0.0;0.0;0.0;-0.06831999868154526;0.20495998859405518;1.2024319171905518;0.0;0.0;0.0
412;-0.2147199958562851;0.32500800490379333;1.060912013053894;-0.08003199845552444;0.22448000311851501;1.2473279237747192;0.42000001668930054;37.029998779296875;-48.39187240600586
414;0.0;0.0;0.0;-0.05563199892640114;0.2635200023651123;1.2756320238113403;0.0;0.0;0.0
416;0.0;0.0;0.0;-0.028303999453783035;0.2791360020637512;1.3000320196151733;0.0;0.0;0.0
418;0.0;0.0;0.0;-0.01268799975514412;0.27132800221443176;1.360543966293335;0.0;0.0;0.0
420;-0.1495719999074936;0.4043079912662506;1.1853519678115845;0.0029279999434947968;0.3181760013103485;1.3644479513168335;-1.6100000143051147;34.29999923706055;-43.49187469482422
422;0.0;0.0;0.0;-0.0009759999811649323;0.3025600016117096;1.4054399728775024;0.0;0.0;0.0
424;0.0;0.0;0.0;0.045871999114751816;0.32207998633384705;1.4132479429244995;0.0;0.0;0.0
426;0.0;0.0;0.0;0.04196799919009209;0.32598400115966797;1.4620479345321655;0.0;0.0;0.0
429;-0.0849120020866394;0.4455440044403076;1.2880759239196777;0.07710400223731995;0.3181760013103485;1.4376479387283325;-3.640000104904175;28.280000686645508;-30.26187515258789
431;0.0;0.0;0.0;0.07222399860620499;0.29865598678588867;1.4464319944381714;0.0;0.0;0.0
433;0.0;0.0;0.0;0.07612799853086472;0.29475200176239014;1.45033597946167;0.0;0.0;0.0
435;0.0;0.0;0.0;0.09174399822950363;0.28303998708724976;1.45033597946167;0.0;0.0;0.0
437;-0.03879600018262863;0.4252919852733612;1.3171119689941406;0.10345599800348282;0.2752319872379303;1.441551923751831;-4.059999942779541;21.06999969482422;-10.941875457763672
439;0.0;0.0;0.0;0.0878399983048439;0.2479040026664734;1.4054399728775024;0.0;0.0;0.0
441;0.0;0.0;0.0;0.09857599437236786;0.2479040026664734;1.401535987854004;0.0;0.0;0.0
443;0.0;0.0;0.0;0.10638399422168732;0.21667200326919556;1.3888479471206665;0.0;0.0;0.0
446;-0.014639999717473984;0.3694159984588623;1.2807559967041016;0.12199999392032623;0.2088640034198761;1.3693280220031738;-2.5199999809265137;17.219999313354492;7.678124904632568
448;0.0;0.0;0.0;0.12199999392032623;0.19715198874473572;1.3449280261993408;0.0;0.0;0.0
450;0.0;0.0;0.0;0.1180959939956665;0.1698240041732788;1.3566399812698364;0.0;0.0;0.0
452;0.0;0.0;0.0;0.09564799815416336;0.16591998934745789;1.311743974685669;0.0;0.0;0.0
454;-0.0024399999529123306;0.30280399322509766;1.2121919393539429;0.12199999392032623;0.16591998934745789;1.3283360004425049;0.3499999940395355;18.059999465942383;22.098125457763672
456;0.0;0.0;0.0;0.11028799414634705;0.1268799901008606;1.2883199453353882;0.0;0.0;0.0
458;0.0;0.0;0.0;0.12590399384498596;0.13859200477600098;1.2756320238113403;0.0;0.0;0.0
460;0.0;0.0;0.0;0.12590399384498596;0.1268799901008606;1.2756320238113403;0.0;0.0;0.0
463;0.012931999750435352;0.2683999836444855;1.1636359691619873;0.16103999316692352;0.14640000462532043;1.2961280345916748;4.340000152587891;19.530000686645508;31.268125534057617
465;0.0;0.0;0.0;0.13371199369430542;0.13468798995018005;1.2961280345916748;0.0;0.0;0.0
467;0.0;0.0;0.0;0.16103999316692352;0.15030398964881897;1.2678239345550537;0.0;0.0;0.0
469;0.0;0.0;0.0;0.1844639927148819;0.13859200477600098;1.2961280345916748;0.0;0.0;0.0
471;0.044652000069618225;0.2715719938278198;1.1433839797973633;0.16494399309158325;0.14640000462532043;1.2834399938583374;7.699999809265137;21.280000686645508;36.30812454223633
473;0.0;0.0;0.0;0.16884799301624298;0.1815359890460968;1.2922239303588867;0.0;0.0;0.0
475;0.0;0.0;0.0;0.19227199256420135;0.15030398964881897;1.2756320238113403;0.0;0.0;0.0
477;0.0;0.0;0.0;0.2117919921875;0.13468798995018005;1.2834399938583374;0.0;0.0;0.0
480;0.07930000126361847;0.2862119972705841;1.148263931274414;0.21569599211215973;0.1698240041732788;1.2922239303588867;9.520000457763672;21.979999542236328;39.17812728881836
482;0.0;0.0;0.0;0.2508319914340973;0.16591998934745789;1.3039360046386719;0.0;0.0;0.0
484;0.0;0.0;0.0;0.24302399158477783;0.18544000387191772;1.3000320196151733;0.0;0.0;0.0
486;0.0;0.0;0.0;0.31329599022865295;0.14640000462532043;1.3078399896621704;0.0;0.0;0.0
488;0.14103199541568756;0.29987600445747375;1.168515920639038;0.31329599022865295;0.16201600432395935;1.3205280303955078;10.079999923706055;22.329999923706055;41.62812423706055
490;0.0;0.0;0.0;0.31329599022865295;0.1542080044746399;1.3078399896621704;0.0;0.0;0.0
492;0.0;0.0;0.0;0.3484320044517517;0.17372798919677734;1.3322399854660034;0.0;0.0;0.0
494;0.0;0.0;0.0;0.3211039900779724;0.18934398889541626;1.3322399854660034;0.0;0.0;0.0
497;0.20471599698066711;0.3013399839401245;1.1914520263671875;0.33671998977661133;0.15030398964881897;1.336143970489502;8.119999885559082;24.290000915527344;45.478126525878906
499;0.0;0.0;0.0;0.3757599890232086;0.17372798919677734;1.3644479513168335;0.0;0.0;0.0
501;0.0;0.0;0.0;0.37966400384902954;0.1698240041732788;1.3810399770736694;0.0;0.0;0.0
503;0.0;0.0;0.0;0.40699198842048645;0.18544000387191772;1.3693280220031738;0.0;0.0;0.0
505;0.2547360062599182;0.3025600016117096;1.2397639751434326;0.39528000354766846;0.15811198949813843;1.3888479471206665;3.430000066757202;25.690000534057617;50.868125915527344
507;0.0;0.0;0.0;0.4138239920139313;0.14640000462532043;1.401535987854004;0.0;0.0;0.0
509;0.0;0.0;0.0;0.4294399917125702;0.12297599762678146;1.4181280136108398;0.0;0.0;0.0
511;0.0;0.0;0.0;0.4450559914112091;0.13078400492668152;1.425935983657837;0.0;0.0;0.0
514;0.3101239800453186;0.2671799957752228;1.2924679517745972;0.46457600593566895;0.1268799901008606;1.45033597946167;-1.5399999618530273;23.520000457763672;59.618125915527344
516;0.0;0.0;0.0;0.4684799909591675;0.08393599838018417;1.45033597946167;0.0;0.0;0.0
518;0.0;0.0;0.0;0.48019200563430786;0.06441599875688553;1.458143949508667;0.0;0.0;0.0
520;0.0;0.0;0.0;0.5075199604034424;0.0331839993596077;1.45033597946167;0.0;0.0;0.0
522;0.36844000220298767;0.19056399166584015;1.3185759782791138;0.48799997568130493;0.01756799966096878;1.4708319902420044;-4.340000152587891;20.440000534057617;71.44812774658203
524;0.0;0.0;0.0;0.48799997568130493;-0.0019519999623298645;1.4864479303359985;0.0;0.0;0.0
526;0.0;0.0;0.0;0.5153279900550842;-0.01756799966096878;1.465951919555664;0.0;0.0;0.0
529;0.0;0.0;0.0;0.5309439897537231;-0.044895999133586884;1.4669280052185059;0.0;0.0;0.0
531;0.39015600085258484;0.10979999601840973;1.338339924812317;0.5114240050315857;-0.05270399898290634;1.4786399602890015;-5.320000171661377;18.059999465942383;81.94812774658203
533;0.0;0.0;0.0;0.49190399050712585;-0.07612799853086472;1.4825439453125;0.0;0.0;0.0
535;0.0;0.0;0.0;0.48799997568130493;-0.09955199807882309;1.4864479303359985;0.0;0.0;0.0
537;0.0;0.0;0.0;0.4997119903564453;-0.0878399983048439;1.4708319902420044;0.0;0.0;0.0
539;0.3891800045967102;0.043431997299194336;1.3449280261993408;0.4997119903564453;-0.11907199770212173;1.4786399602890015;-4.760000228881836;15.329999923706055;86.14812469482422
541;0.0;0.0;0.0;0.5036159753799438;-0.13078400492668152;1.458143949508667;0.0;0.0;0.0
543;0.0;0.0;0.0;0.5075199604034424;-0.13468798995018005;1.490351915359497;0.0;0.0;0.0
546;0.0;0.0;0.0;0.4997119903564453;-0.1542080044746399;1.4376479387283325;0.0;0.0;0.0
548;0.3786879777908325;-0.018300000578165054;1.315403938293457;0.47628799080848694;-0.21276798844337463;1.4132479429244995;-0.6299999952316284;13.369999885559082;85.58812713623047
550;0.0;0.0;0.0;0.49190399050712585;-0.26742398738861084;1.3976320028305054;0.0;0.0;0.0
552;0.0;0.0;0.0;0.48019200563430786;-0.23228800296783447;1.3810399770736694;0.0;0.0;0.0
554;0.0;0.0;0.0;0.49190399050712585;-0.2752319872379303;1.3693280220031738;0.0;0.0;0.0
556;0.36111998558044434;-0.10077200084924698;1.2461079359054565;0.47628799080848694;-0.28303998708724976;1.3410239219665527;8.119999885559082;12.8100004196167;79.77812957763672
558;0.0;0.0;0.0;0.4567679762840271;-0.2635200023651123;1.3322399854660034;0.0;0.0;0.0
560;0.0;0.0;0.0;0.472383975982666;-0.27132800221443176;1.3039360046386719;0.0;0.0;0.0
563;0.0;0.0;0.0;0.4684799909591675;-0.2752319872379303;1.311743974685669;0.0;0.0;0.0
565;0.3455039858818054;-0.14737600088119507;1.1736400127410889;0.460671991109848;-0.28303998708724976;1.2717279195785522;18.690000534057617;12.600000381469727;69.5581283569336
567;0.0;0.0;0.0;0.46457600593566895;-0.27132800221443176;1.2551360130310059;0.0;0.0;0.0
569;0.0;0.0;0.0;0.4567679762840271;-0.2479040026664734;1.2639199495315552;0.0;0.0;0.0
571;0.0;0.0;0.0;0.46457600593566895;-0.2479040026664734;1.2551360130310059;0.0;0.0;0.0
573;0.3491639792919159;-0.12077999860048294;1.1343560218811035;0.4997119903564453;-0.22448000311851501;1.2639199495315552;28.420000076293945;11.34000015258789;57.93812561035156
575;0.0;0.0;0.0;0.4997119903564453;-0.22448000311851501;1.2473279237747192;0.0;0.0;0.0
577;0.0;0.0;0.0;0.49190399050712585;-0.18934398889541626;1.2512320280075073;0.0;0.0;0.0
580;0.0;0.0;0.0;0.5309439897537231;-0.18544000387191772;1.2190239429473877;0.0;0.0;0.0
582;0.37893199920654297;-0.07222399860620499;1.1075159311294556;0.5114240050315857;-0.2088640034198761;1.23854398727417;34.86000061035156;9.800000190734863;47.99812698364258
584;0.0;0.0;0.0;0.5231360197067261;-0.18934398889541626;1.2151199579238892;0.0;0.0;0.0
586;0.0;0.0;0.0;0.5192319750785828;-0.19324800372123718;1.1780319213867188;0.0;0.0;0.0
588;0.0;0.0;0.0;0.5075199604034424;-0.19324800372123718;1.1702239513397217;0.0;0.0;0.0
590;0.3928399980068207;-0.04318799823522568;1.059448003768921;0.5270400047302246;-0.1815359890460968;1.1624159812927246;38.9900016784668;7.980000019073486;41.138126373291016
593;0.0;0.0;0.0;0.5231360197067261;-0.16591998934745789;1.1702239513397217;0.0;0.0;0.0
594;0.0;0.0;0.0;0.5153279900550842;-0.15811198949813843;1.1331360340118408;0.0;0.0;0.0
597;0.0;0.0;0.0;0.5192319750785828;-0.17372798919677734;1.1009279489517212;0.0;0.0;0.0
599;0.3972319960594177;-0.024643998593091965;1.0072319507598877;0.5075199604034424;-0.13859200477600098;1.1214239597320557;41.29999923706055;5.460000038146973;36.02812576293945
601;0.0;0.0;0.0;0.5270400047302246;-0.1424959897994995;1.1136159896850586;0.0;0.0;0.0
603;0.0;0.0;0.0;0.5270400047302246;-0.115167997777462;1.0931199789047241;0.0;0.0;0.0
605;0.0;0.0;0.0;0.5114240050315857;-0.10735999792814255;1.0804319381713867;0.0;0.0;0.0
607;0.4062599837779999;0.009271999821066856;0.9657520055770874;0.5504639744758606;-0.13859200477600098;1.0804319381713867;40.11000061035156;2.799999952316284;32.388126373291016
609;0.0;0.0;0.0;0.5309439897537231;-0.09564799815416336;1.0521279573440552;0.0;0.0;0.0
611;0.0;0.0;0.0;0.5114240050315857;-0.07612799853086472;1.060912013053894;0.0;0.0;0.0
614;0.0;0.0;0.0;0.48019200563430786;-0.09955199807882309;1.0404160022735596;0.0;0.0;0.0
616;0.3891800045967102;0.04270000010728836;0.9313479661941528;0.4997119903564453;-0.07222399860620499;1.044319987297058;35.13999938964844;0.42000001668930054;30.568126678466797
618;0.0;0.0;0.0;0.4684799909591675;-0.05270399898290634;1.085312008857727;0.0;0.0;0.0
620;0.0;0.0;0.0;0.4567679762840271;-0.05660799890756607;1.0482239723205566;0.0;0.0;0.0
622;0.0;0.0;0.0;0.46457600593566895;-0.037087999284267426;1.0560319423675537;0.0;0.0;0.0
624;0.3479439914226532;0.07661599665880203;0.9289079904556274;0.4333440065383911;-0.044895999133586884;1.0560319423675537;26.670000076293945;-4.199999809265137;30.638126373291016
626;0.0;0.0;0.0;0.43724799156188965;-0.0331839993596077;1.0570080280303955;0.0;0.0;0.0
628;0.0;0.0;0.0;0.42553597688674927;-0.05660799890756607;1.036512017250061;0.0;0.0;0.0
631;0.0;0.0;0.0;0.4147999882698059;-0.05660799890756607;1.044319987297058;0.0;0.0;0.0
633;0.3037799894809723;0.08271599560976028;0.9186599850654602;0.40699198842048645;-0.0331839993596077;1.0521279573440552;15.609999656677246;-10.010000228881836;32.3181266784668
635;0.0;0.0;0.0;0.39528000354766846;-0.06441599875688553;1.0238239765167236;0.0;0.0;0.0
637;0.0;0.0;0.0;0.39137598872184753;-0.0878399983048439;0.9955199956893921;0.0;0.0;0.0
639;0.0;0.0;0.0;0.40991997718811035;-0.0605119988322258;1.0277279615402222;0.0;0.0;0.0
641;0.2781600058078766;0.05953599885106087;0.8893799781799316;0.41870400309562683;-0.09564799815416336;0.9994239807128906;5.320000171661377;-16.239999771118164;34.48812484741211
643;0.0;0.0;0.0;0.387472003698349;-0.10345599800348282;0.9994239807128906;0.0;0.0;0.0
645;0.0;0.0;0.0;0.42163199186325073;-0.09955199807882309;0.9916160106658936;0.0;0.0;0.0
648;0.0;0.0;0.0;0.399183988571167;-0.12297599762678146;0.9750239849090576;0.0;0.0;0.0
650;0.29280000925064087;0.01903199963271618;0.8518039584159851;0.4177280068397522;-0.13078400492668152;0.9555040001869202;-3.009999990463257;-19.670000076293945;36.37812423706055
652;0.0;0.0;0.0;0.4294399917125702;-0.13859200477600098;0.9350079894065857;0.0;0.0;0.0
654;0.0;0.0;0.0;0.4567679762840271;-0.16591998934745789;0.9184159636497498;0.0;0.0;0.0
656;0.0;0.0;0.0;0.45286399126052856;-0.1815359890460968;0.8901119828224182;0.0;0.0;0.0
658;0.3093920052051544;-0.03171999752521515;0.8073959946632385;0.44896000623703003;-0.19324800372123718;0.9145119786262512;-9.800000190734863;-19.110000610351562;36.868125915527344
660;0.0;0.0;0.0;0.42163199186325073;-0.1815359890460968;0.8979200124740601;0.0;0.0;0.0
662;0.0;0.0;0.0;0.43724799156188965;-0.22838398814201355;0.8862079977989197;0.0;0.0;0.0
665;0.0;0.0;0.0;0.45286399126052856;-0.2596159875392914;0.8735199570655823;0.0;0.0;0.0
667;0.32915598154067993;-0.08637599647045135;0.7651839852333069;0.45286399126052856;-0.2088640034198761;0.8940159678459167;-13.859999656677246;-14.770000457763672;35.46812438964844
669;0.0;0.0;0.0;0.48019200563430786;-0.23228800296783447;0.8539999723434448;0.0;0.0;0.0
671;0.0;0.0;0.0;0.4684799909591675;-0.2479040026664734;0.8783999681472778;0.0;0.0;0.0
673;0.0;0.0;0.0;0.5036159753799438;-0.2752319872379303;0.8735199570655823;0.0;0.0;0.0
675;0.36111998558044434;-0.12663599848747253;0.748591959476471;0.4997119903564453;-0.26742398738861084;0.8940159678459167;-15.190000534057617;-7.769999980926514;33.578125
677;0.0;0.0;0.0;0.48019200563430786;-0.26742398738861084;0.9027999639511108;0.0;0.0;0.0
679;0.0;0.0;0.0;0.4997119903564453;-0.2752319872379303;0.8901119828224182;0.0;0.0;0.0
682;0.0;0.0;0.0;0.48799997568130493;-0.2791360020637512;0.9271999597549438;0.0;0.0;0.0
684;0.366487979888916;-0.13590799272060394;0.7786039710044861;0.47628799080848694;-0.2596159875392914;0.9428159594535828;-14.489999771118164;-0.21000000834465027;33.368125915527344
686;0.0;0.0;0.0;0.460671991109848;-0.26742398738861084;0.9506239891052246;0.0;0.0;0.0
688;0.0;0.0;0.0;0.43724799156188965;-0.3025600016117096;0.9594079852104187;0.0;0.0;0.0
690;0.0;0.0;0.0;0.44896000623703003;-0.29865598678588867;0.9555040001869202;0.0;0.0;0.0
692;0.33891600370407104;-0.16665199398994446;0.8274039626121521;0.4411519765853882;-0.3181760013103485;0.9633119702339172;-12.600000381469727;4.900000095367432;34.55812454223633
694;0.0;0.0;0.0;0.43724799156188965;-0.32207998633384705;0.9877119660377502;0.0;0.0;0.0
697;0.0;0.0;0.0;0.40699198842048645;-0.33769598603248596;0.9799039959907532;0.0;0.0;0.0
699;0.0;0.0;0.0;0.4021120071411133;-0.32207998633384705;0.9994239807128906;0.0;0.0;0.0
701;0.2984119951725006;-0.20520399510860443;0.8593679666519165;0.39528000354766846;-0.3533119857311249;0.9838079810142517;-7.840000152587891;6.300000190734863;39.10812759399414
703;0.0;0.0;0.0;0.4177280068397522;-0.3572160005569458;0.9994239807128906;0.0;0.0;0.0
705;0.0;0.0;0.0;0.35233598947525024;-0.37673598527908325;1.0316319465637207;0.0;0.0;0.0
707;0.0;0.0;0.0;0.32500800490379333;-0.3728320002555847;1.012112021446228;0.0;0.0;0.0
709;0.23253199458122253;-0.24009600281715393;0.8744959831237793;0.3093920052051544;-0.3728320002555847;0.9799039959907532;-2.6600000858306885;5.179999828338623;44.91812515258789
712;0.0;0.0;0.0;0.3093920052051544;-0.4079679846763611;0.9955199956893921;0.0;0.0;0.0
714;0.0;0.0;0.0;0.2781600058078766;-0.40406399965286255;1.0160160064697266;0.0;0.0;0.0
716;0.0;0.0;0.0;0.23131199181079865;-0.39235198497772217;1.044319987297058;0.0;0.0;0.0
718;0.15176799893379211;-0.2593719959259033;0.8876720070838928;0.2235039919614792;-0.4079679846763611;1.0404160022735596;0.0;3.3600001335144043;47.43812561035156
720;0.0;0.0;0.0;0.19617599248886108;-0.411871999502182;1.0277279615402222;0.0;0.0;0.0
722;0.0;0.0;0.0;0.18836799263954163;-0.41577598452568054;1.060912013053894;0.0;0.0;0.0
724;0.0;0.0;0.0;0.1727519929409027;-0.423583984375;1.0648159980773926;0.0;0.0;0.0
726;0.07759200036525726;-0.281576007604599;0.9284200072288513;0.15323199331760406;-0.41577598452568054;1.0804319381713867;0.5600000023841858;0.42000001668930054;49.46812438964844
729;0.0;0.0;0.0;0.16103999316692352;-0.4626239836215973;1.0892159938812256;0.0;0.0;0.0
731;0.0;0.0;0.0;0.18055999279022217;-0.47043198347091675;1.0931199789047241;0.0;0.0;0.0
733;0.0;0.0;0.0;0.1454239934682846;-0.4626239836215973;1.0931199789047241;0.0;0.0;0.0
735;0.03171999752521515;-0.31158798933029175;0.9574559926986694;0.1298079937696457;-0.4665279984474182;1.0765279531478882;-0.6299999952316284;-2.5199999809265137;50.09812545776367
737;0.0;0.0;0.0;0.14151999354362488;-0.48604798316955566;1.0892159938812256;0.0;0.0;0.0
739;0.0;0.0;0.0;0.13371199369430542;-0.48604798316955566;1.0804319381713867;0.0;0.0;0.0
741;0.0;0.0;0.0;0.10735999792814255;-0.49775999784469604;1.0765279531478882;0.0;0.0;0.0
743;0.010491999797523022;-0.34696799516677856;0.9552599787712097;0.1298079937696457;-0.4665279984474182;1.0804319381713867;-2.309999942779541;-4.760000228881836;48.978126525878906
746;0.0;0.0;0.0;0.11419199407100677;-0.5094720125198364;1.0726239681243896;0.0;0.0;0.0
748;0.0;0.0;0.0;0.1180959939956665;-0.5250880122184753;1.0970239639282227;0.0;0.0;0.0
750;0.0;0.0;0.0;0.10638399422168732;-0.5407040119171143;1.0970239639282227;0.0;0.0;0.0
752;-0.020495999604463577;-0.3869839906692505;0.9523319602012634;0.08003199845552444;-0.5563200116157532;1.0892159938812256;-3.2200000286102295;-7.699999809265137;47.92812728881836
754;0.0;0.0;0.0;0.06831999868154526;-0.5953599810600281;1.1009279489517212;0.0;0.0;0.0
756;0.0;0.0;0.0;0.09174399822950363;-0.5680319666862488;1.1009279489517212;0.0;0.0;0.0
758;0.0;0.0;0.0;0.06441599875688553;-0.5836479663848877;1.0931199789047241;0.0;0.0;0.0
760;-0.032207999378442764;-0.44359198212623596;0.9689239859580994;0.09174399822950363;-0.6148799657821655;1.1175199747085571;-5.53000020980835;-12.460000038146973;45.96812438964844
763;0.0;0.0;0.0;0.07222399860620499;-0.6226879954338074;1.10971200466156;0.0;0.0;0.0
765;0.0;0.0;0.0;0.07222399860620499;-0.6578239798545837;1.1009279489517212;0.0;0.0;0.0
767;0.0;0.0;0.0;0.07222399860620499;-0.6578239798545837;1.134112000465393;0.0;0.0;0.0
769;-0.045871999114751816;-0.4926359951496124;0.9840520024299622;0.044895999133586884;-0.6539199948310852;1.1253279447555542;-8.470000267028809;-18.40999984741211;44.638126373291016
771;0.0;0.0;0.0;0.06441599875688553;-0.6422079801559448;1.1214239597320557;0.0;0.0;0.0
773;0.0;0.0;0.0;0.05270399898290634;-0.6461119651794434;1.1253279447555542;0.0;0.0;0.0
775;0.0;0.0;0.0;0.037087999284267426;-0.6539199948310852;1.1048319339752197;0.0;0.0;0.0
777;-0.0727119967341423;-0.5297240018844604;0.9818559885025024;-0.0019519999623298645;-0.7163839936256409;1.10971200466156;-12.109999656677246;-23.170000076293945;39.17812728881836
780;0.0;0.0;0.0;0.01756799966096878;-0.6734399795532227;1.0892159938812256;0.0;0.0;0.0
782;0.0;0.0;0.0;0.009759999811649323;-0.7046719789505005;1.0892159938812256;0.0;0.0;0.0
784;0.0;0.0;0.0;-0.0019519999623298645;-0.708575963973999;1.0687199831008911;0.0;0.0;0.0
786;-0.10711599886417389;-0.5643720030784607;0.9564799666404724;-0.01756799966096878;-0.7359039783477783;1.0687199831008911;-15.470000267028809;-24.850000381469727;29.30812644958496
788;0.0;0.0;0.0;0.02537599951028824;-0.7280960083007812;1.0521279573440552;0.0;0.0;0.0
790;0.0;0.0;0.0;-0.0058559998869895935;-0.7319999933242798;1.060912013053894;0.0;0.0;0.0
792;0.0;0.0;0.0;-0.04879999905824661;-0.7476159930229187;1.0521279573440552;0.0;0.0;0.0
794;-0.13981199264526367;-0.5919439792633057;0.9298839569091797;-0.02537599951028824;-0.7437120079994202;1.0570080280303955;-18.479999542236328;-25.6200008392334;16.638126373291016
797;0.0;0.0;0.0;-0.05270399898290634;-0.7359039783477783;1.060912013053894;0.0;0.0;0.0
799;0.0;0.0;0.0;-0.044895999133586884;-0.7241919636726379;1.0404160022735596;0.0;0.0;0.0
801;0.0;0.0;0.0;-0.029279999434947968;-0.7319999933242798;1.0482239723205566;0.0;0.0;0.0
803;-0.15981999039649963;-0.6017040014266968;0.9362279772758484;-0.02147199958562851;-0.7280960083007812;1.060912013053894;-20.790000915527344;-27.3700008392334;4.178124904632568
805;0.0;0.0;0.0;-0.02537599951028824;-0.7476159930229187;1.0648159980773926;0.0;0.0;0.0
807;0.0;0.0;0.0;-0.05270399898290634;-0.7476159930229187;1.0687199831008911;0.0;0.0;0.0
809;0.0;0.0;0.0;-0.05270399898290634;-0.7241919636726379;1.0765279531478882;0.0;0.0;0.0
811;-0.17445999383926392;-0.5968239903450012;0.9403759837150574;-0.05270399898290634;-0.7359039783477783;1.060912013053894;-21.90999984741211;-26.809999465942383;-6.671875
814;0.0;0.0;0.0;-0.09174399822950363;-0.7359039783477783;1.036512017250061;0.0;0.0;0.0
816;0.0;0.0;0.0;-0.10345599800348282;-0.7241919636726379;1.0482239723205566;0.0;0.0;0.0
818;0.0;0.0;0.0;-0.0878399983048439;-0.7398079633712769;1.044319987297058;0.0;0.0;0.0
820;-0.2152079939842224;-0.6056079864501953;0.9196360111236572;-0.07612799853086472;-0.7710399627685547;1.0277279615402222;-20.299999237060547;-23.940000534057617;-16.681873321533203
822;0.0;0.0;0.0;-0.12297599762678146;-0.7359039783477783;1.036512017250061;0.0;0.0;0.0
824;0.0;0.0;0.0;-0.13761599361896515;-0.7476159930229187;1.0238239765167236;0.0;0.0;0.0
826;0.0;0.0;0.0;-0.15323199331760406;-0.7788479924201965;1.0570080280303955;0.0;0.0;0.0
828;-0.2449759989976883;-0.6117079854011536;0.9059720039367676;-0.1454239934682846;-0.7476159930229187;1.044319987297058;-15.470000267028809;-22.540000915527344;-23.821874618530273
831;0.0;0.0;0.0;-0.14640000462532043;-0.7398079633712769;1.0404160022735596;0.0;0.0;0.0
833;0.0;0.0;0.0;-0.14932799339294434;-0.7437120079994202;1.0326080322265625;0.0;0.0;0.0
835;0.0;0.0;0.0;-0.1571359932422638;-0.7437120079994202;1.036512017250061;0.0;0.0;0.0
837;-0.2640079855918884;-0.6070719957351685;0.9062159657478333;-0.15030398964881897;-0.7202879786491394;1.060912013053894;-9.800000190734863;-22.190000534057617;-27.53187370300293
839;0.0;0.0;0.0;-0.13859200477600098;-0.7319999933242798;1.0404160022735596;0.0;0.0;0.0
841;0.0;0.0;0.0;-0.1727519929409027;-0.7124800086021423;1.060912013053894;0.0;0.0;0.0
843;0.0;0.0;0.0;-0.13761599361896515;-0.7046719789505005;1.060912013053894;0.0;0.0;0.0
845;-0.27303600311279297;-0.5799880027770996;0.9135359525680542;-0.1454239934682846;-0.6656320095062256;1.0560319423675537;-5.389999866485596;-20.93000030517578;-29.841875076293945
848;0.0;0.0;0.0;-0.1424959897994995;-0.708575963973999;1.0648159980773926;0.0;0.0;0.0
850;0.0;0.0;0.0;-0.1571359932422638;-0.6734399795532227;1.0804319381713867;0.0;0.0;0.0
852;0.0;0.0;0.0;-0.13468798995018005;-0.6812480092048645;1.0931199789047241;0.0;0.0;0.0
854;-0.26791200041770935;-0.536799967288971;0.9393999576568604;-0.13468798995018005;-0.6461119651794434;1.0804319381713867;-3.640000104904175;-18.969999313354492;-32.57187271118164
856;0.0;0.0;0.0;-0.1268799901008606;-0.6383039951324463;1.1048319339752197;0.0;0.0;0.0
858;0.0;0.0;0.0;-0.16103999316692352;-0.610975980758667;1.1136159896850586;0.0;0.0;0.0
860;0.0;0.0;0.0;-0.14932799339294434;-0.5992639660835266;1.1214239597320557;0.0;0.0;0.0
862;-0.2747440040111542;-0.4799479842185974;0.9789279699325562;-0.1844639927148819;-0.587552011013031;1.1380159854888916;-4.96999979019165;-16.940000534057617;-35.791873931884766
865;0.0;0.0;0.0;-0.1727519929409027;-0.5758399963378906;1.1497279405593872;0.0;0.0;0.0
867;0.0;0.0;0.0;-0.18055999279022217;-0.5602239966392517;1.1292319297790527;0.0;0.0;0.0
869;0.0;0.0;0.0;-0.2000799924135208;-0.5680319666862488;1.134112000465393;0.0;0.0;0.0
871;-0.3106119930744171;-0.4365159869194031;1.0147960186004639;-0.2117919921875;-0.5524159669876099;1.1663199663162231;-9.029999732971191;-14.770000457763672;-40.06187438964844
873;0.0;0.0;0.0;-0.2235039919614792;-0.5485119819641113;1.1663199663162231;0.0;0.0;0.0
875;0.0;0.0;0.0;-0.2508319914340973;-0.5641279816627502;1.1741279363632202;0.0;0.0;0.0
877;0.0;0.0;0.0;-0.26254400610923767;-0.5055679678916931;1.1741279363632202;0.0;0.0;0.0
879;-0.37795600295066833;-0.4155319929122925;1.0457839965820312;-0.2937760055065155;-0.5328959822654724;1.1985279321670532;-14.0;-14.279999732971191;-45.66187286376953
882;0.0;0.0;0.0;-0.32500800490379333;-0.5250880122184753;1.1907199621200562;0.0;0.0;0.0
884;0.0;0.0;0.0;-0.3328160047531128;-0.5172799825668335;1.1985279321670532;0.0;0.0;0.0
886;0.0;0.0;0.0;-0.3396480083465576;-0.5289919972419739;1.214143991470337;0.0;0.0;0.0
888;-0.447983980178833;-0.39698800444602966;1.0660359859466553;-0.3513599932193756;-0.513375997543335;1.2151199579238892;-17.360000610351562;-16.940000534057617;-51.75187301635742
890;0.0;0.0;0.0;-0.3903999924659729;-0.5016639828681946;1.2112159729003906;0.0;0.0;0.0
892;0.0;0.0;0.0;-0.3786879777908325;-0.5328959822654724;1.2268320322036743;0.0;0.0;0.0
894;0.0;0.0;0.0;-0.39430397748947144;-0.5172799825668335;1.1985279321670532;0.0;0.0;0.0
896;-0.5077639818191528;-0.3752720057964325;1.075551986694336;-0.4060159921646118;-0.4938559830188751;1.2151199579238892;-18.6200008392334;-24.010000228881836;-56.861873626708984
899;0.0;0.0;0.0;-0.4333440065383911;-0.48604798316955566;1.2151199579238892;0.0;0.0;0.0
901;0.0;0.0;0.0;-0.40991997718811035;-0.4665279984474182;1.1985279321670532;0.0;0.0;0.0
903;0.0;0.0;0.0;-0.42163199186325073;-0.4782399833202362;1.1985279321670532;0.0;0.0;0.0
905;-0.5333839654922485;-0.3396480083465576;1.0731120109558105;-0.4177280068397522;-0.4391999840736389;1.1780319213867188;-18.40999984741211;-33.25;-60.57187271118164
907;0.0;0.0;0.0;-0.4021120071411133;-0.4352959990501404;1.2063360214233398;0.0;0.0;0.0
909;0.0;0.0;0.0;-0.4021120071411133;-0.4352959990501404;1.1907199621200562;0.0;0.0;0.0
911;0.0;0.0;0.0;-0.39430397748947144;-0.4079679846763611;1.1741279363632202;0.0;0.0;0.0
913;-0.5375319719314575;-0.28377199172973633;1.0555440187454224;-0.42163199186325073;-0.37673598527908325;1.158511996269226;-18.969999313354492;-40.95000076293945;-63.58187484741211
916;0.0;0.0;0.0;-0.4177280068397522;-0.3806400001049042;1.1419199705123901;0.0;0.0;0.0
918;0.0;0.0;0.0;-0.4021120071411133;-0.3806400001049042;1.1214239597320557;0.0;0.0;0.0
920;0.0;0.0;0.0;-0.3669759929180145;-0.36111998558044434;1.1292319297790527;0.0;0.0;0.0
922;-0.5109359622001648;-0.2378999888896942;1.0069879293441772;-0.3630719780921936;-0.3572160005569458;1.0970239639282227;-20.440000534057617;-45.709999084472656;-65.89187622070312
924;0.0;0.0;0.0;-0.34062400460243225;-0.3533119857311249;1.1175199747085571;0.0;0.0;0.0
926;0.0;0.0;0.0;-0.32500800490379333;-0.33769598603248596;1.0970239639282227;0.0;0.0;0.0
928;0.0;0.0;0.0;-0.31329599022865295;-0.3533119857311249;1.0687199831008911;0.0;0.0;0.0
930;-0.4387120008468628;-0.20959599316120148;0.9440360069274902;-0.2820639908313751;-0.33769598603248596;1.0326080322265625;-22.190000534057617;-45.56999969482422;-67.36187744140625
933;0.0;0.0;0.0;-0.27035200595855713;-0.3181760013103485;1.036512017250061;0.0;0.0;0.0
935;0.0;0.0;0.0;-0.26254400610923767;-0.3572160005569458;0.9955199956893921;0.0;0.0;0.0
937;0.0;0.0;0.0;-0.2508319914340973;-0.3298879861831665;1.0277279615402222;0.0;0.0;0.0
939;-0.3840560019016266;-0.205935999751091;0.9003599882125854;-0.2391199916601181;-0.3455039858818054;1.019919991493225;-23.450000762939453;-40.459999084472656;-67.01187133789062
941;0.0;0.0;0.0;-0.23131199181079865;-0.3298879861831665;1.0238239765167236;0.0;0.0;0.0
943;0.0;0.0;0.0;-0.2117919921875;-0.34940800070762634;1.0316319465637207;0.0;0.0;0.0
945;0.0;0.0;0.0;-0.20788799226284027;-0.3142719864845276;1.044319987297058;0.0;0.0;0.0
947;-0.34867599606513977;-0.205935999751091;0.8964560031890869;-0.20788799226284027;-0.3689279854297638;0.9955199956893921;-23.100000381469727;-32.47999954223633;-64.70187377929688
950;0.0;0.0;0.0;-0.22740799188613892;-0.3337920010089874;1.036512017250061;0.0;0.0;0.0
952;0.0;0.0;0.0;-0.19227199256420135;-0.3181760013103485;1.044319987297058;0.0;0.0;0.0
954;0.0;0.0;0.0;-0.19617599248886108;-0.3298879861831665;1.0687199831008911;0.0;0.0;0.0
956;-0.3379400074481964;-0.1908079981803894;0.9232959747314453;-0.21959999203681946;-0.2518079876899719;1.0804319381713867;-21.139999389648438;-24.43000030517578;-60.57187271118164
958;0.0;0.0;0.0;-0.2235039919614792;-0.32207998633384705;1.0687199831008911;0.0;0.0;0.0
960;0.0;0.0;0.0;-0.21569599211215973;-0.29865598678588867;1.1009279489517212;0.0;0.0;0.0
962;0.0;0.0;0.0;-0.2898719906806946;-0.29865598678588867;1.1048319339752197;0.0;0.0;0.0
964;-0.36673200130462646;-0.17445999383926392;0.9706319570541382;-0.27035200595855713;-0.2869440019130707;1.1136159896850586;-18.969999313354492;-18.899999618530273;-56.37187576293945
967;0.0;0.0;0.0;-0.2937760055065155;-0.29475200176239014;1.1331360340118408;0.0;0.0;0.0
969;0.0;0.0;0.0;-0.30158400535583496;-0.27132800221443176;1.1663199663162231;0.0;0.0;0.0
971;0.0;0.0;0.0;-0.32500800490379333;-0.31036800146102905;1.1702239513397217;0.0;0.0;0.0
973;-0.4370039999485016;-0.17202000319957733;1.022603988647461;-0.3630719780921936;-0.30646398663520813;1.1663199663162231;-16.520000457763672;-17.56999969482422;-53.361873626708984
975;0.0;0.0;0.0;-0.38259199261665344;-0.32598400115966797;1.1868159770965576;0.0;0.0;0.0
977;0.0;0.0;0.0;-0.3669759929180145;-0.30646398663520813;1.1946239471435547;0.0;0.0;0.0
979;0.0;0.0;0.0;-0.39820799231529236;-0.3416000008583069;1.1946239471435547;0.0;0.0;0.0
981;-0.4997119903564453;-0.18348799645900726;1.0574959516525269;-0.4060159921646118;-0.29865598678588867;1.1946239471435547;-14.140000343322754;-21.0;-51.33187484741211
984;0.0;0.0;0.0;-0.4177280068397522;-0.3181760013103485;1.2151199579238892;0.0;0.0;0.0
986;0.0;0.0;0.0;-0.4138239920139313;-0.34940800070762634;1.1780319213867188;0.0;0.0;0.0
988;0.0;0.0;0.0;-0.42553597688674927;-0.32207998633384705;1.2229279279708862;0.0;0.0;0.0
990;-0.5421679615974426;-0.19593200087547302;1.0745760202407837;-0.4567679762840271;-0.3416000008583069;1.1858400106430054;-12.460000038146973;-26.950000762939453;-50.28187561035156
992;0.0;0.0;0.0;-0.4177280068397522;-0.29865598678588867;1.2190239429473877;0.0;0.0;0.0
994;0.0;0.0;0.0;-0.4333440065383911;-0.3181760013103485;1.1819360256195068;0.0;0.0;0.0
996;0.0;0.0;0.0;-0.4138239920139313;-0.3181760013103485;1.1946239471435547;0.0;0.0;0.0
998;-0.5343599915504456;-0.18519599735736847;1.0665240287780762;-0.38649600744247437;-0.3181760013103485;1.1985279321670532;-12.039999961853027;-32.130001068115234;-50.07187271118164
1001;0.0;0.0;0.0;-0.35526400804519653;-0.3142719864845276;1.1497279405593872;0.0;0.0;0.0
1003;0.0;0.0;0.0;-0.35916799306869507;-0.29865598678588867;1.1136159896850586;0.0;0.0;0.0
1005;0.0;0.0;0.0;-0.3396480083465576;-0.30646398663520813;1.1331360340118408;0.0;0.0;0.0
1007;-0.47970399260520935;-0.17592400312423706;1.0113799571990967;-0.33671998977661133;-0.30646398663520813;1.1136159896850586;-13.369999885559082;-32.619998931884766;-50.84187316894531
1009;0.0;0.0;0.0;-0.34355199337005615;-0.28303998708724976;1.1048319339752197;0.0;0.0;0.0
1011;0.0;0.0;0.0;-0.30158400535583496;-0.29865598678588867;1.0765279531478882;0.0;0.0;0.0
1013;0.0;0.0;0.0;-0.32793599367141724;-0.3181760013103485;1.044319987297058;0.0;0.0;0.0
1015;-0.4352959990501404;-0.16616399586200714;0.9420839548110962;-0.29767999053001404;-0.27132800221443176;1.0648159980773926;-14.489999771118164;-28.630001068115234;-52.801876068115234
1018;0.0;0.0;0.0;-0.3357439935207367;-0.29475200176239014;1.044319987297058;0.0;0.0;0.0
1020;0.0;0.0;0.0;-0.28596800565719604;-0.2752319872379303;1.044319987297058;0.0;0.0;0.0
1022;0.0;0.0;0.0;-0.28596800565719604;-0.24399998784065247;1.0482239723205566;0.0;0.0;0.0
1024;-0.40064799785614014;-0.13712799549102783;0.9142679572105408;-0.2664479911327362;-0.28303998708724976;1.0404160022735596;-13.300000190734863;-24.219999313354492;-54.271873474121094
1026;0.0;0.0;0.0;-0.2391199916601181;-0.19324800372123718;1.0570080280303955;0.0;0.0;0.0
1028;0.0;0.0;0.0;-0.22740799188613892;-0.18544000387191772;1.036512017250061;0.0;0.0;0.0
1030;0.0;0.0;0.0;-0.21569599211215973;-0.19715198874473572;1.060912013053894;0.0;0.0;0.0
1032;-0.3606320023536682;-0.07710400223731995;0.928663969039917;-0.19617599248886108;-0.17372798919677734;1.0687199831008911;-10.079999923706055;-18.969999313354492;-54.551876068115234
1035;0.0;0.0;0.0;-0.16494399309158325;-0.17763200402259827;1.060912013053894;0.0;0.0;0.0
1037;0.0;0.0;0.0;-0.2235039919614792;-0.20105600357055664;1.0570080280303955;0.0;0.0;0.0
1039;0.0;0.0;0.0;-0.16884799301624298;-0.13468798995018005;1.0892159938812256;0.0;0.0;0.0
1041;-0.3181760013103485;-0.05197199806571007;0.9403759837150574;-0.19617599248886108;-0.2479040026664734;1.0277279615402222;-6.019999980926514;-12.739999771118164;-51.961875915527344
1043;0.0;0.0;0.0;-0.18055999279022217;-0.16201600432395935;1.1175199747085571;0.0;0.0;0.0
1045;0.0;0.0;0.0;-0.19617599248886108;-0.21276798844337463;1.0648159980773926;0.0;0.0;0.0
1047;0.0;0.0;0.0;-0.2117919921875;-0.21276798844337463;1.0648159980773926;0.0;0.0;0.0
1049;-0.3315959870815277;-0.06734399497509003;0.9501360058784485;-0.21959999203681946;-0.19715198874473572;1.085312008857727;0.21000000834465027;-7.769999980926514;-45.94187545776367
1052;0.0;0.0;0.0;-0.2508319914340973;-0.18544000387191772;1.1175199747085571;0.0;0.0;0.0
1054;0.0;0.0;0.0;-0.2664479911327362;-0.19324800372123718;1.1136159896850586;0.0;0.0;0.0
1056;0.0;0.0;0.0;-0.27035200595855713;-0.18934398889541626;1.1331360340118408;0.0;0.0;0.0
1058;-0.3701480031013489;-0.06563600152730942;0.9803919792175293;-0.27035200595855713;-0.1698240041732788;1.1380159854888916;6.860000133514404;-5.949999809265137;-37.6818733215332
1060;0.0;0.0;0.0;-0.2898719906806946;-0.18934398889541626;1.1331360340118408;0.0;0.0;0.0
1062;0.0;0.0;0.0;-0.2508319914340973;-0.13078400492668152;1.1458239555358887;0.0;0.0;0.0
1064;0.0;0.0;0.0;-0.2820639908313751;-0.1424959897994995;1.1575360298156738;0.0;0.0;0.0
1066;-0.41455599665641785;-0.0302559994161129;1.0211399793624878;-0.31329599022865295;-0.11126399785280228;1.1780319213867188;9.59000015258789;-6.230000019073486;-31.8018741607666
1069;0.0;0.0;0.0;-0.30158400535583496;-0.11907199770212173;1.1536319255828857;0.0;0.0;0.0
1071;0.0;0.0;0.0;-0.3328160047531128;-0.1542080044746399;1.1819360256195068;0.0;0.0;0.0
1073;0.0;0.0;0.0;-0.3357439935207367;-0.1268799901008606;1.1907199621200562;0.0;0.0;0.0
1075;-0.43602800369262695;0.0019519999623298645;1.0494439601898193;-0.2937760055065155;-0.12297599762678146;1.1780319213867188;6.789999961853027;-8.680000305175781;-29.981874465942383
1077;0.0;0.0;0.0;-0.3328160047531128;-0.13078400492668152;1.1780319213867188;0.0;0.0;0.0
1079;0.0;0.0;0.0;-0.29767999053001404;-0.13078400492668152;1.1780319213867188;0.0;0.0;0.0
1081;0.0;0.0;0.0;-0.2937760055065155;-0.115167997777462;1.1907199621200562;0.0;0.0;0.0
1083;-0.41406798362731934;0.01512799970805645;1.0550559759140015;-0.2664479911327362;-0.10345599800348282;1.1702239513397217;0.9100000262260437;-11.970000267028809;-30.33187484741211
1086;0.0;0.0;0.0;-0.23521599173545837;-0.13078400492668152;1.1741279363632202;0.0;0.0;0.0
1088;0.0;0.0;0.0;-0.30158400535583496;-0.09955199807882309;1.158511996269226;0.0;0.0;0.0
1090;0.0;0.0;0.0;-0.2820639908313751;-0.10735999792814255;1.1419199705123901;0.0;0.0;0.0
1092;-0.3882039785385132;0.01659199967980385;1.0260199308395386;-0.2391199916601181;-0.09564799815416336;1.1536319255828857;-5.460000038146973;-14.630000114440918;-31.8018741607666
1094;0.0;0.0;0.0;-0.27035200595855713;-0.12297599762678146;1.0970239639282227;0.0;0.0;0.0
1096;0.0;0.0;0.0;-0.2391199916601181;-0.13859200477600098;1.0804319381713867;0.0;0.0;0.0
1098;0.0;0.0;0.0;-0.24302399158477783;-0.12297599762678146;1.0648159980773926;0.0;0.0;0.0
1101;-0.35453200340270996;0.004391999915242195;0.9650200009346008;-0.23521599173545837;-0.09955199807882309;1.0560319423675537;-9.3100004196167;-15.819999694824219;-35.301876068115234
1103;0.0;0.0;0.0;-0.2391199916601181;-0.11126399785280228;1.0277279615402222;0.0;0.0;0.0
1105;0.0;0.0;0.0;-0.2235039919614792;-0.12297599762678146;1.044319987297058;0.0;0.0;0.0
1107;0.0;0.0;0.0;-0.21959999203681946;-0.1698240041732788;1.0404160022735596;0.0;0.0;0.0
1109;-0.3379400074481964;0.0024399999529123306;0.9201239943504333;-0.18836799263954163;-0.13468798995018005;1.0326080322265625;-9.730000495910645;-15.329999923706055;-38.451873779296875
1111;0.0;0.0;0.0;-0.2000799924135208;-0.11907199770212173;1.0521279573440552;0.0;0.0;0.0
1113;0.0;0.0;0.0;-0.2117919921875;-0.08393599838018417;1.0765279531478882;0.0;0.0;0.0
1115;0.0;0.0;0.0;-0.17665599286556244;-0.09174399822950363;1.0687199831008911;0.0;0.0;0.0
1117;-0.33086398243904114;0.031964000314474106;0.936959981918335;-0.21959999203681946;-0.07612799853086472;1.0931199789047241;-8.399999618530273;-14.630000114440918;-39.4318733215332
1120;0.0;0.0;0.0;-0.1727519929409027;-0.06441599875688553;1.0765279531478882;0.0;0.0;0.0
1122;0.0;0.0;0.0;-0.16884799301624298;-0.02147199958562851;1.1009279489517212;0.0;0.0;0.0
1124;0.0;0.0;0.0;-0.21959999203681946;-0.040991999208927155;1.0765279531478882;0.0;0.0;0.0
1126;-0.3042680025100708;0.09467199444770813;0.9679479598999023;-0.19617599248886108;-0.009759999811649323;1.1175199747085571;-8.050000190734863;-12.390000343322754;-36.35187530517578
1128;0.0;0.0;0.0;-0.18836799263954163;-0.013663999736309052;1.1009279489517212;0.0;0.0;0.0
1130;0.0;0.0;0.0;-0.18055999279022217;0.0019519999623298645;1.0892159938812256;0.0;0.0;0.0
1132;0.0;0.0;0.0;-0.18055999279022217;-0.02147199958562851;1.1009279489517212;0.0;0.0;0.0
1135;-0.3020719885826111;0.12931999564170837;0.9645319581031799;-0.18836799263954163;-0.02147199958562851;1.0931199789047241;-9.100000381469727;-6.579999923706055;-35.791873931884766
1137;0.0;0.0;0.0;-0.17665599286556244;-0.013663999736309052;1.085312008857727;0.0;0.0;0.0
1139;0.0;0.0;0.0;-0.21569599211215973;-0.013663999736309052;1.0970239639282227;0.0;0.0;0.0
1141;0.0;0.0;0.0;-0.20788799226284027;0.037087999284267426;1.085312008857727;0.0;0.0;0.0
1143;-0.32915598154067993;0.12541599571704865;0.9576999545097351;-0.2664479911327362;0.0058559998869895935;1.10971200466156;-8.470000267028809;-1.8200000524520874;-34.951873779296875
1145;0.0;0.0;0.0;-0.2391199916601181;0.01756799966096878;1.1331360340118408;0.0;0.0;0.0
1147;0.0;0.0;0.0;-0.23131199181079865;0.02537599951028824;1.1214239597320557;0.0;0.0;0.0
1149;0.0;0.0;0.0;-0.2937760055065155;0.0331839993596077;1.0970239639282227;0.0;0.0;0.0
1152;-0.3689279854297638;0.14469200372695923;0.9842959642410278;-0.23521599173545837;0.05270399898290634;1.1419199705123901;-4.619999885559082;-2.870000123977661;-31.03187370300293
1154;0.0;0.0;0.0;-0.26254400610923767;0.05270399898290634;1.1536319255828857;0.0;0.0;0.0
1156;0.0;0.0;0.0;-0.2391199916601181;0.0878399983048439;1.1253279447555542;0.0;0.0;0.0
1158;0.0;0.0;0.0;-0.2391199916601181;0.07612799853086472;1.134112000465393;0.0;0.0;0.0
1160;-0.36209598183631897;0.20032399892807007;1.013819932937622;-0.2547360062599182;0.0878399983048439;1.1419199705123901;0.7699999809265137;-7.420000076293945;-25.151874542236328
1162;0.0;0.0;0.0;-0.2235039919614792;0.09174399822950363;1.1419199705123901;0.0;0.0;0.0
1164;0.0;0.0;0.0;-0.20788799226284027;0.09955199807882309;1.1536319255828857;0.0;0.0;0.0
1166;0.0;0.0;0.0;-0.19617599248886108;0.1268799901008606;1.134112000465393;0.0;0.0;0.0
1169;-0.33842799067497253;0.24277999997138977;1.0091840028762817;-0.21569599211215973;0.13859200477600098;1.0931199789047241;5.809999942779541;-11.550000190734863;-19.201873779296875
1171;0.0;0.0;0.0;-0.19617599248886108;0.11907199770212173;1.0970239639282227;0.0;0.0;0.0
1173;0.0;0.0;0.0;-0.1727519929409027;0.13468798995018005;1.085312008857727;0.0;0.0;0.0
1175;0.0;0.0;0.0;-0.18836799263954163;0.115167997777462;1.0931199789047241;0.0;0.0;0.0
1177;-0.3201279938220978;0.2588839828968048;0.965507984161377;-0.23521599173545837;0.11907199770212173;1.0482239723205566;9.800000190734863;-13.720000267028809;-15.07187557220459
1179;0.0;0.0;0.0;-0.21959999203681946;0.14640000462532043;1.0570080280303955;0.0;0.0;0.0
1181;0.0;0.0;0.0;-0.1571359932422638;0.1268799901008606;1.0238239765167236;0.0;0.0;0.0
1183;0.0;0.0;0.0;-0.16201600432395935;0.12297599762678146;1.019919991493225;0.0;0.0;0.0
1186;-0.2915799915790558;0.2664479911327362;0.9079239964485168;-0.15323199331760406;0.1542080044746399;1.0160160064697266;13.020000457763672;-13.859999656677246;-14.791874885559082
1188;0.0;0.0;0.0;-0.0878399983048439;0.10345599800348282;0.9877119660377502;0.0;0.0;0.0
1190;0.0;0.0;0.0;-0.115167997777462;0.12297599762678146;0.9838079810142517;0.0;0.0;0.0
1192;0.0;0.0;0.0;-0.13468798995018005;0.1424959897994995;1.036512017250061;0.0;0.0;0.0
1194;-0.22935999929904938;0.2583959996700287;0.8747400045394897;-0.06441599875688553;0.09174399822950363;0.9838079810142517;15.890000343322754;-11.970000267028809;-13.881875038146973
1196;0.0;0.0;0.0;-0.08003199845552444;0.15030398964881897;1.0033279657363892;0.0;0.0;0.0
1198;0.0;0.0;0.0;-0.07612799853086472;0.16201600432395935;1.0160160064697266;0.0;0.0;0.0
1200;0.0;0.0;0.0;-0.08003199845552444;0.15811198949813843;1.036512017250061;0.0;0.0;0.0
1203;-0.2030079960823059;0.2898719906806946;0.8901119828224182;-0.10735999792814255;0.20105600357055664;1.036512017250061;17.71000099182129;-6.019999980926514;-13.181875228881836
1205;0.0;0.0;0.0;-0.115167997777462;0.2205759882926941;1.0277279615402222;0.0;0.0;0.0
1207;0.0;0.0;0.0;-0.115167997777462;0.20495998859405518;1.0560319423675537;0.0;0.0;0.0
1209;0.0;0.0;0.0;-0.1424959897994995;0.20105600357055664;1.0687199831008911;0.0;0.0;0.0
1211;-0.23814399540424347;0.3306199908256531;0.9335439801216125;-0.1424959897994995;0.22448000311851501;1.0931199789047241;17.219999313354492;-1.399999976158142;-11.851875305175781
1213;0.0;0.0;0.0;-0.13859200477600098;0.22448000311851501;1.10971200466156;0.0;0.0;0.0
1215;0.0;0.0;0.0;-0.1542080044746399;0.22448000311851501;1.134112000465393;0.0;0.0;0.0
1217;0.0;0.0;0.0;-0.16103999316692352;0.2479040026664734;1.134112000465393;0.0;0.0;0.0
1220;-0.2588839828968048;0.3681959807872772;0.9882000088691711;-0.13078400492668152;0.23228800296783447;1.1292319297790527;16.59000015258789;-0.14000000059604645;-11.08187484741211
1222;0.0;0.0;0.0;-0.13468798995018005;0.2518079876899719;1.134112000465393;0.0;0.0;0.0
1224;0.0;0.0;0.0;-0.09564799815416336;0.2869440019130707;1.158511996269226;0.0;0.0;0.0
1226;0.0;0.0;0.0;-0.08003199845552444;0.2908479869365692;1.158511996269226;0.0;0.0;0.0
1228;-0.22960399091243744;0.41455599665641785;1.026263952255249;-0.0878399983048439;0.2791360020637512;1.1985279321670532;14.84000015258789;-1.6800000667572021;-7.861875057220459
1230;0.0;0.0;0.0;-0.044895999133586884;0.32598400115966797;1.1858400106430054;0.0;0.0;0.0
1232;0.0;0.0;0.0;-0.044895999133586884;0.3142719864845276;1.2151199579238892;0.0;0.0;0.0
1234;0.0;0.0;0.0;-0.04879999905824661;0.3298879861831665;1.2512320280075073;0.0;0.0;0.0
1237;-0.17006799578666687;0.44773998856544495;1.0914119482040405;-0.01756799966096878;0.2908479869365692;1.2307360172271729;10.569999694824219;-5.25;1.4481250047683716
1239;0.0;0.0;0.0;0.02537599951028824;0.32207998633384705;1.2346400022506714;0.0;0.0;0.0
1241;0.0;0.0;0.0;0.05270399898290634;0.29865598678588867;1.2434239387512207;0.0;0.0;0.0
1243;0.0;0.0;0.0;0.05660799890756607;0.31036800146102905;1.2590399980545044;0.0;0.0;0.0
1245;-0.0756400004029274;0.4379799962043762;1.118008017539978;0.10247999429702759;0.27132800221443176;1.2473279237747192;4.130000114440918;-7.070000171661377;14.188124656677246
1247;0.0;0.0;0.0;0.10247999429702759;0.3025600016117096;1.2551360130310059;0.0;0.0;0.0
1249;0.0;0.0;0.0;0.12590399384498596;0.26742398738861084;1.1946239471435547;0.0;0.0;0.0
1251;0.0;0.0;0.0;0.1298079937696457;0.2518079876899719;1.2395199537277222;0.0;0.0;0.0
1254;-0.008051999844610691;0.39649999141693115;1.1050759553909302;0.13371199369430542;0.2518079876899719;1.2307360172271729;-3.0799999237060547;-4.409999847412109;25.458126068115234
1256;0.0;0.0;0.0;0.15323199331760406;0.23228800296783447;1.2190239429473877;0.0;0.0;0.0
1258;0.0;0.0;0.0;0.13371199369430542;0.20105600357055664;1.1819360256195068;0.0;0.0;0.0
1260;0.0;0.0;0.0;0.20398399233818054;0.19715198874473572;1.1624159812927246;0.0;0.0;0.0
1262;0.042211998254060745;0.3398919999599457;1.0613999366760254;0.20398399233818054;0.20105600357055664;1.1946239471435547;-8.539999961853027;-0.699999988079071;32.80812454223633
1264;0.0;0.0;0.0;0.1727519929409027;0.1698240041732788;1.1702239513397217;0.0;0.0;0.0
1266;0.0;0.0;0.0;0.2000799924135208;0.16201600432395935;1.1702239513397217;0.0;0.0;0.0
1268;0.0;0.0;0.0;0.2391199916601181;0.1424959897994995;1.1741279363632202;0.0;0.0;0.0
1271;0.08881600201129913;0.2937760055065155;1.0379760265350342;0.21569599211215973;0.1424959897994995;1.1868159770965576;-10.850000381469727;3.1500000953674316;38.12812423706055
1273;0.0;0.0;0.0;0.21569599211215973;0.15030398964881897;1.1907199621200562;0.0;0.0;0.0
1275;0.0;0.0;0.0;0.23131199181079865;0.14640000462532043;1.1985279321670532;0.0;0.0;0.0
1277;0.0;0.0;0.0;0.25863999128341675;0.13859200477600098;1.2024319171905518;0.0;0.0;0.0
1279;0.12175599485635757;0.268887996673584;1.0599359273910522;0.2508319914340973;0.13859200477600098;1.1985279321670532;-11.6899995803833;8.050000190734863;41.55812454223633
1281;0.0;0.0;0.0;0.2664479911327362;0.11907199770212173;1.1946239471435547;0.0;0.0;0.0
1283;0.0;0.0;0.0;0.2547360062599182;0.11126399785280228;1.1985279321670532;0.0;0.0;0.0
1285;0.0;0.0;0.0;0.29767999053001404;0.12297599762678146;1.1985279321670532;0.0;0.0;0.0
1288;0.1676279902458191;0.25449198484420776;1.0648159980773926;0.3172000050544739;0.115167997777462;1.1907199621200562;-9.520000457763672;12.880000114440918;43.51812744140625
1290;0.0;0.0;0.0;0.29767999053001404;0.13078400492668152;1.2112159729003906;0.0;0.0;0.0
1292;0.0;0.0;0.0;0.3054879903793335;0.1268799901008606;1.2151199579238892;0.0;0.0;0.0
1294;0.0;0.0;0.0;0.34062400460243225;0.09955199807882309;1.2151199579238892;0.0;0.0;0.0
1296;0.20325200259685516;0.24765999615192413;1.0809199810028076;0.36795198917388916;0.10735999792814255;1.2229279279708862;-5.25;18.1299991607666;44.42812728881836
1298;0.0;0.0;0.0;0.3211039900779724;0.13859200477600098;1.2151199579238892;0.0;0.0;0.0
1300;0.0;0.0;0.0;0.35624000430107117;0.12297599762678146;1.2229279279708862;0.0;0.0;0.0
1303;0.0;0.0;0.0;0.3640480041503906;0.10735999792814255;1.2434239387512207;0.0;0.0;0.0
1305;0.23838800191879272;0.2588839828968048;1.0975120067596436;0.36795198917388916;0.1424959897994995;1.2590399980545044;-0.42000001668930054;23.450000762939453;44.98812484741211
1307;0.0;0.0;0.0;0.3757599890232086;0.14640000462532043;1.2512320280075073;0.0;0.0;0.0
1309;0.0;0.0;0.0;0.4265120029449463;0.13468798995018005;1.2512320280075073;0.0;0.0;0.0
1311;0.0;0.0;0.0;0.42553597688674927;0.15811198949813843;1.2434239387512207;0.0;0.0;0.0
1313;0.2896279990673065;0.2776719927787781;1.1219120025634766;0.43724799156188965;0.14640000462532043;1.2473279237747192;3.990000009536743;27.860000610351562;45.12812423706055
1315;0.0;0.0;0.0;0.460671991109848;0.1424959897994995;1.2639199495315552;0.0;0.0;0.0
1317;0.0;0.0;0.0;0.460671991109848;0.14640000462532043;1.2229279279708862;0.0;0.0;0.0
1320;0.0;0.0;0.0;0.4997119903564453;0.1268799901008606;1.2473279237747192;0.0;0.0;0.0
1322;0.35575199127197266;0.2752319872379303;1.1189839839935303;0.4958080053329468;0.1542080044746399;1.2307360172271729;7.28000020980835;32.060001373291016;45.96812438964844
1324;0.0;0.0;0.0;0.5231360197067261;0.1268799901008606;1.2551360130310059;0.0;0.0;0.0
1326;0.0;0.0;0.0;0.4840959906578064;0.115167997777462;1.2473279237747192;0.0;0.0;0.0
1328;0.0;0.0;0.0;0.5192319750785828;0.14640000462532043;1.2551360130310059;0.0;0.0;0.0
1330;0.38478800654411316;0.2664479911327362;1.119715929031372;0.5192319750785828;0.1424959897994995;1.2756320238113403;10.430000305175781;35.279998779296875;49.67812728881836
1332;0.0;0.0;0.0;0.5192319750785828;0.13859200477600098;1.2639199495315552;0.0;0.0;0.0
1334;0.0;0.0;0.0;0.5387519598007202;0.13859200477600098;1.2551360130310059;0.0;0.0;0.0
1337;0.0;0.0;0.0;0.5543680191040039;0.13078400492668152;1.262943983078003;0.0;0.0;0.0
1339;0.4167519807815552;0.2683999836444855;1.1402119398117065;0.562175989151001;0.14640000462532043;1.2834399938583374;11.34000015258789;37.52000045776367;53.17812728881836
1341;0.0;0.0;0.0;0.5543680191040039;0.115167997777462;1.2795360088348389;0.0;0.0;0.0
1343;0.0;0.0;0.0;0.5387519598007202;0.10345599800348282;1.2834399938583374;0.0;0.0;0.0
1345;0.0;0.0;0.0;0.562175989151001;0.13078400492668152;1.3166239261627197;0.0;0.0;0.0
1347;0.43432000279426575;0.2566879987716675;1.1680279970169067;0.5660799741744995;0.09955199807882309;1.3322399854660034;10.010000228881836;38.08000183105469;56.67812728881836
1349;0.0;0.0;0.0;0.5582720041275024;0.09174399822950363;1.3400479555130005;0.0;0.0;0.0
1351;0.0;0.0;0.0;0.5426560044288635;0.09174399822950363;1.360543966293335;0.0;0.0;0.0
1354;0.0;0.0;0.0;0.5504639744758606;0.07612799853086472;1.3693280220031738;0.0;0.0;0.0
1356;0.4391999840736389;0.22667600214481354;1.2290279865264893;0.5426560044288635;0.06831999868154526;1.3976320028305054;5.880000114440918;36.88999938964844;61.15812683105469
1358;0.0;0.0;0.0;0.5582720041275024;0.044895999133586884;1.3888479471206665;0.0;0.0;0.0
1360;0.0;0.0;0.0;0.5387519598007202;0.029279999434947968;1.3937280178070068;0.0;0.0;0.0
1362;0.0;0.0;0.0;0.5504639744758606;0.01756799966096878;1.425935983657837;0.0;0.0;0.0
1364;0.4311479926109314;0.16738399863243103;1.278559923171997;0.5348479747772217;-0.0019519999623298645;1.425935983657837;-1.75;35.90999984741211;63.118125915527344
1366;0.0;0.0;0.0;0.5738880038261414;-0.01756799966096878;1.4132479429244995;0.0;0.0;0.0
1368;0.0;0.0;0.0;0.5504639744758606;-0.0605119988322258;1.4054399728775024;0.0;0.0;0.0
1371;0.0;0.0;0.0;0.5387519598007202;-0.05270399898290634;1.3937280178070068;0.0;0.0;0.0
1373;0.44822800159454346;0.09223199635744095;1.2705079317092896;0.569983959197998;-0.07612799853086472;1.360543966293335;-8.819999694824219;32.619998931884766;64.16812896728516
1375;0.0;0.0;0.0;0.5504639744758606;-0.08003199845552444;1.3488320112228394;0.0;0.0;0.0
1377;0.0;0.0;0.0;0.5426560044288635;-0.09955199807882309;1.3283360004425049;0.0;0.0;0.0
1379;0.0;0.0;0.0;0.562175989151001;-0.115167997777462;1.311743974685669;0.0;0.0;0.0
1381;0.4504239857196808;0.028303999453783035;1.2043839693069458;0.5426560044288635;-0.13078400492668152;1.287343978881836;-12.319999694824219;28.700000762939453;60.87812805175781
1383;0.0;0.0;0.0;0.5660799741744995;-0.14640000462532043;1.2551360130310059;0.0;0.0;0.0
1385;0.0;0.0;0.0;0.5777919888496399;-0.13468798995018005;1.2512320280075073;0.0;0.0;0.0
1388;0.0;0.0;0.0;0.6285439729690552;-0.1542080044746399;1.2151199579238892;0.0;0.0;0.0
1390;0.4589639902114868;-0.006831999868154526;1.1099560260772705;0.5973119735717773;-0.15030398964881897;1.1819360256195068;-10.989999771118164;22.96000099182129;51.5681266784668
1392;0.0;0.0;0.0;0.636352002620697;-0.15030398964881897;1.1780319213867188;0.0;0.0;0.0
1394;0.0;0.0;0.0;0.6246399879455566;-0.13078400492668152;1.158511996269226;0.0;0.0;0.0
1396;0.0;0.0;0.0;0.659775972366333;-0.13468798995018005;1.1624159812927246;0.0;0.0;0.0
1398;0.5131319761276245;-0.008539999835193157;1.0379760265350342;0.6548959612846375;-0.115167997777462;1.1458239555358887;-6.789999961853027;16.799999237060547;40.298126220703125
1400;0.0;0.0;0.0;0.6978399753570557;-0.115167997777462;1.1575360298156738;0.0;0.0;0.0
1402;0.0;0.0;0.0;0.6978399753570557;-0.10735999792814255;1.1575360298156738;0.0;0.0;0.0
1405;0.0;0.0;0.0;0.6705119609832764;-0.08003199845552444;1.1380159854888916;0.0;0.0;0.0
1407;0.5658360123634338;0.026839999482035637;1.0189440250396729;0.6900320053100586;-0.07222399860620499;1.1575360298156738;-3.7100000381469727;12.8100004196167;31.338125228881836
1409;0.0;0.0;0.0;0.6978399753570557;-0.08393599838018417;1.1575360298156738;0.0;0.0;0.0
1411;0.0;0.0;0.0;0.6978399753570557;-0.04879999905824661;1.1663199663162231;0.0;0.0;0.0
1413;0.0;0.0;0.0;0.6783199906349182;-0.04879999905824661;1.1536319255828857;0.0;0.0;0.0
1415;0.5719360113143921;0.07710400223731995;1.0284600257873535;0.6783199906349182;-0.037087999284267426;1.1575360298156738;-2.7300000190734863;9.59000015258789;26.858125686645508
1417;0.0;0.0;0.0;0.6558719873428345;-0.037087999284267426;1.1741279363632202;0.0;0.0;0.0
1419;0.0;0.0;0.0;0.6783199906349182;-0.044895999133586884;1.1458239555358887;0.0;0.0;0.0
1422;0.0;0.0;0.0;0.6861279606819153;-0.037087999284267426;1.1575360298156738;0.0;0.0;0.0
1424;0.5633959770202637;0.09223199635744095;1.0243120193481445;0.6783199906349182;-0.01756799966096878;1.1380159854888916;-1.399999976158142;5.809999942779541;26.368125915527344
1426;0.0;0.0;0.0;0.709551990032196;-0.06831999868154526;1.1497279405593872;0.0;0.0;0.0
1428;0.0;0.0;0.0;0.6783199906349182;-0.08003199845552444;1.1136159896850586;0.0;0.0;0.0
1430;0.0;0.0;0.0;0.6861279606819153;-0.07612799853086472;1.1253279447555542;0.0;0.0;0.0
1432;0.5709599852561951;0.06295199692249298;0.9918599724769592;0.6978399753570557;-0.10735999792814255;1.1048319339752197;2.5199999809265137;3.640000104904175;28.818126678466797
1434;0.0;0.0;0.0;0.6822239756584167;-0.11907199770212173;1.0804319381713867;0.0;0.0;0.0
1436;0.0;0.0;0.0;0.6900320053100586;-0.12297599762678146;1.060912013053894;0.0;0.0;0.0
1439;0.0;0.0;0.0;0.709551990032196;-0.14640000462532043;1.0521279573440552;0.0;0.0;0.0
1441;0.5768159627914429;0.010247999802231789;0.9511119723320007;0.6861279606819153;-0.1542080044746399;1.0648159980773926;7.840000152587891;4.269999980926514;32.59812545776367
1443;0.0;0.0;0.0;0.7134559750556946;-0.14640000462532043;1.0560319423675537;0.0;0.0;0.0
1445;0.0;0.0;0.0;0.6558719873428345;-0.17763200402259827;1.0160160064697266;0.0;0.0;0.0
1447;0.0;0.0;0.0;0.6666079759597778;-0.19715198874473572;1.0521279573440552;0.0;0.0;0.0
1449;0.5524159669876099;-0.03611199930310249;0.9193919897079468;0.6402559876441956;-0.19715198874473572;1.0521279573440552;12.529999732971191;8.260000228881836;35.53812789916992
1452;0.0;0.0;0.0;0.6402559876441956;-0.2205759882926941;1.0570080280303955;0.0;0.0;0.0
1453;0.0;0.0;0.0;0.6285439729690552;-0.1815359890460968;1.0521279573440552;0.0;0.0;0.0
1456;0.0;0.0;0.0;0.6129279732704163;-0.19324800372123718;1.0804319381713867;0.0;0.0;0.0
1458;0.5126439929008484;-0.06197600066661835;0.9171959757804871;0.6207360029220581;-0.2088640034198761;1.0765279531478882;15.75;13.440000534057617;36.44812774658203
1460;0.0;0.0;0.0;0.5973119735717773;-0.1815359890460968;1.0892159938812256;0.0;0.0;0.0
1462;0.0;0.0;0.0;0.6168320178985596;-0.2088640034198761;1.0726239681243896;0.0;0.0;0.0
1464;0.0;0.0;0.0;0.6051200032234192;-0.17763200402259827;1.0970239639282227;0.0;0.0;0.0
1466;0.48263198137283325;-0.06758800148963928;0.9486719965934753;0.5856000185012817;-0.20105600357055664;1.085312008857727;18.40999984741211;16.100000381469727;38.12812423706055
1469;0.0;0.0;0.0;0.5895040035247803;-0.20105600357055664;1.0892159938812256;0.0;0.0;0.0
1471;0.0;0.0;0.0;0.5816959738731384;-0.21667200326919556;1.0931199789047241;0.0;0.0;0.0
1473;0.0;0.0;0.0;0.6168320178985596;-0.20495998859405518;1.10971200466156;0.0;0.0;0.0
1475;0.4753119945526123;-0.07637199759483337;0.9633119702339172;0.5934079885482788;-0.2205759882926941;1.0892159938812256;21.139999389648438;15.680000305175781;40.92812728881836
1477;0.0;0.0;0.0;0.5856000185012817;-0.2205759882926941;1.1175199747085571;0.0;0.0;0.0
1479;0.0;0.0;0.0;0.5777919888496399;-0.20495998859405518;1.1175199747085571;0.0;0.0;0.0
1481;0.0;0.0;0.0;0.6051200032234192;-0.2596159875392914;1.1253279447555542;0.0;0.0;0.0
1483;0.46921199560165405;-0.09857599437236786;0.9808799624443054;0.5856000185012817;-0.236191987991333;1.1292319297790527;20.93000030517578;13.230000495910645;42.8181266784668
1485;0.0;0.0;0.0;0.6324479579925537;-0.236191987991333;1.1380159854888916;0.0;0.0;0.0
1488;0.0;0.0;0.0;0.5973119735717773;-0.26742398738861084;1.1253279447555542;0.0;0.0;0.0
1490;0.0;0.0;0.0;0.6090239882469177;-0.2518079876899719;1.1292319297790527;0.0;0.0;0.0
1492;0.48555999994277954;-0.12224400043487549;0.9969840049743652;0.636352002620697;-0.2869440019130707;1.1214239597320557;17.010000228881836;8.890000343322754;43.09812545776367
1494;0.0;0.0;0.0;0.5816959738731384;-0.2908479869365692;1.1214239597320557;0.0;0.0;0.0
1496;0.0;0.0;0.0;0.6129279732704163;-0.29475200176239014;1.1253279447555542;0.0;0.0;0.0
1498;0.0;0.0;0.0;0.6246399879455566;-0.3455039858818054;1.0804319381713867;0.0;0.0;0.0
1500;0.4958080053329468;-0.17494799196720123;0.9779520034790039;0.6051200032234192;-0.3728320002555847;1.0892159938812256;12.039999961853027;4.480000019073486;41.62812423706055
1503;0.0;0.0;0.0;0.6168320178985596;-0.37673598527908325;1.0726239681243896;0.0;0.0;0.0
1505;0.0;0.0;0.0;0.6051200032234192;-0.38844799995422363;1.0521279573440552;0.0;0.0;0.0
1507;0.0;0.0;0.0;0.569983959197998;-0.41577598452568054;1.0277279615402222;0.0;0.0;0.0
1509;0.4811680018901825;-0.25058799982070923;0.9237839579582214;0.5973119735717773;-0.41577598452568054;1.0033279657363892;7.490000247955322;3.569999933242798;35.958126068115234
1511;0.0;0.0;0.0;0.5543680191040039;-0.41967999935150146;1.0326080322265625;0.0;0.0;0.0
1513;0.0;0.0;0.0;0.5816959738731384;-0.45871999859809875;1.012112021446228;0.0;0.0;0.0
1515;0.0;0.0;0.0;0.5504639744758606;-0.45871999859809875;1.019919991493225;0.0;0.0;0.0
1517;0.43724799156188965;-0.31500399112701416;0.8915759921073914;0.562175989151001;-0.4470079839229584;1.0326080322265625;4.059999942779541;4.340000152587891;25.108125686645508
1520;0.0;0.0;0.0;0.5192319750785828;-0.5094720125198364;1.012112021446228;0.0;0.0;0.0
1522;0.0;0.0;0.0;0.5231360197067261;-0.5055679678916931;1.0287039279937744;0.0;0.0;0.0
1524;0.0;0.0;0.0;0.5387519598007202;-0.49775999784469604;1.0521279573440552;0.0;0.0;0.0
1526;0.40869998931884766;-0.3699039816856384;0.8932839632034302;0.5348479747772217;-0.513375997543335;1.0277279615402222;2.240000009536743;4.269999980926514;12.0181245803833
1528;0.0;0.0;0.0;0.5348479747772217;-0.5094720125198364;1.0482239723205566;0.0;0.0;0.0
1530;0.0;0.0;0.0;0.5114240050315857;-0.5250880122184753;1.044319987297058;0.0;0.0;0.0
1532;0.0;0.0;0.0;0.5036159753799438;-0.5407040119171143;1.0404160022735596;0.0;0.0;0.0
1534;0.39308398962020874;-0.3933279812335968;0.9201239943504333;0.4997119903564453;-0.5485119819641113;1.0648159980773926;4.409999847412109;1.6800000667572021;3.338124990463257
1537;0.0;0.0;0.0;0.49190399050712585;-0.5446079969406128;1.060912013053894;0.0;0.0;0.0
1539;0.0;0.0;0.0;0.46457600593566895;-0.5055679678916931;1.044319987297058;0.0;0.0;0.0
1541;0.0;0.0;0.0;0.43724799156188965;-0.5172799825668335;1.0482239723205566;0.0;0.0;0.0
1543;0.36160799860954285;-0.38893598318099976;0.9189040064811707;0.48019200563430786;-0.5407040119171143;1.0404160022735596;8.119999885559082;-2.7300000190734863;-3.801875114440918
1545;0.0;0.0;0.0;0.4684799909591675;-0.513375997543335;1.0482239723205566;0.0;0.0;0.0
1547;0.0;0.0;0.0;0.4294399917125702;-0.49775999784469604;1.036512017250061;0.0;0.0;0.0
1549;0.0;0.0;0.0;0.4177280068397522;-0.5446079969406128;1.0316319465637207;0.0;0.0;0.0
1551;0.313539981842041;-0.39064398407936096;0.9118279814720154;0.4138239920139313;-0.5407040119171143;1.012112021446228;10.220000267028809;-8.539999961853027;-11.991874694824219
1554;0.0;0.0;0.0;0.39137598872184753;-0.5446079969406128;1.044319987297058;0.0;0.0;0.0
1556;0.0;0.0;0.0;0.37966400384902954;-0.521183967590332;1.0687199831008911;0.0;0.0;0.0
1558;0.0;0.0;0.0;0.42553597688674927;-0.5289919972419739;1.0892159938812256;0.0;0.0;0.0
1560;0.2845039963722229;-0.38942399621009827;0.9269559979438782;0.45286399126052856;-0.521183967590332;1.0482239723205566;10.569999694824219;-15.329999923706055;-18.71187400817871
1562;0.0;0.0;0.0;0.399183988571167;-0.536799967288971;1.0726239681243896;0.0;0.0;0.0
1564;0.0;0.0;0.0;0.39137598872184753;-0.5250880122184753;1.0804319381713867;0.0;0.0;0.0
1566;0.0;0.0;0.0;0.3640480041503906;-0.513375997543335;1.0970239639282227;0.0;0.0;0.0
1568;0.2559559941291809;-0.39064398407936096;0.9542839527130127;0.32500800490379333;-0.5328959822654724;1.1009279489517212;10.779999732971191;-22.399999618530273;-15.351875305175781
1571;0.0;0.0;0.0;0.2898719906806946;-0.5250880122184753;1.0970239639282227;0.0;0.0;0.0
1573;0.0;0.0;0.0;0.3484320044517517;-0.521183967590332;1.10971200466156;0.0;0.0;0.0
1575;0.0;0.0;0.0;0.32891198992729187;-0.513375997543335;1.0931199789047241;0.0;0.0;0.0
1577;0.19885998964309692;-0.3742959797382355;0.9725840091705322;0.31329599022865295;-0.5094720125198364;1.1009279489517212;10.850000381469727;-29.049999237060547;-11.361875534057617
1579;0.0;0.0;0.0;0.30158400535583496;-0.5172799825668335;1.0970239639282227;0.0;0.0;0.0
1581;0.0;0.0;0.0;0.3093920052051544;-0.513375997543335;1.0970239639282227;0.0;0.0;0.0
1583;0.0;0.0;0.0;0.3211039900779724;-0.5172799825668335;1.1009279489517212;0.0;0.0;0.0
1585;0.19764000177383423;-0.38015198707580566;0.9747799634933472;0.3484320044517517;-0.521183967590332;1.0931199789047241;11.480000495910645;-34.93000030517578;-6.391875267028809
1588;0.0;0.0;0.0;0.35624000430107117;-0.5407040119171143;1.0970239639282227;0.0;0.0;0.0
1590;0.0;0.0;0.0;0.33671998977661133;-0.5446079969406128;1.0560319423675537;0.0;0.0;0.0
1592;0.0;0.0;0.0;0.33671998977661133;-0.5563200116157532;1.0238239765167236;0.0;0.0;0.0
1594;0.21618399024009705;-0.42919600009918213;0.929639995098114;0.3484320044517517;-0.5953599810600281;1.0326080322265625;11.550000190734863;-36.81999969482422;0.11812499910593033
1596;0.0;0.0;0.0;0.34062400460243225;-0.610975980758667;1.012112021446228;0.0;0.0;0.0
1598;0.0;0.0;0.0;0.3093920052051544;-0.6148799657821655;0.9994239807128906;0.0;0.0;0.0
1600;0.0;0.0;0.0;0.32500800490379333;-0.6383039951324463;0.9994239807128906;0.0;0.0;0.0
1602;0.2152079939842224;-0.5055679678916931;0.8771799802780151;0.3172000050544739;-0.6968640089035034;1.0033279657363892;12.180000305175781;-33.95000076293945;5.85812520980835
1605;0.0;0.0;0.0;0.31329599022865295;-0.6578239798545837;0.9916160106658936;0.0;0.0;0.0
1607;0.0;0.0;0.0;0.3054879903793335;-0.6734399795532227;1.0160160064697266;0.0;0.0;0.0
1609;0.0;0.0;0.0;0.3445279896259308;-0.6773439645767212;1.0326080322265625;0.0;0.0;0.0
1611;0.2193560004234314;-0.5399720072746277;0.8869400024414062;0.3445279896259308;-0.6890559792518616;1.0482239723205566;12.25;-29.540000915527344;9.358124732971191
1613;0.0;0.0;0.0;0.34062400460243225;-0.685151994228363;1.0521279573440552;0.0;0.0;0.0
1615;0.0;0.0;0.0;0.3328160047531128;-0.6968640089035034;1.044319987297058;0.0;0.0;0.0
1617;0.0;0.0;0.0;0.33671998977661133;-0.6890559792518616;1.085312008857727;0.0;0.0;0.0
1619;0.20861999690532684;-0.5587599873542786;0.9391559958457947;0.3172000050544739;-0.7241919636726379;1.0804319381713867;10.569999694824219;-26.880001068115234;11.66812515258789
1622;0.0;0.0;0.0;0.3484320044517517;-0.7163839936256409;1.0892159938812256;0.0;0.0;0.0
1624;0.0;0.0;0.0;0.2937760055065155;-0.7359039783477783;1.1009279489517212;0.0;0.0;0.0
1626;0.0;0.0;0.0;0.30158400535583496;-0.7944639921188354;1.0931199789047241;0.0;0.0;0.0
1628;0.19154000282287598;-0.619271993637085;0.957211971282959;0.29767999053001404;-0.7944639921188354;1.060912013053894;8.609999656677246;-25.969999313354492;10.968125343322754
1630;0.0;0.0;0.0;0.2937760055065155;-0.8178879618644714;1.0570080280303955;0.0;0.0;0.0
1632;0.0;0.0;0.0;0.2820639908313751;-0.8335039615631104;1.0726239681243896;0.0;0.0;0.0
1634;0.0;0.0;0.0;0.25863999128341675;-0.87254399061203;1.0521279573440552;0.0;0.0;0.0
1636;0.15225599706172943;-0.7154079675674438;0.9252479672431946;0.2391199916601181;-0.8842560052871704;1.0482239723205566;8.680000305175781;-24.5;5.29812479019165
1639;0.0;0.0;0.0;0.2391199916601181;-0.9232959747314453;1.019919991493225;0.0;0.0;0.0
1641;0.0;0.0;0.0;0.23521599173545837;-0.9232959747314453;1.0238239765167236;0.0;0.0;0.0
1643;0.0;0.0;0.0;0.20398399233818054;-0.9545279741287231;0.9916160106658936;0.0;0.0;0.0
1645;0.10565199702978134;-0.7842159867286682;0.8859639763832092;0.18836799263954163;-0.9193919897079468;0.9955199956893921;10.359999656677246;-23.729999542236328;-5.20187520980835
1647;0.0;0.0;0.0;0.19227199256420135;-0.9311040043830872;0.9877119660377502;0.0;0.0;0.0
1649;0.0;0.0;0.0;0.16103999316692352;-0.9311040043830872;0.9877119660377502;0.0;0.0;0.0
1651;0.0;0.0;0.0;0.18836799263954163;-0.9232959747314453;1.019919991493225;0.0;0.0;0.0
1653;0.0634399950504303;-0.7969039678573608;0.8701039552688599;0.17665599286556244;-0.9350079894065857;1.012112021446228;11.970000267028809;-24.850000381469727;-18.08187484741211
1656;0.0;0.0;0.0;0.18055999279022217;-0.895967960357666;1.019919991493225;0.0;0.0;0.0
1658;0.0;0.0;0.0;0.14932799339294434;-0.8920639753341675;1.0238239765167236;0.0;0.0;0.0
1660;0.0;0.0;0.0;0.16494399309158325;-0.8998720049858093;1.0404160022735596;0.0;0.0;0.0
1662;0.03367199748754501;-0.7620120048522949;0.8981639742851257;0.15323199331760406;-0.87254399061203;1.044319987297058;11.550000190734863;-27.649999618530273;-31.03187370300293
1664;0.0;0.0;0.0;0.13371199369430542;-0.8842560052871704;1.036512017250061;0.0;0.0;0.0
1666;0.0;0.0;0.0;0.1454239934682846;-0.8530240058898926;1.0648159980773926;0.0;0.0;0.0
1668;0.0;0.0;0.0;0.11419199407100677;-0.8491199612617493;1.044319987297058;0.0;0.0;0.0
1670;0.007075999863445759;-0.7254120111465454;0.9147560000419617;0.10247999429702759;-0.8374080061912537;1.044319987297058;7.840000152587891;-27.93000030517578;-43.56187438964844
1673;0.0;0.0;0.0;0.09955199807882309;-0.8413119912147522;1.0804319381713867;0.0;0.0;0.0
1675;0.0;0.0;0.0;0.09955199807882309;-0.8139839768409729;1.0726239681243896;0.0;0.0;0.0
1677;0.0;0.0;0.0;0.06831999868154526;-0.8022719621658325;1.085312008857727;0.0;0.0;0.0
1679;-0.0378200002014637;-0.681003987789154;0.9501360058784485;0.06441599875688553;-0.7827519774436951;1.0931199789047241;1.8200000524520874;-27.860000610351562;-54.201873779296875
1681;0.0;0.0;0.0;0.07222399860620499;-0.774944007396698;1.1009279489517212;0.0;0.0;0.0
1683;0.0;0.0;0.0;0.02537599951028824;-0.7398079633712769;1.1380159854888916;0.0;0.0;0.0
1685;0.0;0.0;0.0;0.029279999434947968;-0.700767993927002;1.1624159812927246;0.0;0.0;0.0
1687;-0.08735200017690659;-0.6102439761161804;1.0043039321899414;0.0058559998869895935;-0.685151994228363;1.1907199621200562;-5.389999866485596;-29.329999923706055;-60.85187530517578
1690;0.0;0.0;0.0;-0.01756799966096878;-0.6734399795532227;1.1819360256195068;0.0;0.0;0.0
1692;0.0;0.0;0.0;-0.040991999208927155;-0.6734399795532227;1.1907199621200562;0.0;0.0;0.0
1694;0.0;0.0;0.0;-0.013663999736309052;-0.6500160098075867;1.1946239471435547;0.0;0.0;0.0
1696;-0.14054399728775024;-0.550707995891571;1.0589599609375;-0.05270399898290634;-0.6773439645767212;1.2063360214233398;-13.15999984741211;-30.729999542236328;-64.56187438964844
1698;0.0;0.0;0.0;-0.06831999868154526;-0.685151994228363;1.2151199579238892;0.0;0.0;0.0
1700;0.0;0.0;0.0;-0.115167997777462;-0.6617279648780823;1.2268320322036743;0.0;0.0;0.0
1702;0.0;0.0;0.0;-0.115167997777462;-0.6773439645767212;1.1907199621200562;0.0;0.0;0.0
1704;-0.21423199772834778;-0.5375319719314575;1.0767719745635986;-0.1454239934682846;-0.6812480092048645;1.1780319213867188;-18.270000457763672;-30.65999984741211;-67.08187103271484
1707;0.0;0.0;0.0;-0.16494399309158325;-0.6500160098075867;1.1907199621200562;0.0;0.0;0.0
1709;0.0;0.0;0.0;-0.16494399309158325;-0.6656320095062256;1.1819360256195068;0.0;0.0;0.0
1711;0.0;0.0;0.0;-0.16103999316692352;-0.6929599642753601;1.1702239513397217;0.0;0.0;0.0
1713;-0.2937760055065155;-0.5333839654922485;1.0565199851989746;-0.20398399233818054;-0.6812480092048645;1.1536319255828857;-18.829999923706055;-31.56999969482422;-70.51187133789062
1715;0.0;0.0;0.0;-0.21959999203681946;-0.6500160098075867;1.1536319255828857;0.0;0.0;0.0
1717;0.0;0.0;0.0;-0.20398399233818054;-0.6500160098075867;1.1575360298156738;0.0;0.0;0.0
1719;0.0;0.0;0.0;-0.23131199181079865;-0.6578239798545837;1.1536319255828857;0.0;0.0;0.0
1721;-0.34135597944259644;-0.5219159722328186;1.0213840007781982;-0.23521599173545837;-0.6070719957351685;1.1214239597320557;-14.630000114440918;-32.900001525878906;-72.8218765258789
1724;0.0;0.0;0.0;-0.24302399158477783;-0.6148799657821655;1.134112000465393;0.0;0.0;0.0
1726;0.0;0.0;0.0;-0.2508319914340973;-0.610975980758667;1.1419199705123901;0.0;0.0;0.0
1728;0.0;0.0;0.0;-0.2664479911327362;-0.5992639660835266;1.1380159854888916;0.0;0.0;0.0
1730;-0.3742959797382355;-0.4694559872150421;1.002351999282837;-0.2508319914340973;-0.5563200116157532;1.1380159854888916;-8.260000228881836;-33.880001068115234;-73.80187225341797
1732;0.0;0.0;0.0;-0.24302399158477783;-0.5328959822654724;1.1380159854888916;0.0;0.0;0.0
1734;0.0;0.0;0.0;-0.2664479911327362;-0.5289919972419739;1.10971200466156;0.0;0.0;0.0
1736;0.0;0.0;0.0;-0.23521599173545837;-0.521183967590332;1.0931199789047241;0.0;0.0;0.0
1738;-0.3711239993572235;-0.39357200264930725;0.9855159521102905;-0.23131199181079865;-0.49775999784469604;1.0892159938812256;-3.3600001335144043;-36.04999923706055;-73.31187438964844
1741;0.0;0.0;0.0;-0.24692799150943756;-0.47043198347091675;1.0931199789047241;0.0;0.0;0.0
1743;0.0;0.0;0.0;-0.25863999128341675;-0.4899519979953766;1.0931199789047241;0.0;0.0;0.0
1745;0.0;0.0;0.0;-0.2547360062599182;-0.47043198347091675;1.085312008857727;0.0;0.0;0.0
1747;-0.3701480031013489;-0.3340359926223755;0.9586759805679321;-0.25863999128341675;-0.43139198422431946;1.0648159980773926;-1.2599999904632568;-37.65999984741211;-71.70187377929688
1749;0.0;0.0;0.0;-0.2547360062599182;-0.411871999502182;1.0687199831008911;0.0;0.0;0.0
1751;0.0;0.0;0.0;-0.2508319914340973;-0.41967999935150146;1.0765279531478882;0.0;0.0;0.0
1753;0.0;0.0;0.0;-0.2781600058078766;-0.38844799995422363;1.0814080238342285;0.0;0.0;0.0
1755;-0.3882039785385132;-0.27742800116539;0.9525759816169739;-0.25863999128341675;-0.39235198497772217;1.0765279531478882;-2.6600000858306885;-37.79999923706055;-71.0718765258789
1758;0.0;0.0;0.0;-0.27425599098205566;-0.34940800070762634;1.0765279531478882;0.0;0.0;0.0
1760;0.0;0.0;0.0;-0.28596800565719604;-0.3142719864845276;1.1136159896850586;0.0;0.0;0.0
1762;0.0;0.0;0.0;-0.26254400610923767;-0.3337920010089874;1.0970239639282227;0.0;0.0;0.0
1764;-0.4025999903678894;-0.2054480016231537;0.9698999524116516;-0.2898719906806946;-0.2635200023651123;1.1380159854888916;-6.650000095367432;-40.18000030517578;-68.97187805175781
1766;0.0;0.0;0.0;-0.27035200595855713;-0.2869440019130707;1.1253279447555542;0.0;0.0;0.0
1768;0.0;0.0;0.0;-0.2898719906806946;-0.29475200176239014;1.1458239555358887;0.0;0.0;0.0
1770;0.0;0.0;0.0;-0.32891198992729187;-0.2908479869365692;1.1380159854888916;0.0;0.0;0.0
1772;-0.4189479947090149;-0.1546960026025772;1.0111359357833862;-0.32500800490379333;-0.24399998784065247;1.1858400106430054;-12.739999771118164;-45.150001525878906;-64.0718765258789
1775;0.0;0.0;0.0;-0.27035200595855713;-0.2518079876899719;1.1663199663162231;0.0;0.0;0.0
1777;0.0;0.0;0.0;-0.3328160047531128;-0.27132800221443176;1.1907199621200562;0.0;0.0;0.0
1779;0.0;0.0;0.0;-0.3513599932193756;-0.29865598678588867;1.1741279363632202;0.0;0.0;0.0
1781;-0.44481199979782104;-0.14786399900913239;1.0416359901428223;-0.3445279896259308;-0.2908479869365692;1.1575360298156738;-19.530000686645508;-49.84000015258789;-58.19187545776367
1783;0.0;0.0;0.0;-0.3630719780921936;-0.2908479869365692;1.1868159770965576;0.0;0.0;0.0
1785;0.0;0.0;0.0;-0.3474559783935547;-0.28303998708724976;1.1458239555358887;0.0;0.0;0.0
1787;0.0;0.0;0.0;-0.3786879777908325;-0.3025600016117096;1.2024319171905518;0.0;0.0;0.0
1789;-0.4833639860153198;-0.16616399586200714;1.0455399751663208;-0.38649600744247437;-0.31036800146102905;1.1780319213867188;-24.780000686645508;-53.54999923706055;-53.78187561035156
1792;0.0;0.0;0.0;-0.35916799306869507;-0.3025600016117096;1.1497279405593872;0.0;0.0;0.0
1794;0.0;0.0;0.0;-0.37088000774383545;-0.30646398663520813;1.2024319171905518;0.0;0.0;0.0
1796;0.0;0.0;0.0;-0.39430397748947144;-0.29475200176239014;1.1536319255828857;0.0;0.0;0.0
1798;-0.5023959875106812;-0.1681160032749176;1.050663948059082;-0.38259199261665344;-0.2869440019130707;1.1868159770965576;-28.770000457763672;-56.97999954223633;-51.40187454223633
1800;0.0;0.0;0.0;-0.35916799306869507;-0.29865598678588867;1.1946239471435547;0.0;0.0;0.0
1802;0.0;0.0;0.0;-0.3903999924659729;-0.32207998633384705;1.1624159812927246;0.0;0.0;0.0
1804;0.0;0.0;0.0;-0.37088000774383545;-0.3025600016117096;1.1985279321670532;0.0;0.0;0.0
1806;-0.48433998227119446;-0.16787199676036835;1.0543240308761597;-0.34355199337005615;-0.3298879861831665;1.1780319213867188;-31.43000030517578;-59.220001220703125;-49.58187484741211
1809;0.0;0.0;0.0;-0.35233598947525024;-0.2869440019130707;1.1780319213867188;0.0;0.0;0.0
1811;0.0;0.0;0.0;-0.2937760055065155;-0.32207998633384705;1.1458239555358887;0.0;0.0;0.0
1813;0.0;0.0;0.0;-0.29767999053001404;-0.3416000008583069;1.1292319297790527;0.0;0.0;0.0
1815;-0.4374919831752777;-0.18007199466228485;1.0194319486618042;-0.2820639908313751;-0.30646398663520813;1.1087360382080078;-31.079999923706055;-58.17000198364258;-47.131874084472656
1817;0.0;0.0;0.0;-0.2664479911327362;-0.32207998633384705;1.10971200466156;0.0;0.0;0.0
1819;0.0;0.0;0.0;-0.2664479911327362;-0.3416000008583069;1.0570080280303955;0.0;0.0;0.0
1821;0.0;0.0;0.0;-0.27035200595855713;-0.33769598603248596;1.0482239723205566;0.0;0.0;0.0
1823;-0.38332399725914;-0.20861999690532684;0.9433040022850037;-0.24692799150943756;-0.3572160005569458;1.0238239765167236;-26.670000076293945;-53.689998626708984;-45.31187438964844
1826;0.0;0.0;0.0;-0.2000799924135208;-0.3337920010089874;1.0482239723205566;0.0;0.0;0.0
1828;0.0;0.0;0.0;-0.1844639927148819;-0.3689279854297638;1.0238239765167236;0.0;0.0;0.0
1830;0.0;0.0;0.0;-0.19617599248886108;-0.2908479869365692;1.0404160022735596;0.0;0.0;0.0
1832;-0.31549200415611267;-0.19324800372123718;0.8937720060348511;-0.13371199369430542;-0.3181760013103485;1.019919991493225;-18.969999313354492;-47.11000061035156;-44.19187545776367
1834;0.0;0.0;0.0;-0.12297599762678146;-0.2752319872379303;1.0160160064697266;0.0;0.0;0.0
1836;0.0;0.0;0.0;-0.13078400492668152;-0.29865598678588867;1.019919991493225;0.0;0.0;0.0
1838;0.0;0.0;0.0;-0.11126399785280228;-0.31036800146102905;1.0033279657363892;0.0;0.0;0.0
1840;-0.25449198484420776;-0.15493999421596527;0.8930400013923645;-0.11907199770212173;-0.27132800221443176;1.060912013053894;-12.600000381469727;-37.52000045776367;-43.00187301635742
1843;0.0;0.0;0.0;-0.1424959897994995;-0.2752319872379303;1.036512017250061;0.0;0.0;0.0
1845;0.0;0.0;0.0;-0.14151999354362488;-0.22448000311851501;1.0404160022735596;0.0;0.0;0.0
1847;0.0;0.0;0.0;-0.16103999316692352;-0.24399998784065247;1.1048319339752197;0.0;0.0;0.0
1849;-0.25619998574256897;-0.11492399871349335;0.9342759847640991;-0.16884799301624298;-0.23228800296783447;1.0726239681243896;-8.609999656677246;-27.3700008392334;-40.76187515258789
1851;0.0;0.0;0.0;-0.1844639927148819;-0.23228800296783447;1.1175199747085571;0.0;0.0;0.0
1853;0.0;0.0;0.0;-0.23131199181079865;-0.24009600281715393;1.1331360340118408;0.0;0.0;0.0
1855;0.0;0.0;0.0;-0.2391199916601181;-0.18934398889541626;1.1663199663162231;0.0;0.0;0.0
1857;-0.3396480083465576;-0.07759200036525726;1.002351999282837;-0.2937760055065155;-0.16201600432395935;1.1819360256195068;-6.300000190734863;-21.84000015258789;-38.03187561035156
1860;0.0;0.0;0.0;-0.23521599173545837;-0.2205759882926941;1.1497279405593872;0.0;0.0;0.0
1862;0.0;0.0;0.0;-0.3211039900779724;-0.2479040026664734;1.1536319255828857;0.0;0.0;0.0
1864;0.0;0.0;0.0;-0.3093920052051544;-0.16591998934745789;1.2151199579238892;0.0;0.0;0.0
1866;-0.407723993062973;-0.049775999039411545;1.0762839317321777;-0.28596800565719604;-0.17372798919677734;1.2395199537277222;-4.619999885559082;-20.649999618530273;-35.021873474121094
1868;0.0;0.0;0.0;-0.31329599022865295;-0.20105600357055664;1.2473279237747192;0.0;0.0;0.0
1870;0.0;0.0;0.0;-0.2898719906806946;-0.15811198949813843;1.2590399980545044;0.0;0.0;0.0
1872;0.0;0.0;0.0;-0.32891198992729187;-0.236191987991333;1.2024319171905518;0.0;0.0;0.0
1874;-0.4345639944076538;-0.07930000126361847;1.0904359817504883;-0.32891198992729187;-0.21276798844337463;1.2268320322036743;-3.5;-19.530000686645508;-32.08187484741211
1877;0.0;0.0;0.0;-0.31329599022865295;-0.23228800296783447;1.2151199579238892;0.0;0.0;0.0
1879;0.0;0.0;0.0;-0.3474559783935547;-0.2088640034198761;1.2229279279708862;0.0;0.0;0.0
1881;0.0;0.0;0.0;-0.3328160047531128;-0.21667200326919556;1.2307360172271729;0.0;0.0;0.0
1883;-0.4584759771823883;-0.08344800025224686;1.1023919582366943;-0.34062400460243225;-0.20105600357055664;1.2307360172271729;-1.8200000524520874;-18.34000015258789;-29.28187370300293
1885;0.0;0.0;0.0;-0.3513599932193756;-0.20495998859405518;1.2551360130310059;0.0;0.0;0.0
1887;0.0;0.0;0.0;-0.35526400804519653;-0.236191987991333;1.2268320322036743;0.0;0.0;0.0
1889;0.0;0.0;0.0;-0.34355199337005615;-0.21276798844337463;1.2395199537277222;0.0;0.0;0.0
1892;-0.46408799290657043;-0.0802759975194931;1.1038559675216675;-0.3328160047531128;-0.18544000387191772;1.2473279237747192;0.07000000029802322;-18.6200008392334;-26.971874237060547
1894;0.0;0.0;0.0;-0.3093920052051544;-0.1698240041732788;1.2473279237747192;0.0;0.0;0.0
1896;0.0;0.0;0.0;-0.27425599098205566;-0.17763200402259827;1.2551360130310059;0.0;0.0;0.0
1898;0.0;0.0;0.0;-0.27425599098205566;-0.15030398964881897;1.2434239387512207;0.0;0.0;0.0
1900;-0.4079679846763611;-0.045871999114751816;1.1148359775543213;-0.23131199181079865;-0.1815359890460968;1.2190239429473877;0.6299999952316284;-19.670000076293945;-24.311874389648438
1902;0.0;0.0;0.0;-0.26254400610923767;-0.13468798995018005;1.2307360172271729;0.0;0.0;0.0
1904;0.0;0.0;0.0;-0.22740799188613892;-0.19324800372123718;1.2102400064468384;0.0;0.0;0.0
1906;0.0;0.0;0.0;-0.23521599173545837;-0.16201600432395935;1.1780319213867188;0.0;0.0;0.0
1909;-0.35575199127197266;-0.03147599846124649;1.0789679288864136;-0.20788799226284027;-0.1698240041732788;1.1702239513397217;-0.21000000834465027;-20.3700008392334;-21.58187484741211
1911;0.0;0.0;0.0;-0.1844639927148819;-0.16201600432395935;1.1741279363632202;0.0;0.0;0.0
1913;0.0;0.0;0.0;-0.21569599211215973;-0.17372798919677734;1.1419199705123901;0.0;0.0;0.0
1915;0.0;0.0;0.0;-0.2235039919614792;-0.16591998934745789;1.1380159854888916;0.0;0.0;0.0
1917;-0.3240320086479187;-0.04123599827289581;1.0257760286331177;-0.16884799301624298;-0.18934398889541626;1.1292319297790527;-2.1700000762939453;-21.489999771118164;-19.5518741607666
1919;0.0;0.0;0.0;-0.16884799301624298;-0.16201600432395935;1.1214239597320557;0.0;0.0;0.0
1921;0.0;0.0;0.0;-0.21569599211215973;-0.15811198949813843;1.1331360340118408;0.0;0.0;0.0
1923;0.0;0.0;0.0;-0.18055999279022217;-0.15811198949813843;1.1458239555358887;0.0;0.0;0.0
1926;-0.29523998498916626;-0.037087999284267426;0.9991799592971802;-0.12297599762678146;-0.1698240041732788;1.1253279447555542;-4.900000095367432;-21.700000762939453;-18.08187484741211
1928;0.0;0.0;0.0;-0.15030398964881897;-0.1424959897994995;1.1458239555358887;0.0;0.0;0.0
1930;0.0;0.0;0.0;-0.13078400492668152;-0.16201600432395935;1.1253279447555542;0.0;0.0;0.0
1932;0.0;0.0;0.0;-0.14151999354362488;-0.1424959897994995;1.1331360340118408;0.0;0.0;0.0
1934;-0.2596159875392914;-0.008051999844610691;0.9972279667854309;-0.115167997777462;-0.13468798995018005;1.0970239639282227;-8.1899995803833;-19.110000610351562;-17.381874084472656
1936;0.0;0.0;0.0;-0.15030398964881897;-0.10735999792814255;1.1331360340118408;0.0;0.0;0.0
1938;0.0;0.0;0.0;-0.13859200477600098;-0.1268799901008606;1.158511996269226;0.0;0.0;0.0
1940;0.0;0.0;0.0;-0.115167997777462;-0.10345599800348282;1.1419199705123901;0.0;0.0;0.0
1943;-0.24643999338150024;0.015615999698638916;0.998691976070404;-0.1268799901008606;-0.1268799901008606;1.1331360340118408;-10.079999923706055;-15.75;-16.541873931884766
1945;0.0;0.0;0.0;-0.10345599800348282;-0.115167997777462;1.1458239555358887;0.0;0.0;0.0
1947;0.0;0.0;0.0;-0.12297599762678146;-0.10345599800348282;1.1497279405593872;0.0;0.0;0.0
1949;0.0;0.0;0.0;-0.10735999792814255;-0.11907199770212173;1.1419199705123901;0.0;0.0;0.0
1951;-0.22155199944972992;0.021715998649597168;1.006011962890625;-0.09174399822950363;-0.09174399822950363;1.1292319297790527;-7.980000019073486;-13.09000015258789;-14.651875495910645
1953;0.0;0.0;0.0;-0.029279999434947968;-0.09955199807882309;1.1536319255828857;0.0;0.0;0.0
1955;0.0;0.0;0.0;-0.05660799890756607;-0.10345599800348282;1.1497279405593872;0.0;0.0;0.0
1957;0.0;0.0;0.0;-0.040991999208927155;-0.07222399860620499;1.1380159854888916;0.0;0.0;0.0
1960;-0.16372399032115936;0.03757599741220474;1.0050359964370728;-0.0331839993596077;-0.06831999868154526;1.1253279447555542;-3.009999990463257;-10.289999961853027;-11.361875534057617
1962;0.0;0.0;0.0;-0.040991999208927155;-0.07222399860620499;1.1175199747085571;0.0;0.0;0.0
1964;0.0;0.0;0.0;-0.040991999208927155;-0.044895999133586884;1.1048319339752197;0.0;0.0;0.0
1966;0.0;0.0;0.0;-0.0605119988322258;-0.07612799853086472;1.1175199747085571;0.0;0.0;0.0
1968;-0.16201600432395935;0.06709999591112137;0.9894199967384338;-0.06441599875688553;-0.044895999133586884;1.10971200466156;1.75;-7.210000038146973;-9.051875114440918
1970;0.0;0.0;0.0;-0.0605119988322258;-0.04879999905824661;1.1175199747085571;0.0;0.0;0.0
1972;0.0;0.0;0.0;-0.08003199845552444;-0.02537599951028824;1.1175199747085571;0.0;0.0;0.0
1974;0.0;0.0;0.0;-0.037087999284267426;-0.0331839993596077;1.0931199789047241;0.0;0.0;0.0
1977;-0.17372798919677734;0.09686800092458725;0.9864919781684875;-0.037087999284267426;-0.02147199958562851;1.1253279447555542;4.96999979019165;-4.619999885559082;-10.941875457763672
1979;0.0;0.0;0.0;-0.040991999208927155;-0.0058559998869895935;1.1419199705123901;0.0;0.0;0.0
1981;0.0;0.0;0.0;-0.02537599951028824;0.009759999811649323;1.1331360340118408;0.0;0.0;0.0
1983;0.0;0.0;0.0;-0.05270399898290634;0.013663999736309052;1.1458239555358887;0.0;0.0;0.0
1985;-0.1676279902458191;0.13590799272060394;1.0028399229049683;-0.0605119988322258;0.044895999133586884;1.1663199663162231;5.949999809265137;-2.380000114440918;-12.341875076293945
1987;0.0;0.0;0.0;-0.040991999208927155;0.013663999736309052;1.1536319255828857;0.0;0.0;0.0
1989;0.0;0.0;0.0;-0.04879999905824661;0.04879999905824661;1.1575360298156738;0.0;0.0;0.0
1991;0.0;0.0;0.0;-0.05270399898290634;0.05660799890756607;1.1380159854888916;0.0;0.0;0.0
1994;-0.1664080023765564;0.17812000215053558;1.0228480100631714;-0.02537599951028824;0.07222399860620499;1.1536319255828857;5.25;-0.2800000011920929;-11.361875534057617
1996;0.0;0.0;0.0;-0.013663999736309052;0.09564799815416336;1.1702239513397217;0.0;0.0;0.0
1998;0.0;0.0;0.0;-0.013663999736309052;0.10735999792814255;1.1702239513397217;0.0;0.0;0.0
2000;0.0;0.0;0.0;-0.02147199958562851;0.10345599800348282;1.1663199663162231;0.0;0.0;0.0
2002;-0.14859600365161896;0.2164279967546463;1.0462720394134521;-0.01756799966096878;0.09955199807882309;1.1868159770965576;4.059999942779541;0.2800000011920929;-7.931875228881836
2004;0.0;0.0;0.0;-0.013663999736309052;0.09955199807882309;1.2151199579238892;0.0;0.0;0.0
2006;0.0;0.0;0.0;0.0019519999623298645;0.11126399785280228;1.2395199537277222;0.0;0.0;0.0
2008;0.0;0.0;0.0;0.0058559998869895935;0.1268799901008606;1.2512320280075073;0.0;0.0;0.0
2011;-0.12761199474334717;0.24863599240779877;1.0901919603347778;0.0019519999623298645;0.1268799901008606;1.2590399980545044;2.5899999141693115;0.42000001668930054;-1.2818750143051147
2013;0.0;0.0;0.0;-0.0019519999623298645;0.16591998934745789;1.262943983078003;0.0;0.0;0.0
2015;0.0;0.0;0.0;0.02537599951028824;0.14640000462532043;1.2639199495315552;0.0;0.0;0.0
2017;0.0;0.0;0.0;0.04879999905824661;0.15030398964881897;1.2795360088348389;0.0;0.0;0.0
2019;-0.10491999983787537;0.27840399742126465;1.134112000465393;0.0331839993596077;0.13859200477600098;1.2834399938583374;0.699999988079071;-0.07000000029802322;6.768125057220459
2021;0.0;0.0;0.0;0.04879999905824661;0.15811198949813843;1.2717279195785522;0.0;0.0;0.0
2023;0.0;0.0;0.0;0.0331839993596077;0.16201600432395935;1.2795360088348389;0.0;0.0;0.0
2025;0.0;0.0;0.0;0.08003199845552444;0.1698240041732788;1.2512320280075073;0.0;0.0;0.0
2028;-0.060999996960163116;0.2920680046081543;1.1463119983673096;0.0878399983048439;0.15811198949813843;1.2756320238113403;-0.7699999809265137;-1.190000057220459;14.118124961853027
2030;0.0;0.0;0.0;0.10247999429702759;0.15811198949813843;1.2756320238113403;0.0;0.0;0.0
2032;0.0;0.0;0.0;0.09857599437236786;0.15811198949813843;1.2473279237747192;0.0;0.0;0.0
2034;0.0;0.0;0.0;0.1180959939956665;0.1424959897994995;1.2678239345550537;0.0;0.0;0.0
2036;-0.006587999872863293;0.28718799352645874;1.1370400190353394;0.15323199331760406;0.13859200477600098;1.2639199495315552;-1.4700000286102295;-2.450000047683716;21.188125610351562
2038;0.0;0.0;0.0;0.16494399309158325;0.16591998934745789;1.2512320280075073;0.0;0.0;0.0
2040;0.0;0.0;0.0;0.16884799301624298;0.1542080044746399;1.2717279195785522;0.0;0.0;0.0
2042;0.0;0.0;0.0;0.16494399309158325;0.13859200477600098;1.2434239387512207;0.0;0.0;0.0
2045;0.05197199806571007;0.2764520049095154;1.1255719661712646;0.21569599211215973;0.11907199770212173;1.2434239387512207;-1.75;-3.0799999237060547;27.278125762939453
2047;0.0;0.0;0.0;0.2000799924135208;0.13078400492668152;1.2307360172271729;0.0;0.0;0.0
2049;0.0;0.0;0.0;0.21959999203681946;0.13859200477600098;1.2268320322036743;0.0;0.0;0.0
2051;0.0;0.0;0.0;0.24302399158477783;0.1268799901008606;1.2229279279708862;0.0;0.0;0.0
2053;0.10174799710512161;0.25863999128341675;1.0933640003204346;0.24692799150943756;0.10735999792814255;1.2102400064468384;-1.75;-0.7699999809265137;31.05812644958496
2055;0.0;0.0;0.0;0.25863999128341675;0.11126399785280228;1.2102400064468384;0.0;0.0;0.0
2057;0.0;0.0;0.0;0.25863999128341675;0.09564799815416336;1.1741279363632202;0.0;0.0;0.0
2060;0.0;0.0;0.0;0.24302399158477783;0.09564799815416336;1.1819360256195068;0.0;0.0;0.0
2062;0.13176000118255615;0.2391199916601181;1.0582280158996582;0.24692799150943756;0.10345599800348282;1.1858400106430054;0.2800000011920929;2.870000123977661;31.96812629699707
2064;0.0;0.0;0.0;0.27035200595855713;0.11126399785280228;1.1819360256195068;0.0;0.0;0.0
2066;0.0;0.0;0.0;0.28596800565719604;0.09174399822950363;1.1946239471435547;0.0;0.0;0.0
2068;0.0;0.0;0.0;0.2937760055065155;0.10345599800348282;1.1741279363632202;0.0;0.0;0.0
2070;0.1617719978094101;0.23228800296783447;1.0589599609375;0.28596800565719604;0.12297599762678146;1.1819360256195068;3.2899999618530273;5.949999809265137;30.778125762939453
2072;0.0;0.0;0.0;0.3172000050544739;0.12297599762678146;1.1946239471435547;0.0;0.0;0.0
2074;0.0;0.0;0.0;0.31329599022865295;0.13468798995018005;1.2024319171905518;0.0;0.0;0.0
2077;0.0;0.0;0.0;0.3445279896259308;0.10735999792814255;1.2151199579238892;0.0;0.0;0.0
2079;0.21032799780368805;0.2432679980993271;1.0784800052642822;0.3328160047531128;0.11907199770212173;1.2268320322036743;6.230000019073486;7.909999847412109;30.568126678466797
2081;0.0;0.0;0.0;0.36795198917388916;0.115167997777462;1.2229279279708862;0.0;0.0;0.0
2083;0.0;0.0;0.0;0.35233598947525024;0.14640000462532043;1.1985279321670532;0.0;0.0;0.0
2085;0.0;0.0;0.0;0.39528000354766846;0.11126399785280228;1.2112159729003906;0.0;0.0;0.0
2087;0.2454639971256256;0.2610799968242645;1.0901919603347778;0.3640480041503906;0.13078400492668152;1.2102400064468384;8.890000343322754;9.449999809265137;31.89812660217285
2089;0.0;0.0;0.0;0.3757599890232086;0.13859200477600098;1.2151199579238892;0.0;0.0;0.0
2091;0.0;0.0;0.0;0.39137598872184753;0.16201600432395935;1.2307360172271729;0.0;0.0;0.0
2094;0.0;0.0;0.0;0.39137598872184753;0.16591998934745789;1.2473279237747192;0.0;0.0;0.0
2096;0.2664479911327362;0.2886520028114319;1.1072720289230347;0.4333440065383911;0.1542080044746399;1.2551360130310059;11.970000267028809;10.289999961853027;34.208126068115234
2098;0.0;0.0;0.0;0.4177280068397522;0.18544000387191772;1.2834399938583374;0.0;0.0;0.0
2100;0.0;0.0;0.0;0.43724799156188965;0.20105600357055664;1.2678239345550537;0.0;0.0;0.0
2102;0.0;0.0;0.0;0.43724799156188965;0.1815359890460968;1.2473279237747192;0.0;0.0;0.0
2104;0.31915199756622314;0.31280800700187683;1.1294759511947632;0.460671991109848;0.1815359890460968;1.2473279237747192;15.190000534057617;11.34000015258789;38.40812683105469
2106;0.0;0.0;0.0;0.4958080053329468;0.18544000387191772;1.2756320238113403;0.0;0.0;0.0
2108;0.0;0.0;0.0;0.49190399050712585;0.19324800372123718;1.2639199495315552;0.0;0.0;0.0
2111;0.0;0.0;0.0;0.5309439897537231;0.18544000387191772;1.2395199537277222;0.0;0.0;0.0
2113;0.3840560019016266;0.31573599576950073;1.1189839839935303;0.5270400047302246;0.18544000387191772;1.2229279279708862;18.6200008392334;12.739999771118164;45.618125915527344
2115;0.0;0.0;0.0;0.5465599894523621;0.1698240041732788;1.2112159729003906;0.0;0.0;0.0
2117;0.0;0.0;0.0;0.5465599894523621;0.15811198949813843;1.1858400106430054;0.0;0.0;0.0
2119;0.0;0.0;0.0;0.5660799741744995;0.18544000387191772;1.1702239513397217;0.0;0.0;0.0
2121;0.4438360035419464;0.2949959933757782;1.0799440145492554;0.562175989151001;0.13859200477600098;1.1868159770965576;21.6299991607666;15.609999656677246;53.458126068115234
2123;0.0;0.0;0.0;0.6051200032234192;0.15811198949813843;1.1819360256195068;0.0;0.0;0.0
2125;0.0;0.0;0.0;0.6090239882469177;0.1698240041732788;1.1702239513397217;0.0;0.0;0.0
2128;0.0;0.0;0.0;0.6207360029220581;0.1542080044746399;1.1702239513397217;0.0;0.0;0.0
2130;0.4916599988937378;0.29060399532318115;1.0555440187454224;0.636352002620697;0.16201600432395935;1.1780319213867188;23.239999771118164;20.790000915527344;59.26812744140625
2132;0.0;0.0;0.0;0.6519680023193359;0.1815359890460968;1.1946239471435547;0.0;0.0;0.0
2134;0.0;0.0;0.0;0.636352002620697;0.16201600432395935;1.1858400106430054;0.0;0.0;0.0
2136;0.0;0.0;0.0;0.6470879912376404;0.1815359890460968;1.2024319171905518;0.0;0.0;0.0
2138;0.5267959833145142;0.3042680025100708;1.059448003768921;0.6558719873428345;0.1815359890460968;1.1985279321670532;22.610000610351562;26.110000610351562;63.048126220703125
2140;0.0;0.0;0.0;0.6480640172958374;0.17763200402259827;1.2024319171905518;0.0;0.0;0.0
2142;0.0;0.0;0.0;0.6558719873428345;0.1815359890460968;1.2190239429473877;0.0;0.0;0.0
2145;0.0;0.0;0.0;0.6978399753570557;0.16591998934745789;1.1575360298156738;0.0;0.0;0.0
2147;0.550707995891571;0.3025600016117096;1.0687199831008911;0.6900320053100586;0.14640000462532043;1.1946239471435547;21.559999465942383;29.190000534057617;65.56812286376953
2149;0.0;0.0;0.0;0.6861279606819153;0.17372798919677734;1.1907199621200562;0.0;0.0;0.0
2151;0.0;0.0;0.0;0.6900320053100586;0.14640000462532043;1.1946239471435547;0.0;0.0;0.0
2153;0.0;0.0;0.0;0.6744160056114197;0.1424959897994995;1.1663199663162231;0.0;0.0;0.0
2155;0.5643720030784607;0.27498799562454224;1.0572519302368164;0.6783199906349182;0.1268799901008606;1.1858400106430054;22.1200008392334;29.329999923706055;66.828125
2157;0.0;0.0;0.0;0.6861279606819153;0.11126399785280228;1.1819360256195068;0.0;0.0;0.0
2159;0.0;0.0;0.0;0.6783199906349182;0.10735999792814255;1.1536319255828857;0.0;0.0;0.0
2162;0.0;0.0;0.0;0.7134559750556946;0.10735999792814255;1.1419199705123901;0.0;0.0;0.0
2164;0.5731559991836548;0.23692399263381958;1.032364010810852;0.6939359903335571;0.09174399822950363;1.158511996269226;24.079999923706055;28.489999771118164;64.93812561035156
2166;0.0;0.0;0.0;0.7212640047073364;0.09174399822950363;1.1458239555358887;0.0;0.0;0.0
2168;0.0;0.0;0.0;0.7017439603805542;0.11907199770212173;1.1458239555358887;0.0;0.0;0.0
2170;0.0;0.0;0.0;0.7134559750556946;0.115167997777462;1.1497279405593872;0.0;0.0;0.0
2172;0.59170001745224;0.2357039898633957;1.02211594581604;0.732975959777832;0.1268799901008606;1.1536319255828857;24.989999771118164;26.739999771118164;60.80812454223633
2174;0.0;0.0;0.0;0.7017439603805542;0.11907199770212173;1.1575360298156738;0.0;0.0;0.0
2176;0.0;0.0;0.0;0.7603039741516113;0.115167997777462;1.1497279405593872;0.0;0.0;0.0
2179;0.0;0.0;0.0;0.7798239588737488;0.16591998934745789;1.1575360298156738;0.0;0.0;0.0
2181;0.6334239840507507;0.27596399188041687;1.0296800136566162;0.799344003200531;0.15811198949813843;1.1819360256195068;22.190000534057617;23.59000015258789;56.25812530517578
2183;0.0;0.0;0.0;0.8071519732475281;0.18544000387191772;1.1741279363632202;0.0;0.0;0.0
2185;0.0;0.0;0.0;0.8032479882240295;0.15811198949813843;1.1819360256195068;0.0;0.0;0.0
2187;0.0;0.0;0.0;0.7876319885253906;0.16201600432395935;1.1702239513397217;0.0;0.0;0.0
2189;0.6802719831466675;0.2996319830417633;1.047003984451294;0.8071519732475281;0.16591998934745789;1.1780319213867188;14.630000114440918;20.790000915527344;52.33812713623047
2191;0.0;0.0;0.0;0.8188639879226685;0.1698240041732788;1.1985279321670532;0.0;0.0;0.0
2193;0.0;0.0;0.0;0.8032479882240295;0.17372798919677734;1.1907199621200562;0.0;0.0;0.0
2196;0.0;0.0;0.0;0.8422879576683044;0.1424959897994995;1.2268320322036743;0.0;0.0;0.0
2198;0.7080879807472229;0.2886520028114319;1.0726239681243896;0.8500959873199463;0.1424959897994995;1.2229279279708862;5.880000114440918;17.920000076293945;50.65812683105469
2200;0.0;0.0;0.0;0.8657119870185852;0.115167997777462;1.2190239429473877;0.0;0.0;0.0
2202;0.0;0.0;0.0;0.8579039573669434;0.1268799901008606;1.2346400022506714;0.0;0.0;0.0
2204;0.0;0.0;0.0;0.8266719579696655;0.10345599800348282;1.2590399980545044;0.0;0.0;0.0
2206;0.7246800065040588;0.25058799982070923;1.113860011100769;0.8500959873199463;0.0878399983048439;1.262943983078003;-0.6299999952316284;14.84000015258789;51.708126068115234
2208;0.0;0.0;0.0;0.8539999723434448;0.08003199845552444;1.2795360088348389;0.0;0.0;0.0
2210;0.0;0.0;0.0;0.8383839726448059;0.02537599951028824;1.2795360088348389;0.0;0.0;0.0
2213;0.0;0.0;0.0;0.822767972946167;0.029279999434947968;1.2678239345550537;0.0;0.0;0.0
2215;0.7176039814949036;0.17787599563598633;1.144115924835205;0.8305760025978088;-0.02537599951028824;1.2678239345550537;-2.799999952316284;11.40999984741211;54.43812561035156
2217;0.0;0.0;0.0;0.8266719579696655;-0.029279999434947968;1.2678239345550537;0.0;0.0;0.0
2219;0.0;0.0;0.0;0.8422879576683044;-0.04879999905824661;1.2551360130310059;0.0;0.0;0.0
2221;0.0;0.0;0.0;0.822767972946167;-0.07222399860620499;1.2434239387512207;0.0;0.0;0.0
2223;0.7202879786491394;0.08637599647045135;1.1287440061569214;0.8735199570655823;-0.08393599838018417;1.2473279237747192;0.42000001668930054;8.470000267028809;54.99812698364258
2225;0.0;0.0;0.0;0.8500959873199463;-0.13859200477600098;1.2229279279708862;0.0;0.0;0.0
2227;0.0;0.0;0.0;0.9154880046844482;-0.13468798995018005;1.2024319171905518;0.0;0.0;0.0
2230;0.0;0.0;0.0;0.8735199570655823;-0.1424959897994995;1.2102400064468384;0.0;0.0;0.0
2232;0.7617679834365845;-0.0019519999623298645;1.0867760181427002;0.9076799750328064;-0.14640000462532043;1.2229279279708862;7.070000171661377;8.680000305175781;53.10812759399414
2234;0.0;0.0;0.0;0.9008479714393616;-0.18934398889541626;1.1663199663162231;0.0;0.0;0.0
2236;0.0;0.0;0.0;0.8891359567642212;-0.18934398889541626;1.1819360256195068;0.0;0.0;0.0
2238;0.0;0.0;0.0;0.8852319717407227;-0.20495998859405518;1.1663199663162231;0.0;0.0;0.0
2240;0.779092013835907;-0.056120000779628754;1.0523719787597656;0.8891359567642212;-0.2088640034198761;1.1780319213867188;15.680000305175781;10.640000343322754;50.16812515258789
2243;0.0;0.0;0.0;0.8891359567642212;-0.18934398889541626;1.1575360298156738;0.0;0.0;0.0
2245;0.0;0.0;0.0;0.912559986114502;-0.21667200326919556;1.1419199705123901;0.0;0.0;0.0
2247;0.0;0.0;0.0;0.8735199570655823;-0.20495998859405518;1.134112000465393;0.0;0.0;0.0
2249;0.7817760109901428;-0.07222399860620499;1.0201640129089355;0.9086560010910034;-0.21667200326919556;1.1292319297790527;24.850000381469727;12.319999694824219;45.618125915527344
2251;0.0;0.0;0.0;0.8930400013923645;-0.2088640034198761;1.1331360340118408;0.0;0.0;0.0
2253;0.0;0.0;0.0;0.896943986415863;-0.20105600357055664;1.10971200466156;0.0;0.0;0.0
2255;0.0;0.0;0.0;0.8930400013923645;-0.21667200326919556;1.1009279489517212;0.0;0.0;0.0
2257;0.7778719663619995;-0.0849120020866394;0.9901520013809204;0.8930400013923645;-0.22448000311851501;1.1048319339752197;32.900001525878906;14.210000038146973;38.75812530517578
2260;0.0;0.0;0.0;0.8891359567642212;-0.2205759882926941;1.0931199789047241;0.0;0.0;0.0
2261;0.0;0.0;0.0;0.8891359567642212;-0.19715198874473572;1.0931199789047241;0.0;0.0;0.0
2264;0.0;0.0;0.0;0.8813279867172241;-0.22448000311851501;1.1048319339752197;0.0;0.0;0.0
2266;0.7634760141372681;-0.09101200103759766;0.9703879952430725;0.8422879576683044;-0.22448000311851501;1.0648159980773926;38.63999938964844;15.260000228881836;30.21812629699707
2268;0.0;0.0;0.0;0.8500959873199463;-0.2205759882926941;1.0765279531478882;0.0;0.0;0.0
2270;0.0;0.0;0.0;0.8500959873199463;-0.20105600357055664;1.0814080238342285;0.0;0.0;0.0
2272;0.0;0.0;0.0;0.8149600028991699;-0.22838398814201355;1.0726239681243896;0.0;0.0;0.0
2274;0.7119919657707214;-0.08735200017690659;0.9584319591522217;0.8032479882240295;-0.21667200326919556;1.085312008857727;41.58000183105469;13.440000534057617;20.62812614440918
2277;0.0;0.0;0.0;0.8032479882240295;-0.22448000311851501;1.0765279531478882;0.0;0.0;0.0
2279;0.0;0.0;0.0;0.7681120038032532;-0.22838398814201355;1.060912013053894;0.0;0.0;0.0
2281;0.0;0.0;0.0;0.7446879744529724;-0.19715198874473572;1.0521279573440552;0.0;0.0;0.0
2283;0.6558719873428345;-0.07807999849319458;0.9433040022850037;0.748591959476471;-0.2088640034198761;1.0804319381713867;41.29999923706055;8.260000228881836;9.98812484741211
2285;0.0;0.0;0.0;0.7290719747543335;-0.19324800372123718;1.0687199831008911;0.0;0.0;0.0
2287;0.0;0.0;0.0;0.7134559750556946;-0.20105600357055664;1.0570080280303955;0.0;0.0;0.0
2289;0.0;0.0;0.0;0.6783199906349182;-0.19324800372123718;1.019919991493225;0.0;0.0;0.0
2291;0.5921880006790161;-0.06148799881339073;0.9240279793739319;0.6822239756584167;-0.1815359890460968;1.036512017250061;37.72999954223633;0.5600000023841858;0.11812499910593033
2293;0.0;0.0;0.0;0.6783199906349182;-0.19715198874473572;1.019919991493225;0.0;0.0;0.0
2296;0.0;0.0;0.0;0.6627039909362793;-0.16591998934745789;0.9994239807128906;0.0;0.0;0.0
2298;0.0;0.0;0.0;0.6480640172958374;-0.1815359890460968;1.0160160064697266;0.0;0.0;0.0
2300;0.5409479737281799;-0.04562800005078316;0.8815720081329346;0.636352002620697;-0.16591998934745789;0.9750239849090576;32.619998931884766;-9.170000076293945;-8.141875267028809
2302;0.0;0.0;0.0;0.636352002620697;-0.18544000387191772;0.9633119702339172;0.0;0.0;0.0
2304;0.0;0.0;0.0;0.6324479579925537;-0.15811198949813843;0.9350079894065857;0.0;0.0;0.0
2306;0.0;0.0;0.0;0.636352002620697;-0.17372798919677734;0.9271999597549438;0.0;0.0;0.0
2308;0.5202080011367798;-0.024887999519705772;0.8276479840278625;0.6519680023193359;-0.13859200477600098;0.9428159594535828;26.739999771118164;-17.219999313354492;-13.601875305175781
2311;0.0;0.0;0.0;0.6666079759597778;-0.13859200477600098;0.9106079936027527;0.0;0.0;0.0
2313;0.0;0.0;0.0;0.6675840020179749;-0.15811198949813843;0.9106079936027527;0.0;0.0;0.0
2315;0.0;0.0;0.0;0.6705119609832764;-0.1268799901008606;0.8696159720420837;0.0;0.0;0.0
2317;0.5448520183563232;-0.010735999792814255;0.7695760130882263;0.6900320053100586;-0.15030398964881897;0.8618080019950867;20.649999618530273;-21.06999969482422;-15.421875
2319;0.0;0.0;0.0;0.6861279606819153;-0.1424959897994995;0.8452159762382507;0.0;0.0;0.0
2321;0.0;0.0;0.0;0.725167989730835;-0.14640000462532043;0.8374080061912537;0.0;0.0;0.0
2323;0.0;0.0;0.0;0.7173599600791931;-0.1815359890460968;0.8256959915161133;0.0;0.0;0.0
2325;0.5938959717750549;-0.025863999500870705;0.708575963973999;0.7642079591751099;-0.15811198949813843;0.8130080103874207;16.8700008392334;-19.600000381469727;-12.901875495910645
2327;0.0;0.0;0.0;0.748591959476471;-0.18934398889541626;0.7563999891281128;0.0;0.0;0.0
2330;0.0;0.0;0.0;0.7759199738502502;-0.22838398814201355;0.7925119996070862;0.0;0.0;0.0
2332;0.0;0.0;0.0;0.7563999891281128;-0.21276798844337463;0.7729920148849487;0.0;0.0;0.0
2334;0.6314719915390015;-0.07002799957990646;0.6568480134010315;0.7407839894294739;-0.22448000311851501;0.7847039699554443;16.8700008392334;-10.989999771118164;-7.441874980926514
2336;0.0;0.0;0.0;0.748591959476471;-0.22838398814201355;0.7681120038032532;0.0;0.0;0.0
2338;0.0;0.0;0.0;0.7563999891281128;-0.19715198874473572;0.8051999807357788;0.0;0.0;0.0
2340;0.0;0.0;0.0;0.7524960041046143;-0.21276798844337463;0.8051999807357788;0.0;0.0;0.0
2342;0.6331799626350403;-0.09101200103759766;0.6609959602355957;0.725167989730835;-0.23228800296783447;0.8091039657592773;18.34000015258789;2.309999942779541;-1.6318750381469727
2345;0.0;0.0;0.0;0.732975959777832;-0.23228800296783447;0.8169119954109192;0.0;0.0;0.0
2347;0.0;0.0;0.0;0.6978399753570557;-0.24009600281715393;0.8335039615631104;0.0;0.0;0.0
2349;0.0;0.0;0.0;0.709551990032196;-0.24009600281715393;0.8374080061912537;0.0;0.0;0.0
2351;0.6034119725227356;-0.11224000155925751;0.7107719779014587;0.7173599600791931;-0.2479040026664734;0.8901119828224182;19.25;14.770000457763672;3.198124885559082
2353;0.0;0.0;0.0;0.6900320053100586;-0.2635200023651123;0.8862079977989197;0.0;0.0;0.0
2355;0.0;0.0;0.0;0.7134559750556946;-0.2869440019130707;0.8979200124740601;0.0;0.0;0.0
2357;0.0;0.0;0.0;0.6900320053100586;-0.32598400115966797;0.9106079936027527;0.0;0.0;0.0
2359;0.5731559991836548;-0.1727519929409027;0.762499988079071;0.6588000059127808;-0.3689279854297638;0.9184159636497498;22.540000915527344;23.170000076293945;6.348124980926514
2362;0.0;0.0;0.0;0.6402559876441956;-0.3025600016117096;0.9106079936027527;0.0;0.0;0.0
2364;0.0;0.0;0.0;0.636352002620697;-0.36111998558044434;0.9271999597549438;0.0;0.0;0.0
2366;0.0;0.0;0.0;0.5973119735717773;-0.36111998558044434;0.9350079894065857;0.0;0.0;0.0
2368;0.5094720125198364;-0.2235039919614792;0.7998319864273071;0.6168320178985596;-0.36111998558044434;0.9672159552574158;28.559999465942383;23.940000534057617;8.5181245803833
2370;0.0;0.0;0.0;0.569983959197998;-0.38844799995422363;0.9555040001869202;0.0;0.0;0.0
2372;0.0;0.0;0.0;0.5504639744758606;-0.40406399965286255;0.9672159552574158;0.0;0.0;0.0
2374;0.0;0.0;0.0;0.5114240050315857;-0.3728320002555847;0.9994239807128906;0.0;0.0;0.0
