Timestamp(ms);LG-Accel x(g);LG-Accel y(g);LG-Accel z(g);HG-Accel x(g);HG-Accel y(g);HG-Accel z(g);Gyro x(dps);Gyro y(dps);Gyro z(dps)
60;0.0;0.0;0.0;0.10638399422168732;-0.260591983795166;1.0892159938812256;0.0;0.0;0.0
63;0.0;0.0;0.0;0.08686399459838867;-0.2996319830417633;1.0970239639282227;0.0;0.0;0.0
65;0.0;0.0;0.0;0.12199999392032623;-0.2723039984703064;1.1126400232315063;0.0;0.0;0.0
67;0.0;0.0;0.0;0.11419199407100677;-0.29182398319244385;1.0970239639282227;0.0;0.0;0.0
69;0.0;0.0;0.0;0.09857599437236786;-0.33476799726486206;1.0843359231948853;0.0;0.0;0.0
71;0.0;0.0;0.0;0.09759999811649323;-0.3093920052051544;1.0950720310211182;0.0;0.0;0.0
73;0.0;0.0;0.0;0.0936959981918335;-0.32500800490379333;1.1028800010681152;0.0;0.0;0.0
75;0.0;0.0;0.0;0.062463998794555664;-0.34062400460243225;1.09116792678833;0.0;0.0;0.0
78;-0.027327999472618103;-0.18690399825572968;0.9523319602012634;0.0936959981918335;-0.34062400460243225;1.0823839902877808;0.0;0.0;0.0
80;0.0;0.0;0.0;0.08979199826717377;-0.32891198992729187;1.066767930984497;0.0;0.0;0.0
82;0.0;0.0;0.0;0.08198399841785431;-0.3328160047531128;1.0823839902877808;0.0;0.0;0.0
84;0.0;0.0;0.0;0.08198399841785431;-0.34062400460243225;1.0745760202407837;0.0;0.0;0.0
86;-0.034648001194000244;-0.19568799436092377;0.9440360069274902;0.07807999849319458;-0.32891198992729187;1.066767930984497;0.0;0.0;0.0
88;0.0;0.0;0.0;0.08198399841785431;-0.3328160047531128;1.066767930984497;0.0;0.0;0.0
90;0.0;0.0;0.0;0.054655998945236206;-0.35233598947525024;1.0784800052642822;0.0;0.0;0.0
92;0.0;0.0;0.0;0.054655998945236206;-0.35624000430107117;1.0540800094604492;0.0;0.0;0.0
95;-0.05685199797153473;-0.21325600147247314;0.9425719976425171;0.03513599932193756;-0.3484320044517517;1.0784800052642822;0.0;0.0;0.0
97;0.0;0.0;0.0;0.03903999924659729;-0.387472003698349;1.0462720394134521;0.0;0.0;0.0
99;0.0;0.0;0.0;0.05075199902057648;-0.39528000354766846;1.0745760202407837;0.0;0.0;0.0
101;0.0;0.0;0.0;0.011711999773979187;-0.3718560039997101;1.042367935180664;0.0;0.0;0.0
103;-0.08637599647045135;-0.23838800191879272;0.9376919865608215;0.07417599856853485;-0.36795198917388916;1.0628639459609985;0.0;0.0;0.0
105;0.0;0.0;0.0;0.04391999915242195;-0.35624000430107117;1.073599934577942;0.0;0.0;0.0
107;0.0;0.0;0.0;0.04001599922776222;-0.35624000430107117;1.0657919645309448;0.0;0.0;0.0
109;0.0;0.0;0.0;0.04391999915242195;-0.387472003698349;1.0531039237976074;0.0;0.0;0.0
112;-0.0832040011882782;-0.24863599240779877;0.9389119744300842;0.01659199967980385;-0.37966400384902954;1.0862879753112793;0.0;0.0;0.0
114;0.0;0.0;0.0;0.01659199967980385;-0.4030880033969879;1.073599934577942;0.0;0.0;0.0
116;0.0;0.0;0.0;-0.0029279999434947968;-0.4147999882698059;1.0657919645309448;0.0;0.0;0.0
118;0.0;0.0;0.0;-0.018543999642133713;-0.42260798811912537;1.0775039196014404;0.0;0.0;0.0
120;-0.1227319985628128;-0.2793799936771393;0.9506239891052246;-0.022447999566793442;-0.44603198766708374;1.0775039196014404;-19.643749237060547;-3.486875057220459;-30.021249771118164
122;0.0;0.0;0.0;-0.031231999397277832;-0.42260798811912537;1.0872639417648315;0.0;0.0;0.0
124;0.0;0.0;0.0;-0.04684799909591675;-0.43432000279426575;1.0989760160446167;0.0;0.0;0.0
126;0.0;0.0;0.0;-0.062463998794555664;-0.44993600249290466;1.0872639417648315;0.0;0.0;0.0
129;-0.1622599959373474;-0.2991439998149872;0.9594079852104187;-0.04294399917125702;-0.44993600249290466;1.0989760160446167;-18.033748626708984;-5.026875019073486;-30.651248931884766
131;0.0;0.0;0.0;-0.054655998945236206;-0.44603198766708374;1.0950720310211182;0.0;0.0;0.0
133;0.0;0.0;0.0;-0.08979199826717377;-0.44603198766708374;1.0989760160446167;0.0;0.0;0.0
135;0.0;0.0;0.0;-0.07027199864387512;-0.4421280026435852;1.0745760202407837;0.0;0.0;0.0
137;-0.19227199256420135;-0.3140279948711395;0.9535520076751709;-0.0663679987192154;-0.4577440023422241;1.066767930984497;-14.883750915527344;-6.286875247955322;-30.721250534057617
139;0.0;0.0;0.0;-0.09662400186061859;-0.4304159879684448;1.0989760160446167;0.0;0.0;0.0
141;0.0;0.0;0.0;-0.10052800178527832;-0.47336000204086304;1.0784800052642822;0.0;0.0;0.0
143;0.0;0.0;0.0;-0.13566400110721588;-0.42260798811912537;1.0872639417648315;0.0;0.0;0.0
146;-0.23643599450588226;-0.3106119930744171;0.9550159573554993;-0.13176000118255615;-0.4538399875164032;1.1028800010681152;-11.313750267028809;-7.896874904632568;-30.861249923706055
148;0.0;0.0;0.0;-0.15518400073051453;-0.41870400309562683;1.0950720310211182;0.0;0.0;0.0
150;0.0;0.0;0.0;-0.1668960005044937;-0.44993600249290466;1.0784800052642822;0.0;0.0;0.0
152;0.0;0.0;0.0;-0.205935999751091;-0.44603198766708374;1.09116792678833;0.0;0.0;0.0
154;-0.29767999053001404;-0.2979239821434021;0.9611159563064575;-0.22545599937438965;-0.4147999882698059;1.0950720310211182;-9.703750610351562;-13.356874465942383;-30.721250534057617
156;0.0;0.0;0.0;-0.22545599937438965;-0.4108960032463074;1.0628639459609985;0.0;0.0;0.0
158;0.0;0.0;0.0;-0.22155199944972992;-0.4108960032463074;1.0745760202407837;0.0;0.0;0.0
160;0.0;0.0;0.0;-0.20203199982643127;-0.41870400309562683;1.066767930984497;0.0;0.0;0.0
163;-0.3337920010089874;-0.2810879945755005;0.9428159594535828;-0.19812799990177155;-0.4108960032463074;1.0540800094604492;-10.053750038146973;-22.106876373291016;-30.021249771118164
165;0.0;0.0;0.0;-0.1786080002784729;-0.39528000354766846;1.0501760244369507;0.0;0.0;0.0
167;0.0;0.0;0.0;-0.17080000042915344;-0.4108960032463074;1.0628639459609985;0.0;0.0;0.0
169;0.0;0.0;0.0;-0.19422399997711182;-0.4147999882698059;1.0589599609375;0.0;0.0;0.0
171;-0.3118319809436798;-0.2735239863395691;0.9303719997406006;-0.17080000042915344;-0.4030880033969879;1.0628639459609985;-12.08375072479248;-26.02687644958496;-27.221250534057617
173;0.0;0.0;0.0;-0.19422399997711182;-0.40699198842048645;1.066767930984497;0.0;0.0;0.0
175;0.0;0.0;0.0;-0.20983999967575073;-0.4108960032463074;1.09116792678833;0.0;0.0;0.0
177;0.0;0.0;0.0;-0.22545599937438965;-0.4304159879684448;1.09116792678833;0.0;0.0;0.0
180;-0.3286679983139038;-0.28474798798561096;0.949891984462738;-0.2176479995250702;-0.4265120029449463;1.1067839860916138;-15.303750038146973;-24.626874923706055;-23.37125015258789
182;0.0;0.0;0.0;-0.22545599937438965;-0.42260798811912537;1.0989760160446167;0.0;0.0;0.0
184;0.0;0.0;0.0;-0.21374399960041046;-0.4304159879684448;1.1233760118484497;0.0;0.0;0.0
186;0.0;0.0;0.0;-0.20983999967575073;-0.40699198842048645;1.1350879669189453;0.0;0.0;0.0
188;-0.3467240035533905;-0.2857239842414856;0.9745360016822815;-0.24107199907302856;-0.42260798811912537;1.1194720268249512;-17.75374984741211;-22.6668758392334;-19.241249084472656
190;0.0;0.0;0.0;-0.1903200000524521;-0.4304159879684448;1.1194720268249512;0.0;0.0;0.0
192;0.0;0.0;0.0;-0.20203199982643127;-0.4147999882698059;1.1233760118484497;0.0;0.0;0.0
194;0.0;0.0;0.0;-0.1668960005044937;-0.4265120029449463;1.1272799968719482;0.0;0.0;0.0
197;-0.3108559846878052;-0.29011598229408264;0.9894199967384338;-0.17080000042915344;-0.4147999882698059;1.09116792678833;-16.63374900817871;-19.516876220703125;-15.181249618530273
199;0.0;0.0;0.0;-0.15908800065517426;-0.4577440023422241;1.1116639375686646;0.0;0.0;0.0
201;0.0;0.0;0.0;-0.18251200020313263;-0.40699198842048645;1.1116639375686646;0.0;0.0;0.0
203;0.0;0.0;0.0;-0.14347200095653534;-0.43432000279426575;1.0950720310211182;0.0;0.0;0.0
205;-0.2798680067062378;-0.30329200625419617;0.9781959652900696;-0.15908800065517426;-0.44993600249290466;1.1028800010681152;-11.24375057220459;-13.9868745803833;-12.661250114440918
207;0.0;0.0;0.0;-0.1512800008058548;-0.4304159879684448;1.1067839860916138;0.0;0.0;0.0
209;0.0;0.0;0.0;-0.1395680010318756;-0.44993600249290466;1.09116792678833;0.0;0.0;0.0
211;0.0;0.0;0.0;-0.12785600125789642;-0.4421280026435852;1.0784800052642822;0.0;0.0;0.0
214;-0.26034799218177795;-0.3025600016117096;0.9701439738273621;-0.13566400110721588;-0.43432000279426575;1.0784800052642822;-3.893749952316284;-7.126874923706055;-12.731249809265137
216;0.0;0.0;0.0;-0.12004800140857697;-0.4030880033969879;1.1233760118484497;0.0;0.0;0.0
218;0.0;0.0;0.0;-0.13566400110721588;-0.4030880033969879;1.1028800010681152;0.0;0.0;0.0
220;0.0;0.0;0.0;-0.12004800140857697;-0.39137598872184753;1.1067839860916138;0.0;0.0;0.0
222;-0.24570798873901367;-0.27303600311279297;0.9769759774208069;-0.1395680010318756;-0.39137598872184753;1.1272799968719482;1.7062499523162842;0.5731250047683716;-13.501249313354492
224;0.0;0.0;0.0;-0.11614400148391724;-0.39528000354766846;1.09116792678833;0.0;0.0;0.0
226;0.0;0.0;0.0;-0.14737600088119507;-0.3757599890232086;1.0989760160446167;0.0;0.0;0.0
228;0.0;0.0;0.0;-0.17080000042915344;-0.3757599890232086;1.0989760160446167;0.0;0.0;0.0
231;-0.2579079866409302;-0.24936799705028534;0.9708759784698486;-0.18251200020313263;-0.36795198917388916;1.1067839860916138;4.576250076293945;9.253125190734863;-13.501249313354492
233;0.0;0.0;0.0;-0.16299200057983398;-0.387472003698349;1.1067839860916138;0.0;0.0;0.0
235;0.0;0.0;0.0;-0.19422399997711182;-0.3484320044517517;1.0950720310211182;0.0;0.0;0.0
237;0.0;0.0;0.0;-0.18641600012779236;-0.3757599890232086;1.09116792678833;0.0;0.0;0.0
239;-0.31768798828125;-0.23765599727630615;0.9633119702339172;-0.22155199944972992;-0.33671998977661133;1.0823839902877808;6.326250076293945;15.623125076293945;-12.801249504089355
241;0.0;0.0;0.0;-0.22155199944972992;-0.33671998977661133;1.115567922592163;0.0;0.0;0.0
243;0.0;0.0;0.0;-0.24887999892234802;-0.32891198992729187;1.1028800010681152;0.0;0.0;0.0
246;0.0;0.0;0.0;-0.2566879987716675;-0.32500800490379333;1.0950720310211182;0.0;0.0;0.0
248;-0.36624398827552795;-0.20617999136447906;0.9713639616966248;-0.28011199831962585;-0.34062400460243225;1.1116639375686646;6.326250076293945;18.003124237060547;-9.44124984741211
250;0.0;0.0;0.0;-0.25278398394584656;-0.3601439893245697;1.1116639375686646;0.0;0.0;0.0
252;0.0;0.0;0.0;-0.29182398319244385;-0.3328160047531128;1.1233760118484497;0.0;0.0;0.0
254;0.0;0.0;0.0;-0.2996319830417633;-0.33671998977661133;1.1067839860916138;0.0;0.0;0.0
256;-0.40406399965286255;-0.19885998964309692;0.9806360006332397;-0.29572799801826477;-0.32891198992729187;1.1194720268249512;4.226250171661377;17.513124465942383;-5.241250038146973
258;0.0;0.0;0.0;-0.3152479827404022;-0.3484320044517517;1.1116639375686646;0.0;0.0;0.0
260;0.0;0.0;0.0;-0.30353599786758423;-0.34062400460243225;1.1438720226287842;0.0;0.0;0.0
263;0.0;0.0;0.0;-0.3230559825897217;-0.3601439893245697;1.139967918395996;0.0;0.0;0.0
265;-0.4357839822769165;-0.2105719894170761;1.0021079778671265;-0.31915199756622314;-0.35233598947525024;1.139967918395996;1.4262499809265137;12.683125495910645;-0.4112499952316284
267;0.0;0.0;0.0;-0.3269599974155426;-0.35233598947525024;1.1643680334091187;0.0;0.0;0.0
269;0.0;0.0;0.0;-0.3113439977169037;-0.3640480041503906;1.1682720184326172;0.0;0.0;0.0
271;0.0;0.0;0.0;-0.30743998289108276;-0.3757599890232086;1.1555839776992798;0.0;0.0;0.0
273;-0.44359198212623596;-0.2256999909877777;1.0265079736709595;-0.30353599786758423;-0.3757599890232086;1.1643680334091187;-1.5837500095367432;4.703125;3.298750162124634
275;0.0;0.0;0.0;-0.2996319830417633;-0.36795198917388916;1.1682720184326172;0.0;0.0;0.0
277;0.0;0.0;0.0;-0.2723039984703064;-0.3757599890232086;1.1594879627227783;0.0;0.0;0.0
280;0.0;0.0;0.0;-0.30743998289108276;-0.3757599890232086;1.1555839776992798;0.0;0.0;0.0
282;-0.40918800234794617;-0.2500999867916107;1.0311440229415894;-0.2683999836444855;-0.4030880033969879;1.1643680334091187;-2.773750066757202;-3.2768750190734863;6.378749847412109
284;0.0;0.0;0.0;-0.2449759989976883;-0.37966400384902954;1.1594879627227783;0.0;0.0;0.0
286;0.0;0.0;0.0;-0.24887999892234802;-0.387472003698349;1.139967918395996;0.0;0.0;0.0
288;0.0;0.0;0.0;-0.28011199831962585;-0.399183988571167;1.1643680334091187;0.0;0.0;0.0
290;-0.3760039806365967;-0.25449198484420776;1.030900001525879;-0.24107199907302856;-0.387472003698349;1.1682720184326172;-1.2337501049041748;-9.086874961853027;9.178750038146973
292;0.0;0.0;0.0;-0.2449759989976883;-0.3835679888725281;1.1594879627227783;0.0;0.0;0.0
294;0.0;0.0;0.0;-0.2566879987716675;-0.3835679888725281;1.1682720184326172;0.0;0.0;0.0
297;0.0;0.0;0.0;-0.2332639992237091;-0.37966400384902954;1.1643680334091187;0.0;0.0;0.0
299;-0.35697197914123535;-0.24692799150943756;1.0426119565963745;-0.19422399997711182;-0.35624000430107117;1.1682720184326172;0.5862500071525574;-15.7368745803833;10.858750343322754
301;0.0;0.0;0.0;-0.1786080002784729;-0.3640480041503906;1.1682720184326172;0.0;0.0;0.0
303;0.0;0.0;0.0;-0.17470400035381317;-0.4030880033969879;1.1594879627227783;0.0;0.0;0.0
305;0.0;0.0;0.0;-0.1395680010318756;-0.3757599890232086;1.1555839776992798;0.0;0.0;0.0
307;-0.2832840085029602;-0.23960798978805542;1.0379760265350342;-0.15908800065517426;-0.35624000430107117;1.1555839776992798;1.7062499523162842;-20.216875076293945;12.258749961853027
309;0.0;0.0;0.0;-0.1239520013332367;-0.35624000430107117;1.1477760076522827;0.0;0.0;0.0
311;0.0;0.0;0.0;-0.12004800140857697;-0.3640480041503906;1.1682720184326172;0.0;0.0;0.0
314;0.0;0.0;0.0;-0.09662400186061859;-0.37966400384902954;1.1516799926757812;0.0;0.0;0.0
316;-0.23472799360752106;-0.2315559983253479;1.0255320072174072;-0.08979199826717377;-0.3640480041503906;1.1721760034561157;3.036250114440918;-19.93687629699707;13.588750839233398
318;0.0;0.0;0.0;-0.08198399841785431;-0.34062400460243225;1.1477760076522827;0.0;0.0;0.0
320;0.0;0.0;0.0;-0.07027199864387512;-0.36795198917388916;1.1516799926757812;0.0;0.0;0.0
322;0.0;0.0;0.0;-0.09272000193595886;-0.33671998977661133;1.1477760076522827;0.0;0.0;0.0
324;-0.21227999031543732;-0.21374399960041046;1.0289479494094849;-0.09272000193595886;-0.34062400460243225;1.1643680334091187;4.43625020980835;-16.646875381469727;14.638750076293945
326;0.0;0.0;0.0;-0.08100800216197968;-0.31329599022865295;1.1477760076522827;0.0;0.0;0.0
328;0.0;0.0;0.0;-0.0663679987192154;-0.32891198992729187;1.1555839776992798;0.0;0.0;0.0
331;0.0;0.0;0.0;-0.08979199826717377;-0.33671998977661133;1.139967918395996;0.0;0.0;0.0
333;-0.1978839933872223;-0.1949559897184372;1.022603988647461;-0.07417599856853485;-0.3445279896259308;1.1438720226287842;5.90625;-12.2368745803833;16.388750076293945
335;0.0;0.0;0.0;-0.058559998869895935;-0.3172000050544739;1.1350879669189453;0.0;0.0;0.0
337;0.0;0.0;0.0;-0.062463998794555664;-0.27035200595855713;1.1682720184326172;0.0;0.0;0.0
339;0.0;0.0;0.0;-0.058559998869895935;-0.2898719906806946;1.1516799926757812;0.0;0.0;0.0
341;-0.18885599076747894;-0.16713999211788177;1.0167479515075684;-0.09272000193595886;-0.27425599098205566;1.1194720268249512;7.446249961853027;-6.286875247955322;19.60875129699707
343;0.0;0.0;0.0;-0.07417599856853485;-0.3093920052051544;1.1516799926757812;0.0;0.0;0.0
345;0.0;0.0;0.0;-0.0936959981918335;-0.2781600058078766;1.1604639291763306;0.0;0.0;0.0
348;0.0;0.0;0.0;-0.07320000231266022;-0.27425599098205566;1.1438720226287842;0.0;0.0;0.0
350;-0.19154000282287598;-0.1576239913702011;1.0196759700775146;-0.07417599856853485;-0.29767999053001404;1.139967918395996;8.146249771118164;-0.2668749988079071;24.0887508392334
352;0.0;0.0;0.0;-0.07807999849319458;-0.27035200595855713;1.1555839776992798;0.0;0.0;0.0
354;0.0;0.0;0.0;-0.07807999849319458;-0.2820639908313751;1.1516799926757812;0.0;0.0;0.0
356;0.0;0.0;0.0;-0.11614400148391724;-0.2391199916601181;1.1516799926757812;0.0;0.0;0.0
358;-0.2076440006494522;-0.1420079916715622;1.0191879272460938;-0.08588799834251404;-0.2664479911327362;1.1438720226287842;8.56624984741211;4.633124828338623;28.28874969482422
360;0.0;0.0;0.0;-0.09272000193595886;-0.24302399158477783;1.115567922592163;0.0;0.0;0.0
362;0.0;0.0;0.0;-0.08881600201129913;-0.2508319914340973;1.1555839776992798;0.0;0.0;0.0
365;0.0;0.0;0.0;-0.08588799834251404;-0.2235039919614792;1.1350879669189453;0.0;0.0;0.0
367;-0.20739999413490295;-0.12151199579238892;1.0116239786148071;-0.07027199864387512;-0.24302399158477783;1.1311839818954468;9.826250076293945;7.223124980926514;31.71875
369;0.0;0.0;0.0;-0.10052800178527832;-0.2235039919614792;1.1516799926757812;0.0;0.0;0.0
371;0.0;0.0;0.0;-0.07027199864387512;-0.2235039919614792;1.1233760118484497;0.0;0.0;0.0
373;0.0;0.0;0.0;-0.09272000193595886;-0.22740799188613892;1.1438720226287842;0.0;0.0;0.0
375;-0.205935999751091;-0.10174799710512161;1.00381600856781;-0.0663679987192154;-0.2391199916601181;1.115567922592163;11.856249809265137;8.343125343322754;35.008750915527344
377;0.0;0.0;0.0;-0.0849120020866394;-0.20398399233818054;1.1272799968719482;0.0;0.0;0.0
379;0.0;0.0;0.0;-0.07807999849319458;-0.20398399233818054;1.139967918395996;0.0;0.0;0.0
382;0.0;0.0;0.0;-0.09272000193595886;-0.20398399233818054;1.1194720268249512;0.0;0.0;0.0
384;-0.19641999900341034;-0.07197999954223633;1.0016199350357056;-0.03903999924659729;-0.17665599286556244;1.1311839818954468;13.396249771118164;7.293125152587891;37.66875076293945
386;0.0;0.0;0.0;-0.07417599856853485;-0.1844639927148819;1.1233760118484497;0.0;0.0;0.0
388;0.0;0.0;0.0;-0.04294399917125702;-0.17665599286556244;1.1272799968719482;0.0;0.0;0.0
390;0.0;0.0;0.0;-0.011711999773979187;-0.18836799263954163;1.1311839818954468;0.0;0.0;0.0
392;-0.16616399586200714;-0.051239997148513794;0.9982039928436279;-0.05075199902057648;-0.16884799301624298;1.1067839860916138;12.41624927520752;6.593124866485596;39.41875076293945
394;0.0;0.0;0.0;-0.03513599932193756;-0.19227199256420135;1.115567922592163;0.0;0.0;0.0
396;0.0;0.0;0.0;-0.04684799909591675;-0.1844639927148819;1.1233760118484497;0.0;0.0;0.0
399;0.0;0.0;0.0;-0.019519999623298645;-0.18836799263954163;1.1233760118484497;0.0;0.0;0.0
401;-0.1512800008058548;-0.048312000930309296;1.0008879899978638;-0.03513599932193756;-0.16884799301624298;1.1682720184326172;10.66624927520752;6.943124771118164;39.55875015258789
403;0.0;0.0;0.0;-0.023423999547958374;-0.13371199369430542;1.1594879627227783;0.0;0.0;0.0
405;0.0;0.0;0.0;-0.03903999924659729;-0.16494399309158325;1.1516799926757812;0.0;0.0;0.0
407;0.0;0.0;0.0;-0.062463998794555664;-0.1571359932422638;1.1516799926757812;0.0;0.0;0.0
409;-0.1471319943666458;-0.019763998687267303;1.0211399793624878;0.003903999924659729;-0.11028799414634705;1.1604639291763306;9.616250038146973;5.123125076293945;39.48875045776367
412;0.0;0.0;0.0;-0.027327999472618103;-0.12199999392032623;1.1682720184326172;0.0;0.0;0.0
414;0.0;0.0;0.0;-0.019519999623298645;-0.1298079937696457;1.1516799926757812;0.0;0.0;0.0
416;0.0;0.0;0.0;-0.003903999924659729;-0.14151999354362488;1.1350879669189453;0.0;0.0;0.0
418;-0.12614800035953522;0.00951599981635809;1.0189440250396729;0.019519999623298645;-0.10638399422168732;1.1233760118484497;9.336249351501465;0.7831249833106995;40.32875061035156
420;0.0;0.0;0.0;0.015615999698638916;-0.11028799414634705;1.1272799968719482;0.0;0.0;0.0
422;0.0;0.0;0.0;0.05075199902057648;-0.09467199444770813;1.139967918395996;0.0;0.0;0.0
424;0.0;0.0;0.0;0.05075199902057648;-0.09857599437236786;1.139967918395996;0.0;0.0;0.0
426;-0.08930400013923645;0.03245199844241142;0.9972279667854309;0.031231999397277832;-0.07515199482440948;1.1360639333724976;9.75624942779541;-1.5268750190734863;41.028751373291016
428;0.0;0.0;0.0;0.04684799909591675;-0.05953599885106087;1.1555839776992798;0.0;0.0;0.0
431;0.0;0.0;0.0;0.04684799909591675;-0.07905599474906921;1.1477760076522827;0.0;0.0;0.0
433;0.0;0.0;0.0;0.0663679987192154;-0.05953599885106087;1.1311839818954468;0.0;0.0;0.0
435;-0.06539200246334076;0.06783200055360794;1.0016199350357056;0.062463998794555664;-0.07515199482440948;1.1194720268249512;8.426249504089355;-2.296875;41.51874923706055
437;0.0;0.0;0.0;0.05075199902057648;-0.06734399497509003;1.1233760118484497;0.0;0.0;0.0
439;0.0;0.0;0.0;0.07807999849319458;-0.03611199930310249;1.1311839818954468;0.0;0.0;0.0
441;0.0;0.0;0.0;0.08979199826717377;-0.028303999453783035;1.1272799968719482;0.0;0.0;0.0
443;-0.03952799737453461;0.09467199444770813;1.0072319507598877;0.08198399841785431;-0.004879999905824661;1.139967918395996;4.996250152587891;-2.0168750286102295;41.868751525878906
446;0.0;0.0;0.0;0.10540799796581268;-0.020495999604463577;1.1272799968719482;0.0;0.0;0.0
448;0.0;0.0;0.0;0.08979199826717377;-0.04391999915242195;1.139967918395996;0.0;0.0;0.0
450;0.0;0.0;0.0;0.0936959981918335;-0.020495999604463577;1.139967918395996;0.0;0.0;0.0
452;-0.0287919994443655;0.10931199789047241;1.0077199935913086;0.0936959981918335;-0.0009759999811649323;1.139967918395996;1.006250023841858;-0.33687499165534973;41.658748626708984
454;0.0;0.0;0.0;0.08979199826717377;-0.020495999604463577;1.1477760076522827;0.0;0.0;0.0
456;0.0;0.0;0.0;0.054655998945236206;-0.032207999378442764;1.1682720184326172;0.0;0.0;0.0
458;0.0;0.0;0.0;0.0663679987192154;0.006831999868154526;1.1594879627227783;0.0;0.0;0.0
460;-0.05148399993777275;0.1256600022315979;1.0135760307312012;0.054655998945236206;-0.020495999604463577;1.1594879627227783;-1.7937500476837158;0.7831249833106995;40.678749084472656
462;0.0;0.0;0.0;0.08588799834251404;0.0302559994161129;1.139967918395996;0.0;0.0;0.0
465;0.0;0.0;0.0;0.07807999849319458;0.03806399926543236;1.1272799968719482;0.0;0.0;0.0
467;0.0;0.0;0.0;0.08588799834251404;0.049775999039411545;1.139967918395996;0.0;0.0;0.0
469;-0.03269600123167038;0.16787199676036835;1.0013760328292847;0.10540799796581268;0.07320000231266022;1.1311839818954468;-3.0537500381469727;1.2731249332427979;39.908748626708984
471;0.0;0.0;0.0;0.08198399841785431;0.049775999039411545;1.1233760118484497;0.0;0.0;0.0
473;0.0;0.0;0.0;0.10931199789047241;0.10833600163459778;1.1106879711151123;0.0;0.0;0.0
475;0.0;0.0;0.0;0.1210239976644516;0.08100800216197968;1.1272799968719482;0.0;0.0;0.0
477;-0.016835998743772507;0.20666798949241638;0.9974719882011414;0.1327359974384308;0.08881600201129913;1.1311839818954468;-2.283750057220459;2.1131248474121094;41.23875045776367
480;0.0;0.0;0.0;0.10540799796581268;0.10833600163459778;1.139967918395996;0.0;0.0;0.0
482;0.0;0.0;0.0;0.1327359974384308;0.10443200170993805;1.1272799968719482;0.0;0.0;0.0
484;0.0;0.0;0.0;0.1327359974384308;0.12004800140857697;1.0950720310211182;0.0;0.0;0.0
486;-0.015859998762607574;0.23668000102043152;0.9882000088691711;0.10540799796581268;0.14737600088119507;1.1194720268249512;-1.723750114440918;2.953125;42.21875
488;0.0;0.0;0.0;0.10150399804115295;0.13566400110721588;1.115567922592163;0.0;0.0;0.0
490;0.0;0.0;0.0;0.10540799796581268;0.15518400073051453;1.1116639375686646;0.0;0.0;0.0
492;0.0;0.0;0.0;0.14444799721240997;0.17470400035381317;1.115567922592163;0.0;0.0;0.0
494;0.0029279999434947968;0.28426000475883484;0.9896639585494995;0.1786080002784729;0.1786080002784729;1.1272799968719482;-2.84375;3.0931248664855957;42.848751068115234
497;0.0;0.0;0.0;0.10931199789047241;0.1786080002784729;1.1233760118484497;0.0;0.0;0.0
499;0.0;0.0;0.0;0.13663999736309052;0.20203199982643127;1.1194720268249512;0.0;0.0;0.0
501;0.0;0.0;0.0;0.13663999736309052;0.15518400073051453;1.1272799968719482;0.0;0.0;0.0
503;0.004879999905824661;0.3008520007133484;0.9911279678344727;0.10931199789047241;0.15908800065517426;1.1194720268249512;-6.06374979019165;3.023124933242798;42.56875228881836
505;0.0;0.0;0.0;0.13663999736309052;0.1786080002784729;1.1233760118484497;0.0;0.0;0.0
507;0.0;0.0;0.0;0.14054399728775024;0.15908800065517426;1.1516799926757812;0.0;0.0;0.0
509;0.0;0.0;0.0;0.15908800065517426;0.17080000042915344;1.1194720268249512;0.0;0.0;0.0
511;0.030499998480081558;0.29475200176239014;1.0050359964370728;0.20203199982643127;0.16299200057983398;1.139967918395996;-9.563750267028809;1.6231249570846558;40.81875228881836
514;0.0;0.0;0.0;0.19422399997711182;0.15908800065517426;1.1311839818954468;0.0;0.0;0.0
516;0.0;0.0;0.0;0.205935999751091;0.17080000042915344;1.1643680334091187;0.0;0.0;0.0
518;0.0;0.0;0.0;0.1786080002784729;0.15518400073051453;1.1477760076522827;0.0;0.0;0.0
520;0.0727119967341423;0.2967039942741394;1.0277279615402222;0.20203199982643127;0.13566400110721588;1.1760799884796143;-13.273750305175781;1.5531249046325684;39.41875076293945
522;0.0;0.0;0.0;0.17080000042915344;0.16299200057983398;1.1887680292129517;0.0;0.0;0.0
524;0.0;0.0;0.0;0.18251200020313263;0.13176000118255615;1.1838879585266113;0.0;0.0;0.0
526;0.0;0.0;0.0;0.18641600012779236;0.13566400110721588;1.2004799842834473;0.0;0.0;0.0
528;0.06905199587345123;0.2671799957752228;1.0682319402694702;0.19422399997711182;0.10833600163459778;1.2121919393539429;-17.263750076293945;1.6931250095367432;38.01874923706055
531;0.0;0.0;0.0;0.17470400035381317;0.08881600201129913;1.2170720100402832;0.0;0.0;0.0
533;0.0;0.0;0.0;0.18251200020313263;0.08881600201129913;1.2453759908676147;0.0;0.0;0.0
535;0.0;0.0;0.0;0.19812799990177155;0.08100800216197968;1.2531839609146118;0.0;0.0;0.0
537;0.07295599579811096;0.22301599383354187;1.1194720268249512;0.19812799990177155;0.07710400223731995;1.2814879417419434;-19.993749618530273;1.0631248950958252;35.98875045776367
539;0.0;0.0;0.0;0.20203199982643127;0.0849120020866394;1.2736799716949463;0.0;0.0;0.0
541;0.0;0.0;0.0;0.22545599937438965;0.06148799881339073;1.309791922569275;0.0;0.0;0.0
543;0.0;0.0;0.0;0.2332639992237091;0.057583998888731;1.313696026802063;0.0;0.0;0.0
545;0.1012599989771843;0.1920280009508133;1.1719319820404053;0.2566879987716675;0.02635199949145317;1.3185759782791138;-19.993749618530273;-0.8968750238418579;34.658748626708984
548;0.0;0.0;0.0;0.22155199944972992;0.04196799919009209;1.3058879375457764;0.0;0.0;0.0
550;0.0;0.0;0.0;0.24887999892234802;0.018543999642133713;1.334191918373108;0.0;0.0;0.0
552;0.0;0.0;0.0;0.2449759989976883;-0.0009759999811649323;1.3263839483261108;0.0;0.0;0.0
554;0.13249199092388153;0.15957599878311157;1.1999919414520264;0.29182398319244385;0.010735999792814255;1.334191918373108;-16.84375;-2.926875114440918;33.258750915527344
556;0.0;0.0;0.0;0.2683999836444855;-0.0009759999811649323;1.3302879333496094;0.0;0.0;0.0
558;0.0;0.0;0.0;0.2723039984703064;0.0029279999434947968;1.338096022605896;0.0;0.0;0.0
560;0.0;0.0;0.0;0.260591983795166;-0.020495999604463577;1.3263839483261108;0.0;0.0;0.0
562;0.16250400245189667;0.1227319985628128;1.199747920036316;0.2683999836444855;0.014639999717473984;1.334191918373108;-9.913750648498535;-2.0868749618530273;32.068748474121094
565;0.0;0.0;0.0;0.29182398319244385;-0.028303999453783035;1.3420000076293945;0.0;0.0;0.0
567;0.0;0.0;0.0;0.2683999836444855;-0.024399999529123306;1.3224799633026123;0.0;0.0;0.0
569;0.0;0.0;0.0;0.27620798349380493;-0.024399999529123306;1.3263839483261108;0.0;0.0;0.0
571;0.15957599878311157;0.11492399871349335;1.193403959274292;0.2683999836444855;-0.00878399983048439;1.334191918373108;-0.04375000298023224;-2.85687518119812;31.368749618530273
573;0.0;0.0;0.0;0.2840159833431244;-0.0009759999811649323;1.334191918373108;0.0;0.0;0.0
575;0.0;0.0;0.0;0.31915199756622314;-0.0009759999811649323;1.313696026802063;0.0;0.0;0.0
577;0.0;0.0;0.0;0.2996319830417633;0.018543999642133713;1.3302879333496094;0.0;0.0;0.0
579;0.1698240041732788;0.1395680010318756;1.1875479221343994;0.30353599786758423;0.04196799919009209;1.3185759782791138;9.196249961853027;-6.216875076293945;29.96875
582;0.0;0.0;0.0;0.29572799801826477;0.03415999934077263;1.2814879417419434;0.0;0.0;0.0
584;0.0;0.0;0.0;0.3152479827404022;0.03806399926543236;1.3019839525222778;0.0;0.0;0.0
586;0.0;0.0;0.0;0.29572799801826477;0.0302559994161129;1.2492799758911133;0.0;0.0;0.0
588;0.1878799945116043;0.1664080023765564;1.1533880233764648;0.3230559825897217;0.06148799881339073;1.2648959159851074;14.866250038146973;-8.80687427520752;28.848751068115234
590;0.0;0.0;0.0;0.3152479827404022;0.03806399926543236;1.2365919351577759;0.0;0.0;0.0
592;0.0;0.0;0.0;0.350383996963501;0.057583998888731;1.2248799800872803;0.0;0.0;0.0
594;0.0;0.0;0.0;0.34647998213768005;0.04196799919009209;1.2287839651107788;0.0;0.0;0.0
596;0.21667200326919556;0.1844639927148819;1.1058080196380615;0.3386719822883606;0.057583998888731;1.2004799842834473;16.966251373291016;-7.546875;28.35875129699707
599;0.0;0.0;0.0;0.350383996963501;0.06148799881339073;1.2170720100402832;0.0;0.0;0.0
601;0.0;0.0;0.0;0.36209598183631897;0.06539200246334076;1.1877919435501099;0.0;0.0;0.0
603;0.0;0.0;0.0;0.3542879819869995;0.07710400223731995;1.2043839693069458;0.0;0.0;0.0
605;0.23106800019741058;0.2042279988527298;1.0657919645309448;0.33476799726486206;0.07710400223731995;1.1760799884796143;16.686250686645508;-2.0868749618530273;28.848751068115234
607;0.0;0.0;0.0;0.34647998213768005;0.09272000193595886;1.1633919477462769;0.0;0.0;0.0
609;0.0;0.0;0.0;0.3659999966621399;0.08881600201129913;1.1887680292129517;0.0;0.0;0.0
611;0.0;0.0;0.0;0.3659999966621399;0.09272000193595886;1.1643680334091187;0.0;0.0;0.0
613;0.23179998993873596;0.22081999480724335;1.0394400358200073;0.3816159963607788;0.10052800178527832;1.1311839818954468;14.0962495803833;4.42312479019165;30.388750076293945
616;0.0;0.0;0.0;0.38942399621009827;0.09662400186061859;1.1438720226287842;0.0;0.0;0.0
618;0.0;0.0;0.0;0.350383996963501;0.08881600201129913;1.1477760076522827;0.0;0.0;0.0
620;0.0;0.0;0.0;0.37380799651145935;0.10443200170993805;1.1643680334091187;0.0;0.0;0.0
622;0.2466839998960495;0.22667600214481354;1.0187000036239624;0.35819199681282043;0.06929600238800049;1.139967918395996;9.40625;12.403125762939453;32.068748474121094
624;0.0;0.0;0.0;0.35819199681282043;0.07710400223731995;1.1233760118484497;0.0;0.0;0.0
626;0.0;0.0;0.0;0.350383996963501;0.08100800216197968;1.115567922592163;0.0;0.0;0.0
628;0.0;0.0;0.0;0.34647998213768005;0.07710400223731995;1.1438720226287842;0.0;0.0;0.0
630;0.23716799914836884;0.20105600357055664;1.0072319507598877;0.3425759971141815;0.045871999114751816;1.139967918395996;4.996250152587891;21.36312484741211;32.48875045776367
633;0.0;0.0;0.0;0.30353599786758423;0.049775999039411545;1.1233760118484497;0.0;0.0;0.0
635;0.0;0.0;0.0;0.3269599974155426;0.0302559994161129;1.1477760076522827;0.0;0.0;0.0
637;0.0;0.0;0.0;0.28011199831962585;0.006831999868154526;1.139967918395996;0.0;0.0;0.0
639;0.19715198874473572;0.1698240041732788;1.0062559843063354;0.2996319830417633;0.02635199949145317;1.1067839860916138;2.336250066757202;25.843124389648438;31.01875114440918
641;0.0;0.0;0.0;0.2996319830417633;0.010735999792814255;1.1350879669189453;0.0;0.0;0.0
643;0.0;0.0;0.0;0.30743998289108276;0.018543999642133713;1.1233760118484497;0.0;0.0;0.0
645;0.0;0.0;0.0;0.3113439977169037;-0.020495999604463577;1.115567922592163;0.0;0.0;0.0
647;0.18592800199985504;0.13639599084854126;0.9957639575004578;0.3113439977169037;-0.01268799975514412;1.1194720268249512;1.4262499809265137;25.143123626708984;27.658750534057617
650;0.0;0.0;0.0;0.2996319830417633;-0.020495999604463577;1.1028800010681152;0.0;0.0;0.0
652;0.0;0.0;0.0;0.29182398319244385;-0.05172799900174141;1.1233760118484497;0.0;0.0;0.0
654;0.0;0.0;0.0;0.28011199831962585;-0.028303999453783035;1.115567922592163;0.0;0.0;0.0
656;0.1647000014781952;0.09564799815416336;0.9879559874534607;0.2449759989976883;-0.05172799900174141;1.1272799968719482;2.1262500286102295;23.463125228881836;23.668750762939453
658;0.0;0.0;0.0;0.20983999967575073;-0.0634399950504303;1.1360639333724976;0.0;0.0;0.0
660;0.0;0.0;0.0;0.1903200000524521;-0.05172799900174141;1.1233760118484497;0.0;0.0;0.0
662;0.0;0.0;0.0;0.16299200057983398;-0.04782399907708168;1.1272799968719482;0.0;0.0;0.0
664;0.08051999658346176;0.0710039958357811;0.9945439696311951;0.13663999736309052;-0.0907679945230484;1.1272799968719482;2.96625018119812;17.79312515258789;20.30875015258789
667;0.0;0.0;0.0;0.12492799758911133;-0.04782399907708168;1.115567922592163;0.0;0.0;0.0
669;0.0;0.0;0.0;0.14054399728775024;-0.032207999378442764;1.139967918395996;0.0;0.0;0.0
671;0.0;0.0;0.0;0.1512800008058548;-0.05563199892640114;1.1116639375686646;0.0;0.0;0.0
673;0.03269600123167038;0.0832040011882782;0.9930799603462219;0.16787199676036835;-0.03611199930310249;1.1272799968719482;3.2462501525878906;6.593124866485596;18.488750457763672
675;0.0;0.0;0.0;0.15908800065517426;-0.04391999915242195;1.1028800010681152;0.0;0.0;0.0
677;0.0;0.0;0.0;0.1786080002784729;-0.04782399907708168;1.1194720268249512;0.0;0.0;0.0
679;0.0;0.0;0.0;0.1786080002784729;-0.09857599437236786;1.0989760160446167;0.0;0.0;0.0
681;0.05392399802803993;0.07685999572277069;0.9635559916496277;0.20983999967575073;-0.032207999378442764;1.0823839902877808;2.896250009536743;-2.5068750381469727;19.048749923706055
684;0.0;0.0;0.0;0.19812799990177155;-0.10247999429702759;1.0706720352172852;0.0;0.0;0.0
686;0.0;0.0;0.0;0.19812799990177155;-0.11419199407100677;1.066767930984497;0.0;0.0;0.0
688;0.0;0.0;0.0;0.20983999967575073;-0.05563199892640114;1.0950720310211182;0.0;0.0;0.0
690;0.07807999849319458;0.050995998084545135;0.9403759837150574;0.19422399997711182;-0.08295999467372894;1.0628639459609985;2.1262500286102295;-6.006875038146973;20.448749542236328
692;0.0;0.0;0.0;0.22935999929904938;-0.07124799489974976;1.0784800052642822;0.0;0.0;0.0
694;0.0;0.0;0.0;0.22935999929904938;-0.08686399459838867;1.066767930984497;0.0;0.0;0.0
696;0.0;0.0;0.0;0.24107199907302856;-0.1180959939956665;1.0745760202407837;0.0;0.0;0.0
698;0.10150399804115295;0.030988000333309174;0.9413520097732544;0.24107199907302856;-0.11419199407100677;1.0706720352172852;0.3762499988079071;-8.246874809265137;21.778749465942383
701;0.0;0.0;0.0;0.2840159833431244;-0.12199999392032623;1.0501760244369507;0.0;0.0;0.0
703;0.0;0.0;0.0;0.28011199831962585;-0.1180959939956665;1.0540800094604492;0.0;0.0;0.0
705;0.0;0.0;0.0;0.30743998289108276;-0.1298079937696457;1.0745760202407837;0.0;0.0;0.0
707;0.16884799301624298;0.003415999934077263;0.9301279783248901;0.3269599974155426;-0.1298079937696457;1.0589599609375;0.3762499988079071;-9.086874961853027;22.198749542236328
709;0.0;0.0;0.0;0.3269599974155426;-0.1298079937696457;1.0296800136566162;0.0;0.0;0.0
711;0.0;0.0;0.0;0.33086398243904114;-0.09467199444770813;1.0784800052642822;0.0;0.0;0.0
713;0.0;0.0;0.0;0.3386719822883606;-0.1571359932422638;1.042367935180664;0.0;0.0;0.0
715;0.2117919921875;-0.006099999882280827;0.924515962600708;0.30743998289108276;-0.15323199331760406;1.0218719244003296;2.546250104904175;-7.056875228881836;21.988750457763672
718;0.0;0.0;0.0;0.33086398243904114;-0.16103999316692352;1.0462720394134521;0.0;0.0;0.0
720;0.0;0.0;0.0;0.3659999966621399;-0.19617599248886108;1.0218719244003296;0.0;0.0;0.0
722;0.0;0.0;0.0;0.3386719822883606;-0.17665599286556244;1.010159969329834;0.0;0.0;0.0
724;0.22423599660396576;-0.05197199806571007;0.8949919939041138;0.3699039816856384;-0.18836799263954163;1.017967939376831;4.226250171661377;-3.8368749618530273;19.46875
726;0.0;0.0;0.0;0.3816159963607788;-0.1844639927148819;1.0218719244003296;0.0;0.0;0.0
728;0.0;0.0;0.0;0.38942399621009827;-0.16103999316692352;1.0218719244003296;0.0;0.0;0.0
730;0.0;0.0;0.0;0.3816159963607788;-0.15323199331760406;1.0257760286331177;0.0;0.0;0.0
732;0.2593719959259033;-0.037331998348236084;0.8898679614067078;0.41577598452568054;-0.16884799301624298;1.017967939376831;6.326250076293945;-1.4568750858306885;15.408750534057617
735;0.0;0.0;0.0;0.4001599848270416;-0.16494399309158325;1.010159969329834;0.0;0.0;0.0
737;0.0;0.0;0.0;0.411871999502182;-0.14151999354362488;1.010159969329834;0.0;0.0;0.0
739;0.0;0.0;0.0;0.4470079839229584;-0.16494399309158325;0.9730719923973083;0.0;0.0;0.0
741;0.29231199622154236;-0.024887999519705772;0.8681519627571106;0.41577598452568054;-0.15323199331760406;0.9769759774208069;5.206250190734863;2.6031248569488525;12.328750610351562
743;0.0;0.0;0.0;0.41284799575805664;-0.2000799924135208;0.9818559885025024;0.0;0.0;0.0
745;0.0;0.0;0.0;0.4352959990501404;-0.19617599248886108;0.9652639627456665;0.0;0.0;0.0
747;0.0;0.0;0.0;0.41577598452568054;-0.21569599211215973;0.9691680073738098;0.0;0.0;0.0
749;0.3013399839401245;-0.0651479959487915;0.8347240090370178;0.4274879992008209;-0.23131199181079865;0.9330559968948364;2.8262500762939453;10.233125686645508;9.108750343322754
752;0.0;0.0;0.0;0.41577598452568054;-0.21569599211215973;0.9691680073738098;0.0;0.0;0.0
754;0.0;0.0;0.0;0.38942399621009827;-0.22740799188613892;0.9525759816169739;0.0;0.0;0.0
756;0.0;0.0;0.0;0.3777119815349579;-0.2391199916601181;0.9935680031776428;0.0;0.0;0.0
758;0.2635200023651123;-0.09955199807882309;0.8452159762382507;0.36209598183631897;-0.24302399158477783;0.9935680031776428;0.65625;18.913124084472656;6.028749942779541
760;0.0;0.0;0.0;0.3542879819869995;-0.26254400610923767;0.9935680031776428;0.0;0.0;0.0
762;0.0;0.0;0.0;0.30743998289108276;-0.2898719906806946;0.985759973526001;0.0;0.0;0.0
764;0.0;0.0;0.0;0.2723039984703064;-0.2547360062599182;1.0140639543533325;0.0;0.0;0.0
766;0.20447199046611786;-0.12468399852514267;0.8771799802780151;0.29572799801826477;-0.24692799150943756;1.0257760286331177;-1.1637499332427979;23.183124542236328;3.9287500381469727
769;0.0;0.0;0.0;0.2840159833431244;-0.28596800565719604;1.017967939376831;0.0;0.0;0.0
771;0.0;0.0;0.0;0.26449599862098694;-0.2898719906806946;1.034559965133667;0.0;0.0;0.0
773;0.0;0.0;0.0;0.26449599862098694;-0.28596800565719604;1.0384639501571655;0.0;0.0;0.0
775;0.1525000035762787;-0.17006799578666687;0.8940159678459167;0.24887999892234802;-0.32891198992729187;1.017967939376831;-1.09375;19.963125228881836;2.3187501430511475
777;0.0;0.0;0.0;0.2566879987716675;-0.3601439893245697;1.0218719244003296;0.0;0.0;0.0
779;0.0;0.0;0.0;0.2332639992237091;-0.33671998977661133;1.0140639543533325;0.0;0.0;0.0
781;0.0;0.0;0.0;0.25278398394584656;-0.3601439893245697;1.0501760244369507;0.0;0.0;0.0
783;0.12809999287128448;-0.2117919921875;0.8923079967498779;0.24107199907302856;-0.3718560039997101;1.0013760328292847;0.9362500309944153;11.633125305175781;0.42875000834465027
786;0.0;0.0;0.0;0.25278398394584656;-0.3757599890232086;1.0257760286331177;0.0;0.0;0.0
788;0.0;0.0;0.0;0.22545599937438965;-0.3601439893245697;1.0540800094604492;0.0;0.0;0.0
790;0.0;0.0;0.0;0.2332639992237091;-0.399183988571167;1.017967939376831;0.0;0.0;0.0
792;0.1134599968791008;-0.24570798873901367;0.9035319685935974;0.2332639992237091;-0.37966400384902954;1.0540800094604492;2.40625;1.5531249046325684;-1.6712501049041748
794;0.0;0.0;0.0;0.2332639992237091;-0.4030880033969879;1.0745760202407837;0.0;0.0;0.0
796;0.0;0.0;0.0;0.2176479995250702;-0.4030880033969879;1.066767930984497;0.0;0.0;0.0
798;0.0;0.0;0.0;0.25278398394584656;-0.399183988571167;1.0462720394134521;0.0;0.0;0.0
800;0.12126799672842026;-0.2664479911327362;0.9152439832687378;0.2723039984703064;-0.40699198842048645;1.0540800094604492;1.4262499809265137;-12.376874923706055;-3.211250066757202
803;0.0;0.0;0.0;0.3269599974155426;-0.41870400309562683;1.0140639543533325;0.0;0.0;0.0
805;0.0;0.0;0.0;0.33086398243904114;-0.4108960032463074;1.0257760286331177;0.0;0.0;0.0
807;0.0;0.0;0.0;0.38551998138427734;-0.41870400309562683;1.017967939376831;0.0;0.0;0.0
809;0.22008799016475677;-0.2786479890346527;0.8954799771308899;0.37380799651145935;-0.42260798811912537;1.010159969329834;-1.2337501049041748;-23.36687469482422;-3.701249837875366
811;0.0;0.0;0.0;0.4050399959087372;-0.4108960032463074;1.017967939376831;0.0;0.0;0.0
813;0.0;0.0;0.0;0.44310399889945984;-0.4382239878177643;0.9935680031776428;0.0;0.0;0.0
815;0.0;0.0;0.0;0.43139198422431946;-0.4655520021915436;0.9896639585494995;0.0;0.0;0.0
818;0.30866000056266785;-0.3106119930744171;0.8786439895629883;0.4509119987487793;-0.4655520021915436;1.0052800178527832;-4.173749923706055;-24.4168758392334;-4.191250324249268
820;0.0;0.0;0.0;0.45871999859809875;-0.48897600173950195;0.9935680031776428;0.0;0.0;0.0
822;0.0;0.0;0.0;0.47433599829673767;-0.44603198766708374;1.017967939376831;0.0;0.0;0.0
824;0.0;0.0;0.0;0.4665279984474182;-0.4928799867630005;1.0062559843063354;0.0;0.0;0.0
826;0.34184399247169495;-0.342087984085083;0.8810839653015137;0.4470079839229584;-0.47336000204086304;1.0501760244369507;-6.553750038146973;-17.97687530517578;-5.941250324249268
828;0.0;0.0;0.0;0.4626239836215973;-0.48507198691368103;1.017967939376831;0.0;0.0;0.0
830;0.0;0.0;0.0;0.4938559830188751;-0.4967840015888214;1.0306559801101685;0.0;0.0;0.0
832;0.0;0.0;0.0;0.4782399833202362;-0.4694559872150421;1.034559965133667;0.0;0.0;0.0
835;0.35745999217033386;-0.35697197914123535;0.9079239964485168;0.48604798316955566;-0.5123999714851379;1.0540800094604492;-8.723750114440918;-10.55687427520752;-8.951250076293945
837;0.0;0.0;0.0;0.5016639828681946;-0.5202080011367798;1.042367935180664;0.0;0.0;0.0
839;0.0;0.0;0.0;0.4938559830188751;-0.5280159711837769;1.0501760244369507;0.0;0.0;0.0
841;0.0;0.0;0.0;0.48214399814605713;-0.5358240008354187;1.0462720394134521;0.0;0.0;0.0
843;0.36502400040626526;-0.39064398407936096;0.928663969039917;0.47433599829673767;-0.5475360155105591;1.0589599609375;-10.263750076293945;-3.8368749618530273;-12.801249504089355
845;0.0;0.0;0.0;0.44310399889945984;-0.563152015209198;1.0589599609375;0.0;0.0;0.0
847;0.0;0.0;0.0;0.4509119987487793;-0.5787680149078369;1.0745760202407837;0.0;0.0;0.0
849;0.0;0.0;0.0;0.4470079839229584;-0.5670560002326965;1.0706720352172852;0.0;0.0;0.0
852;0.3323279917240143;-0.42260798811912537;0.9367159605026245;0.45871999859809875;-0.5475360155105591;1.0784800052642822;-9.633750915527344;-1.1068750619888306;-18.051250457763672
854;0.0;0.0;0.0;0.45481598377227783;-0.5436319708824158;1.066767930984497;0.0;0.0;0.0
856;0.0;0.0;0.0;0.4352959990501404;-0.5319200158119202;1.0745760202407837;0.0;0.0;0.0
858;0.0;0.0;0.0;0.43139198422431946;-0.563152015209198;1.0589599609375;0.0;0.0;0.0
860;0.3286679983139038;-0.4282200038433075;0.921343982219696;0.45871999859809875;-0.5592479705810547;1.0540800094604492;-7.533750057220459;-0.40687501430511475;-24.07124900817871
862;0.0;0.0;0.0;0.41967999935150146;-0.5748639702796936;1.017967939376831;0.0;0.0;0.0
864;0.0;0.0;0.0;0.4391999840736389;-0.5943840146064758;1.034559965133667;0.0;0.0;0.0
866;0.0;0.0;0.0;0.4206559956073761;-0.5826719999313354;1.010159969329834;0.0;0.0;0.0
869;0.3181760013103485;-0.43944400548934937;0.8945040106773376;0.4274879992008209;-0.5748639702796936;1.010159969329834;-5.363749980926514;2.7431249618530273;-30.301250457763672
871;0.0;0.0;0.0;0.43139198422431946;-0.5709599852561951;1.0218719244003296;0.0;0.0;0.0
873;0.0;0.0;0.0;0.4050399959087372;-0.5553439855575562;1.034559965133667;0.0;0.0;0.0
875;0.0;0.0;0.0;0.3933279812335968;-0.5670560002326965;1.0257760286331177;0.0;0.0;0.0
877;0.2727919816970825;-0.4299280047416687;0.8830359578132629;0.3777119815349579;-0.5592479705810547;1.0384639501571655;-5.013750076293945;6.17312479019165;-35.971248626708984
879;0.0;0.0;0.0;0.38551998138427734;-0.5319200158119202;1.0384639501571655;0.0;0.0;0.0
881;0.0;0.0;0.0;0.3542879819869995;-0.563152015209198;1.0140639543533325;0.0;0.0;0.0
883;0.0;0.0;0.0;0.3386719822883606;-0.5123999714851379;1.0062559843063354;0.0;0.0;0.0
886;0.23936399817466736;-0.395035982131958;0.8888919949531555;0.3425759971141815;-0.5280159711837769;1.010159969329834;-6.903749942779541;9.183125495910645;-39.61124801635742
888;0.0;0.0;0.0;0.3152479827404022;-0.5280159711837769;1.0140639543533325;0.0;0.0;0.0
890;0.0;0.0;0.0;0.2879199981689453;-0.5280159711837769;1.0257760286331177;0.0;0.0;0.0
892;0.0;0.0;0.0;0.2879199981689453;-0.5280159711837769;1.010159969329834;0.0;0.0;0.0
894;0.18348799645900726;-0.40528398752212524;0.8886479735374451;0.2683999836444855;-0.5358240008354187;1.0218719244003296;-10.193750381469727;12.123125076293945;-42.901248931884766
896;0.0;0.0;0.0;0.28011199831962585;-0.5241119861602783;1.0140639543533325;0.0;0.0;0.0
898;0.0;0.0;0.0;0.2332639992237091;-0.5436319708824158;1.042367935180664;0.0;0.0;0.0
900;0.0;0.0;0.0;0.22545599937438965;-0.5787680149078369;1.0462720394134521;0.0;0.0;0.0
903;0.13298000395298004;-0.4084559977054596;0.9020679593086243;0.25278398394584656;-0.5319200158119202;1.0384639501571655;-13.203750610351562;13.94312572479248;-46.12125015258789
905;0.0;0.0;0.0;0.2332639992237091;-0.5475360155105591;1.0384639501571655;0.0;0.0;0.0
907;0.0;0.0;0.0;0.2176479995250702;-0.5397279858589172;1.0501760244369507;0.0;0.0;0.0
909;0.0;0.0;0.0;0.17080000042915344;-0.5436319708824158;1.0540800094604492;0.0;0.0;0.0
911;0.07954400032758713;-0.4038199782371521;0.9149999618530273;0.14444799721240997;-0.5319200158119202;1.0296800136566162;-15.6537504196167;17.5831241607666;-49.69124984741211
913;0.0;0.0;0.0;0.1512800008058548;-0.5514400005340576;1.0628639459609985;0.0;0.0;0.0
915;0.0;0.0;0.0;0.11711999773979187;-0.5475360155105591;1.0706720352172852;0.0;0.0;0.0
917;0.0;0.0;0.0;0.08979199826717377;-0.5514400005340576;1.0823839902877808;0.0;0.0;0.0
920;-0.0017079999670386314;-0.4126040041446686;0.9374479651451111;0.07807999849319458;-0.5436319708824158;1.0784800052642822;-17.123748779296875;20.453125;-52.561248779296875
922;0.0;0.0;0.0;0.03513599932193756;-0.5397279858589172;1.1067839860916138;0.0;0.0;0.0
924;0.0;0.0;0.0;-0.007807999849319458;-0.5709599852561951;1.1194720268249512;0.0;0.0;0.0
926;0.0;0.0;0.0;-0.023423999547958374;-0.5436319708824158;1.1311839818954468;0.0;0.0;0.0
928;-0.10833600163459778;-0.4248040020465851;0.9796599745750427;-0.04684799909591675;-0.6021919846534729;1.1643680334091187;-18.59375;21.013124465942383;-54.87125015258789
930;0.0;0.0;0.0;-0.07807999849319458;-0.563152015209198;1.115567922592163;0.0;0.0;0.0
932;0.0;0.0;0.0;-0.07807999849319458;-0.5670560002326965;1.1721760034561157;0.0;0.0;0.0
934;0.0;0.0;0.0;-0.10443200170993805;-0.5943840146064758;1.1555839776992798;0.0;0.0;0.0
937;-0.21496400237083435;-0.44652000069618225;1.0145519971847534;-0.14347200095653534;-0.5943840146064758;1.1477760076522827;-18.733749389648438;17.513124465942383;-57.11125183105469
939;0.0;0.0;0.0;-0.18251200020313263;-0.5709599852561951;1.1594879627227783;0.0;0.0;0.0
941;0.0;0.0;0.0;-0.18641600012779236;-0.6021919846534729;1.1760799884796143;0.0;0.0;0.0
943;0.0;0.0;0.0;-0.20203199982643127;-0.5709599852561951;1.1682720184326172;0.0;0.0;0.0
945;-0.3013399839401245;-0.44529998302459717;1.0338280200958252;-0.22545599937438965;-0.5826719999313354;1.1555839776992798;-15.933751106262207;9.04312515258789;-56.341251373291016
947;0.0;0.0;0.0;-0.22155199944972992;-0.5826719999313354;1.1477760076522827;0.0;0.0;0.0
949;0.0;0.0;0.0;-0.22545599937438965;-0.5787680149078369;1.1555839776992798;0.0;0.0;0.0
951;0.0;0.0;0.0;-0.21374399960041046;-0.5709599852561951;1.1555839776992798;0.0;0.0;0.0
954;-0.3403799831867218;-0.4365159869194031;1.0194319486618042;-0.22935999929904938;-0.5787680149078369;1.1233760118484497;-11.733750343322754;-0.33687499165534973;-53.33124923706055
956;0.0;0.0;0.0;-0.22935999929904938;-0.5592479705810547;1.1233760118484497;0.0;0.0;0.0
958;0.0;0.0;0.0;-0.22155199944972992;-0.5670560002326965;1.1311839818954468;0.0;0.0;0.0
960;0.0;0.0;0.0;-0.22545599937438965;-0.563152015209198;1.107759952545166;0.0;0.0;0.0
962;-0.34477198123931885;-0.4294399917125702;0.9935680031776428;-0.24107199907302856;-0.586575984954834;1.1194720268249512;-7.883749961853027;-5.026875019073486;-49.55125045776367
964;0.0;0.0;0.0;-0.22155199944972992;-0.563152015209198;1.1028800010681152;0.0;0.0;0.0
966;0.0;0.0;0.0;-0.24887999892234802;-0.5436319708824158;1.1350879669189453;0.0;0.0;0.0
968;0.0;0.0;0.0;-0.22155199944972992;-0.5475360155105591;1.115567922592163;0.0;0.0;0.0
971;-0.35819199681282043;-0.4135800004005432;0.9869799613952637;-0.2683999836444855;-0.5436319708824158;1.1311839818954468;-6.413750171661377;-7.126874923706055;-44.51124954223633
973;0.0;0.0;0.0;-0.22545599937438965;-0.5241119861602783;1.1350879669189453;0.0;0.0;0.0
975;0.0;0.0;0.0;-0.260591983795166;-0.5436319708824158;1.139967918395996;0.0;0.0;0.0
977;0.0;0.0;0.0;-0.2449759989976883;-0.5084959864616394;1.1067839860916138;0.0;0.0;0.0
979;-0.3689279854297638;-0.3916199803352356;0.9928359985351562;-0.22545599937438965;-0.5397279858589172;1.1311839818954468;-8.09375;-9.366874694824219;-39.681251525878906
981;0.0;0.0;0.0;-0.2176479995250702;-0.5319200158119202;1.1194720268249512;0.0;0.0;0.0
983;0.0;0.0;0.0;-0.22935999929904938;-0.5163040161132812;1.1028800010681152;0.0;0.0;0.0
985;0.0;0.0;0.0;-0.205935999751091;-0.5045920014381409;1.1116639375686646;0.0;0.0;0.0
988;-0.35453200340270996;-0.3845439851284027;0.9874680042266846;-0.205935999751091;-0.5436319708824158;1.1067839860916138;-10.68375015258789;-9.926874160766602;-35.411251068115234
990;0.0;0.0;0.0;-0.2566879987716675;-0.5045920014381409;1.115567922592163;0.0;0.0;0.0
992;0.0;0.0;0.0;-0.22935999929904938;-0.5123999714851379;1.1477760076522827;0.0;0.0;0.0
994;0.0;0.0;0.0;-0.22935999929904938;-0.5084959864616394;1.139967918395996;0.0;0.0;0.0
996;-0.35745999217033386;-0.38210397958755493;0.9950319528579712;-0.21374399960041046;-0.5006880164146423;1.115567922592163;-11.383750915527344;-9.64687442779541;-31.701250076293945
998;0.0;0.0;0.0;-0.21374399960041046;-0.4928799867630005;1.1477760076522827;0.0;0.0;0.0
1000;0.0;0.0;0.0;-0.20983999967575073;-0.5241119861602783;1.1116639375686646;0.0;0.0;0.0
1002;0.0;0.0;0.0;-0.20203199982643127;-0.4928799867630005;1.139967918395996;0.0;0.0;0.0
1005;-0.33769598603248596;-0.37673598527908325;1.0016199350357056;-0.22935999929904938;-0.5084959864616394;1.115567922592163;-10.33375072479248;-11.816874504089355;-28.971250534057617
1007;0.0;0.0;0.0;-0.2176479995250702;-0.5202080011367798;1.1555839776992798;0.0;0.0;0.0
1009;0.0;0.0;0.0;-0.22155199944972992;-0.5084959864616394;1.1643680334091187;0.0;0.0;0.0
1011;0.0;0.0;0.0;-0.20203199982643127;-0.5045920014381409;1.1516799926757812;0.0;0.0;0.0
1013;-0.3391599953174591;-0.3728320002555847;1.0250439643859863;-0.20983999967575073;-0.48507198691368103;1.1721760034561157;-9.073750495910645;-15.45687484741211;-28.341249465942383
1015;0.0;0.0;0.0;-0.1903200000524521;-0.4928799867630005;1.1682720184326172;0.0;0.0;0.0
1017;0.0;0.0;0.0;-0.23716799914836884;-0.4967840015888214;1.1555839776992798;0.0;0.0;0.0
1020;0.0;0.0;0.0;-0.22935999929904938;-0.5006880164146423;1.1643680334091187;0.0;0.0;0.0
1022;-0.3411119878292084;-0.3659999966621399;1.038219928741455;-0.23716799914836884;-0.5319200158119202;1.1643680334091187;-8.863750457763672;-20.70687484741211;-30.931249618530273
1024;0.0;0.0;0.0;-0.20203199982643127;-0.5123999714851379;1.1887680292129517;0.0;0.0;0.0
1026;0.0;0.0;0.0;-0.21374399960041046;-0.5084959864616394;1.1760799884796143;0.0;0.0;0.0
1028;0.0;0.0;0.0;-0.2176479995250702;-0.4928799867630005;1.1799839735031128;0.0;0.0;0.0
1030;-0.32793599367141724;-0.3728320002555847;1.0352920293807983;-0.18641600012779236;-0.5045920014381409;1.1477760076522827;-8.443750381469727;-27.426876068115234;-33.381248474121094
1032;0.0;0.0;0.0;-0.15908800065517426;-0.4928799867630005;1.1877919435501099;0.0;0.0;0.0
1034;0.0;0.0;0.0;-0.16299200057983398;-0.5163040161132812;1.1438720226287842;0.0;0.0;0.0
1037;0.0;0.0;0.0;-0.15908800065517426;-0.5006880164146423;1.1594879627227783;0.0;0.0;0.0
1039;-0.2881639897823334;-0.3757599890232086;1.0294359922409058;-0.1395680010318756;-0.5123999714851379;1.1799839735031128;-7.953750133514404;-29.176876068115234;-34.36124801635742
1041;0.0;0.0;0.0;-0.1512800008058548;-0.5397279858589172;1.1965759992599487;0.0;0.0;0.0
1043;0.0;0.0;0.0;-0.13176000118255615;-0.5397279858589172;1.1643680334091187;0.0;0.0;0.0
1045;0.0;0.0;0.0;-0.18251200020313263;-0.5319200158119202;1.1604639291763306;0.0;0.0;0.0
1047;-0.2845039963722229;-0.4008919894695282;1.0433440208435059;-0.17470400035381317;-0.5436319708824158;1.1926720142364502;-6.763750076293945;-26.796875;-34.36124801635742
1049;0.0;0.0;0.0;-0.20203199982643127;-0.5397279858589172;1.1643680334091187;0.0;0.0;0.0
1051;0.0;0.0;0.0;-0.1903200000524521;-0.5241119861602783;1.1965759992599487;0.0;0.0;0.0
1054;0.0;0.0;0.0;-0.23716799914836884;-0.5514400005340576;1.2131680250167847;0.0;0.0;0.0
1056;-0.3264719843864441;-0.41870400309562683;1.0611560344696045;-0.22545599937438965;-0.5592479705810547;1.1838879585266113;-5.223750114440918;-24.906875610351562;-33.94124984741211
1058;0.0;0.0;0.0;-0.19422399997711182;-0.5358240008354187;1.1965759992599487;0.0;0.0;0.0
1060;0.0;0.0;0.0;-0.18641600012779236;-0.5475360155105591;1.2082879543304443;0.0;0.0;0.0
1062;0.0;0.0;0.0;-0.20983999967575073;-0.5475360155105591;1.1838879585266113;0.0;0.0;0.0
1064;-0.3257399797439575;-0.41162797808647156;1.0587159395217896;-0.19812799990177155;-0.5475360155105591;1.1799839735031128;-2.9837498664855957;-25.466875076293945;-32.19124984741211
1066;0.0;0.0;0.0;-0.18641600012779236;-0.5514400005340576;1.1760799884796143;0.0;0.0;0.0
1068;0.0;0.0;0.0;-0.18251200020313263;-0.5241119861602783;1.1516799926757812;0.0;0.0;0.0
1071;0.0;0.0;0.0;-0.1903200000524521;-0.5436319708824158;1.1594879627227783;0.0;0.0;0.0
1073;-0.3071959912776947;-0.4043079912662506;1.0404160022735596;-0.19422399997711182;-0.5670560002326965;1.1555839776992798;-0.04375000298023224;-22.736875534057617;-29.251249313354492
1075;0.0;0.0;0.0;-0.19812799990177155;-0.5475360155105591;1.1643680334091187;0.0;0.0;0.0
1077;0.0;0.0;0.0;-0.20983999967575073;-0.5397279858589172;1.1682720184326172;0.0;0.0;0.0
1079;0.0;0.0;0.0;-0.22935999929904938;-0.5475360155105591;1.1926720142364502;0.0;0.0;0.0
1081;-0.32671600580215454;-0.40113598108291626;1.038707971572876;-0.23716799914836884;-0.5241119861602783;1.1682720184326172;2.1262500286102295;-18.396875381469727;-26.451250076293945
1083;0.0;0.0;0.0;-0.23716799914836884;-0.48897600173950195;1.1721760034561157;0.0;0.0;0.0
1085;0.0;0.0;0.0;-0.23716799914836884;-0.5241119861602783;1.1682720184326172;0.0;0.0;0.0
1088;0.0;0.0;0.0;-0.24887999892234802;-0.5163040161132812;1.1721760034561157;0.0;0.0;0.0
1090;-0.35867998003959656;-0.3852759897708893;1.0440759658813477;-0.21374399960041046;-0.5241119861602783;1.1760799884796143;3.036250114440918;-16.786874771118164;-24.141250610351562
1092;0.0;0.0;0.0;-0.21374399960041046;-0.5084959864616394;1.1760799884796143;0.0;0.0;0.0
1094;0.0;0.0;0.0;-0.22155199944972992;-0.4928799867630005;1.1438720226287842;0.0;0.0;0.0
1096;0.0;0.0;0.0;-0.23716799914836884;-0.5319200158119202;1.1555839776992798;0.0;0.0;0.0
1098;-0.35745999217033386;-0.3723439872264862;1.036512017250061;-0.2449759989976883;-0.5123999714851379;1.1555839776992798;4.296249866485596;-17.626874923706055;-21.901248931884766
1100;0.0;0.0;0.0;-0.23716799914836884;-0.5241119861602783;1.1350879669189453;0.0;0.0;0.0
1102;0.0;0.0;0.0;-0.22155199944972992;-0.5045920014381409;1.1438720226287842;0.0;0.0;0.0
1105;0.0;0.0;0.0;-0.22155199944972992;-0.48897600173950195;1.0989760160446167;0.0;0.0;0.0
1107;-0.3386719822883606;-0.374783992767334;0.9999119639396667;-0.2176479995250702;-0.5202080011367798;1.1194720268249512;7.586250305175781;-19.586875915527344;-19.6612491607666
1109;0.0;0.0;0.0;-0.1668960005044937;-0.5006880164146423;1.1233760118484497;0.0;0.0;0.0
1111;0.0;0.0;0.0;-0.15518400073051453;-0.48897600173950195;1.0950720310211182;0.0;0.0;0.0
1113;0.0;0.0;0.0;-0.1668960005044937;-0.4577440023422241;1.0872639417648315;0.0;0.0;0.0
1115;-0.2862119972705841;-0.35453200340270996;0.9669719934463501;-0.15518400073051453;-0.4772639870643616;1.0706720352172852;12.556249618530273;-20.356876373291016;-17.491249084472656
1117;0.0;0.0;0.0;-0.14347200095653534;-0.44993600249290466;1.0745760202407837;0.0;0.0;0.0
1119;0.0;0.0;0.0;-0.1395680010318756;-0.4655520021915436;1.0589599609375;0.0;0.0;0.0
1122;0.0;0.0;0.0;-0.1239520013332367;-0.48897600173950195;1.042367935180664;0.0;0.0;0.0
1124;-0.24448800086975098;-0.3223240077495575;0.9289079904556274;-0.09272000193595886;-0.43432000279426575;1.0628639459609985;16.33625030517578;-20.426876068115234;-15.601249694824219
1126;0.0;0.0;0.0;-0.09272000193595886;-0.39528000354766846;1.0462720394134521;0.0;0.0;0.0
1128;0.0;0.0;0.0;-0.062463998794555664;-0.4265120029449463;1.0013760328292847;0.0;0.0;0.0
1130;0.0;0.0;0.0;-0.09272000193595886;-0.40699198842048645;1.0062559843063354;0.0;0.0;0.0
1132;-0.20447199046611786;-0.2791360020637512;0.8893799781799316;-0.08588799834251404;-0.37966400384902954;0.9691680073738098;17.24625015258789;-20.076875686645508;-15.111249923706055
1134;0.0;0.0;0.0;-0.0663679987192154;-0.36795198917388916;0.9779520034790039;0.0;0.0;0.0
1136;0.0;0.0;0.0;-0.0663679987192154;-0.3835679888725281;0.9935680031776428;0.0;0.0;0.0
1139;0.0;0.0;0.0;-0.054655998945236206;-0.3835679888725281;0.9652639627456665;0.0;0.0;0.0
1141;-0.18544000387191772;-0.23936399817466736;0.8537560105323792;-0.04294399917125702;-0.3445279896259308;0.9574559926986694;15.286250114440918;-20.566875457763672;-16.37125015258789
1143;0.0;0.0;0.0;-0.03903999924659729;-0.32891198992729187;0.961359977722168;0.0;0.0;0.0
1145;0.0;0.0;0.0;-0.062463998794555664;-0.32500800490379333;0.944767951965332;0.0;0.0;0.0
1147;0.0;0.0;0.0;-0.015615999698638916;-0.3445279896259308;0.9408639669418335;0.0;0.0;0.0
1149;-0.15347599983215332;-0.20447199046611786;0.8108119964599609;-0.031231999397277832;-0.32891198992729187;0.920367956161499;10.736249923706055;-20.356876373291016;-17.771249771118164
1151;0.0;0.0;0.0;-0.007807999849319458;-0.30158400535583496;0.920367956161499;0.0;0.0;0.0
1153;0.0;0.0;0.0;-0.027327999472618103;-0.32500800490379333;0.9408639669418335;0.0;0.0;0.0
1156;0.0;0.0;0.0;-0.03513599932193756;-0.3328160047531128;0.9281759858131409;0.0;0.0;0.0
1158;-0.14054399728775024;-0.19105198979377747;0.806663990020752;0.003903999924659729;-0.3328160047531128;0.944767951965332;4.646250247955322;-15.036874771118164;-19.03125
1160;0.0;0.0;0.0;-0.007807999849319458;-0.30158400535583496;0.9818559885025024;0.0;0.0;0.0
1162;0.0;0.0;0.0;-0.007807999849319458;-0.3093920052051544;0.9769759774208069;0.0;0.0;0.0
1164;0.0;0.0;0.0;-0.027327999472618103;-0.34062400460243225;0.9808799624443054;0.0;0.0;0.0
1166;-0.140299990773201;-0.1878799945116043;0.8449719548225403;-0.03513599932193756;-0.3445279896259308;0.9896639585494995;-3.0537500381469727;-6.006875038146973;-19.73124885559082
1169;0.0;0.0;0.0;-0.07417599856853485;-0.32500800490379333;1.0296800136566162;0.0;0.0;0.0
1170;0.0;0.0;0.0;-0.11614400148391724;-0.33671998977661133;1.0296800136566162;0.0;0.0;0.0
1173;0.0;0.0;0.0;-0.14347200095653534;-0.3601439893245697;1.0589599609375;0.0;0.0;0.0
1175;-0.22935999929904938;-0.2164279967546463;0.9088999629020691;-0.14347200095653534;-0.34062400460243225;1.09116792678833;-7.883749961853027;1.0631248950958252;-19.6612491607666
1177;0.0;0.0;0.0;-0.1395680010318756;-0.3601439893245697;1.09116792678833;0.0;0.0;0.0
1179;0.0;0.0;0.0;-0.1903200000524521;-0.34062400460243225;1.09116792678833;0.0;0.0;0.0
1181;0.0;0.0;0.0;-0.18641600012779236;-0.32891198992729187;1.09116792678833;0.0;0.0;0.0
1183;-0.29767999053001404;-0.20959599316120148;0.9642879962921143;-0.205935999751091;-0.33671998977661133;1.09116792678833;-8.443750381469727;-4.256875038146973;-18.891250610351562
1186;0.0;0.0;0.0;-0.19422399997711182;-0.3484320044517517;1.0872639417648315;0.0;0.0;0.0
1188;0.0;0.0;0.0;-0.18641600012779236;-0.35624000430107117;1.1028800010681152;0.0;0.0;0.0
1190;0.0;0.0;0.0;-0.19422399997711182;-0.3484320044517517;1.0989760160446167;0.0;0.0;0.0
1192;-0.31549200415611267;-0.20642399787902832;0.9706319570541382;-0.205935999751091;-0.3172000050544739;1.1194720268249512;-4.873749732971191;-13.70687484741211;-19.171249389648438
1194;0.0;0.0;0.0;-0.18641600012779236;-0.2937760055065155;1.1311839818954468;0.0;0.0;0.0
1196;0.0;0.0;0.0;-0.22935999929904938;-0.2898719906806946;1.1233760118484497;0.0;0.0;0.0
1198;0.0;0.0;0.0;-0.25278398394584656;-0.2508319914340973;1.1067839860916138;0.0;0.0;0.0
1200;-0.34135597944259644;-0.1605519950389862;0.9850279688835144;-0.205935999751091;-0.28596800565719604;1.1350879669189453;-1.0237500667572021;-20.84687614440918;-17.841249465942383
1203;0.0;0.0;0.0;-0.23716799914836884;-0.2820639908313751;1.0872639417648315;0.0;0.0;0.0
1205;0.0;0.0;0.0;-0.24887999892234802;-0.3093920052051544;1.0989760160446167;0.0;0.0;0.0
1207;0.0;0.0;0.0;-0.21374399960041046;-0.29767999053001404;1.1028800010681152;0.0;0.0;0.0
1209;-0.3474559783935547;-0.15811198949813843;0.9701439738273621;-0.19422399997711182;-0.30158400535583496;1.0872639417648315;1.006250023841858;-26.586875915527344;-16.651248931884766
1211;0.0;0.0;0.0;-0.24107199907302856;-0.2898719906806946;1.0950720310211182;0.0;0.0;0.0
1213;0.0;0.0;0.0;-0.205935999751091;-0.26254400610923767;1.1028800010681152;0.0;0.0;0.0
1215;0.0;0.0;0.0;-0.20203199982643127;-0.23521599173545837;1.1028800010681152;0.0;0.0;0.0
1217;-0.3235439956188202;-0.12419600039720535;0.9674599766731262;-0.1903200000524521;-0.2235039919614792;1.1028800010681152;3.2462501525878906;-29.6668758392334;-13.851249694824219
1220;0.0;0.0;0.0;-0.20203199982643127;-0.19617599248886108;1.0872639417648315;0.0;0.0;0.0
1222;0.0;0.0;0.0;-0.1786080002784729;-0.2000799924135208;1.066767930984497;0.0;0.0;0.0
1224;0.0;0.0;0.0;-0.16299200057983398;-0.18836799263954163;1.0462720394134521;0.0;0.0;0.0
1226;-0.2852360010147095;-0.07149200141429901;0.9420839548110962;-0.1512800008058548;-0.2000799924135208;1.0501760244369507;4.786250114440918;-28.47687530517578;-8.391249656677246
1228;0.0;0.0;0.0;-0.1512800008058548;-0.16103999316692352;1.0540800094604492;0.0;0.0;0.0
1230;0.0;0.0;0.0;-0.10833600163459778;-0.1454239934682846;1.0628639459609985;0.0;0.0;0.0
1232;0.0;0.0;0.0;-0.09272000193595886;-0.16494399309158325;1.0706720352172852;0.0;0.0;0.0
1234;-0.24107199907302856;-0.030743999406695366;0.9396439790725708;-0.10052800178527832;-0.13371199369430542;1.0628639459609985;5.276249885559082;-22.38687515258789;-3.4912500381469727
1236;0.0;0.0;0.0;-0.09662400186061859;-0.12199999392032623;1.0540800094604492;0.0;0.0;0.0
1239;0.0;0.0;0.0;-0.0663679987192154;-0.11028799414634705;1.042367935180664;0.0;0.0;0.0
1241;0.0;0.0;0.0;-0.05075199902057648;-0.13761599361896515;1.0218719244003296;0.0;0.0;0.0
1243;-0.20374000072479248;0.009759999811649323;0.9135359525680542;-0.11224000155925751;-0.09857599437236786;1.0296800136566162;5.626250267028809;-12.586874961853027;0.6387500166893005
1245;0.0;0.0;0.0;-0.07417599856853485;-0.09857599437236786;1.0296800136566162;0.0;0.0;0.0
1247;0.0;0.0;0.0;-0.07320000231266022;-0.09857599437236786;1.0589599609375;0.0;0.0;0.0
1249;0.0;0.0;0.0;-0.13176000118255615;-0.09467199444770813;1.0628639459609985;0.0;0.0;0.0
1251;-0.21837998926639557;0.029767999425530434;0.9206119775772095;-0.10052800178527832;-0.1298079937696457;1.042367935180664;5.976250171661377;0.43312501907348633;2.8087501525878906
1254;0.0;0.0;0.0;-0.15908800065517426;-0.0907679945230484;1.0706720352172852;0.0;0.0;0.0
1256;0.0;0.0;0.0;-0.14347200095653534;-0.05953599885106087;1.09116792678833;0.0;0.0;0.0
1258;0.0;0.0;0.0;-0.1239520013332367;-0.06734399497509003;1.0950720310211182;0.0;0.0;0.0
1260;-0.28133198618888855;0.054899998009204865;0.954039990901947;-0.20203199982643127;-0.0634399950504303;1.115567922592163;5.90625;8.623125076293945;4.068749904632568
1262;0.0;0.0;0.0;-0.24887999892234802;-0.0634399950504303;1.1194720268249512;0.0;0.0;0.0
1264;0.0;0.0;0.0;-0.22935999929904938;-0.07124799489974976;1.1067839860916138;0.0;0.0;0.0
1266;0.0;0.0;0.0;-0.2840159833431244;-0.08295999467372894;1.1116639375686646;0.0;0.0;0.0
1268;-0.3828359842300415;0.06929600238800049;0.9786840081214905;-0.2879199981689453;-0.05172799900174141;1.115567922592163;1.846250057220459;9.463125228881836;8.05875015258789
1270;0.0;0.0;0.0;-0.2840159833431244;-0.07124799489974976;1.0950720310211182;0.0;0.0;0.0
1273;0.0;0.0;0.0;-0.2683999836444855;-0.04391999915242195;1.1067839860916138;0.0;0.0;0.0
1275;0.0;0.0;0.0;-0.2840159833431244;-0.06734399497509003;1.0950720310211182;0.0;0.0;0.0
1277;-0.4038199782371521;0.06441599875688553;0.9786840081214905;-0.2683999836444855;-0.05563199892640114;1.1067839860916138;-1.5137500762939453;7.713124752044678;11.908750534057617
1279;0.0;0.0;0.0;-0.30353599786758423;-0.04001599922776222;1.1516799926757812;0.0;0.0;0.0
1281;0.0;0.0;0.0;-0.29182398319244385;-0.028303999453783035;1.1477760076522827;0.0;0.0;0.0
1283;0.0;0.0;0.0;-0.2879199981689453;-0.06734399497509003;1.1233760118484497;0.0;0.0;0.0
1285;-0.4135800004005432;0.08417999744415283;1.0047919750213623;-0.3113439977169037;-0.05563199892640114;1.1477760076522827;-2.0037498474121094;5.193124771118164;18.278749465942383
1288;0.0;0.0;0.0;-0.30743998289108276;-0.03611199930310249;1.1438720226287842;0.0;0.0;0.0
1290;0.0;0.0;0.0;-0.31915199756622314;-0.05563199892640114;1.1555839776992798;0.0;0.0;0.0
1292;0.0;0.0;0.0;-0.2879199981689453;-0.028303999453783035;1.1194720268249512;0.0;0.0;0.0
1294;-0.4199239909648895;0.09125600010156631;1.00381600856781;-0.2723039984703064;-0.04782399907708168;1.115567922592163;-1.1637499332427979;0.3631249964237213;25.62874984741211
1296;0.0;0.0;0.0;-0.28011199831962585;-0.01659199967980385;1.1360639333724976;0.0;0.0;0.0
1298;0.0;0.0;0.0;-0.24107199907302856;-0.01659199967980385;1.1360639333724976;0.0;0.0;0.0
1300;0.0;0.0;0.0;-0.22545599937438965;-0.01659199967980385;1.115567922592163;0.0;0.0;0.0
1302;-0.3630719780921936;0.1256600022315979;0.9943000078201294;-0.22545599937438965;0.022447999566793442;1.139967918395996;0.8662499785423279;-3.416875123977661;32.13874816894531
1305;0.0;0.0;0.0;-0.20203199982643127;0.04196799919009209;1.1360639333724976;0.0;0.0;0.0
1307;0.0;0.0;0.0;-0.17080000042915344;0.045871999114751816;1.1233760118484497;0.0;0.0;0.0
1309;0.0;0.0;0.0;-0.17470400035381317;0.057583998888731;1.1067839860916138;0.0;0.0;0.0
1311;-0.2967039942741394;0.1739719957113266;0.9962520003318787;-0.14737600088119507;0.06148799881339073;1.1233760118484497;2.0562500953674316;-3.976875066757202;36.54875183105469
1313;0.0;0.0;0.0;-0.12785600125789642;0.07710400223731995;1.1272799968719482;0.0;0.0;0.0
1315;0.0;0.0;0.0;-0.10833600163459778;0.09272000193595886;1.1438720226287842;0.0;0.0;0.0
1317;0.0;0.0;0.0;-0.09662400186061859;0.08881600201129913;1.1116639375686646;0.0;0.0;0.0
1319;-0.23253199458122253;0.2181359976530075;0.9884439706802368;-0.09272000193595886;0.10833600163459778;1.1233760118484497;1.5662500858306885;-2.0168750286102295;40.118751525878906
1322;0.0;0.0;0.0;-0.062463998794555664;0.11224000155925751;1.1350879669189453;0.0;0.0;0.0
1324;0.0;0.0;0.0;-0.0663679987192154;0.11614400148391724;1.1233760118484497;0.0;0.0;0.0
1326;0.0;0.0;0.0;-0.062463998794555664;0.11614400148391724;1.1438720226287842;0.0;0.0;0.0
1328;-0.16884799301624298;0.24107199907302856;0.9955199956893921;-0.015615999698638916;0.13176000118255615;1.1233760118484497;-0.8137500286102295;5.053124904632568;43.618751525878906
1330;0.0;0.0;0.0;0.007807999849319458;0.10833600163459778;1.1360639333724976;0.0;0.0;0.0
1332;0.0;0.0;0.0;-0.015615999698638916;0.11614400148391724;1.139967918395996;0.0;0.0;0.0
1334;0.0;0.0;0.0;-0.003903999924659729;0.10833600163459778;1.1721760034561157;0.0;0.0;0.0
1336;-0.12321999669075012;0.24619600176811218;1.0228480100631714;0.011711999773979187;0.10443200170993805;1.1799839735031128;-3.7537498474121094;16.533124923706055;47.46875
1339;0.0;0.0;0.0;-0.003903999924659729;0.12004800140857697;1.2043839693069458;0.0;0.0;0.0
1341;0.0;0.0;0.0;0.003903999924659729;0.13176000118255615;1.1926720142364502;0.0;0.0;0.0
1343;0.0;0.0;0.0;-0.007807999849319458;0.1512800008058548;1.2248799800872803;0.0;0.0;0.0
1345;-0.11467999964952469;0.25742000341415405;1.0743319988250732;0.015615999698638916;0.1239520013332367;1.2492799758911133;-5.853749752044678;26.683124542236328;52.78874969482422
1347;0.0;0.0;0.0;-0.007807999849319458;0.14737600088119507;1.2414720058441162;0.0;0.0;0.0
1349;0.0;0.0;0.0;0.015615999698638916;0.10443200170993805;1.2326879501342773;0.0;0.0;0.0
1351;0.0;0.0;0.0;0.019519999623298645;0.09662400186061859;1.2453759908676147;0.0;0.0;0.0
1353;-0.10345599800348282;0.24887999892234802;1.1121519804000854;0.031231999397277832;0.09662400186061859;1.2570879459381104;-6.973750114440918;32.8431282043457;58.248748779296875
1356;0.0;0.0;0.0;0.07807999849319458;0.13566400110721588;1.2609919309616089;0.0;0.0;0.0
1358;0.0;0.0;0.0;0.04294399917125702;0.1239520013332367;1.28929603099823;0.0;0.0;0.0
1360;0.0;0.0;0.0;-0.011711999773979187;0.1239520013332367;1.3058879375457764;0.0;0.0;0.0
1362;-0.09052399545907974;0.2420479953289032;1.1553399562835693;-0.019519999623298645;0.09272000193595886;1.2980799674987793;-6.553750038146973;35.433128356933594;61.81875228881836
1364;0.0;0.0;0.0;0.007807999849319458;0.10052800178527832;1.3224799633026123;0.0;0.0;0.0
1366;0.0;0.0;0.0;0.015615999698638916;0.10443200170993805;1.3302879333496094;0.0;0.0;0.0
1368;0.0;0.0;0.0;0.04294399917125702;0.09272000193595886;1.3019839525222778;0.0;0.0;0.0
1370;-0.09101200103759766;0.23960798978805542;1.1807159185409546;0.08198399841785431;0.07710400223731995;1.3263839483261108;-3.473749876022339;37.953125;60.41875076293945
1373;0.0;0.0;0.0;0.08198399841785431;0.09272000193595886;1.3468799591064453;0.0;0.0;0.0
1375;0.0;0.0;0.0;0.0936959981918335;0.09662400186061859;1.3302879333496094;0.0;0.0;0.0
1377;0.0;0.0;0.0;0.08198399841785431;0.10833600163459778;1.3420000076293945;0.0;0.0;0.0
1379;-0.03294000029563904;0.22643199563026428;1.193403959274292;0.11321599781513214;0.08881600201129913;1.334191918373108;2.1262500286102295;34.31312561035156;62.65875244140625
1381;0.0;0.0;0.0;0.09759999811649323;0.0849120020866394;1.3712799549102783;0.0;0.0;0.0
1383;0.0;0.0;0.0;0.09759999811649323;0.10833600163459778;1.3420000076293945;0.0;0.0;0.0
1385;0.0;0.0;0.0;0.1210239976644516;0.10833600163459778;1.3507839441299438;0.0;0.0;0.0
1387;-0.013907999731600285;0.2327760010957718;1.2307360172271729;0.12492799758911133;0.10833600163459778;1.3585920333862305;4.856250286102295;28.0831241607666;62.72875213623047
1390;0.0;0.0;0.0;0.14444799721240997;0.12004800140857697;1.3829920291900635;0.0;0.0;0.0
1392;0.0;0.0;0.0;0.15225599706172943;0.08100800216197968;1.386896014213562;0.0;0.0;0.0
1394;0.0;0.0;0.0;0.1668960005044937;0.07710400223731995;1.3986079692840576;0.0;0.0;0.0
1396;0.04270000010728836;0.22448000311851501;1.2517199516296387;0.18641600012779236;0.06148799881339073;1.386896014213562;3.736250162124634;20.31312370300293;61.53874969482422
1398;0.0;0.0;0.0;0.22545599937438965;0.06929600238800049;1.3751839399337769;0.0;0.0;0.0
1400;0.0;0.0;0.0;0.2566879987716675;0.08100800216197968;1.3751839399337769;0.0;0.0;0.0
1402;0.0;0.0;0.0;0.28011199831962585;0.08881600201129913;1.3546879291534424;0.0;0.0;0.0
1404;0.13761599361896515;0.2117919921875;1.2485480308532715;0.2996319830417633;0.0849120020866394;1.3751839399337769;2.546250104904175;13.313125610351562;60.90875244140625
1407;0.0;0.0;0.0;0.31915199756622314;0.07320000231266022;1.3751839399337769;0.0;0.0;0.0
1409;0.0;0.0;0.0;0.350383996963501;0.07710400223731995;1.3546879291534424;0.0;0.0;0.0
1411;0.0;0.0;0.0;0.38942399621009827;0.06148799881339073;1.3751839399337769;0.0;0.0;0.0
1413;0.23545999825000763;0.19715198874473572;1.2370799779891968;0.41967999935150146;0.057583998888731;1.362496018409729;2.896250009536743;13.523125648498535;59.64875030517578
1415;0.0;0.0;0.0;0.43139198422431946;0.06148799881339073;1.370303988456726;0.0;0.0;0.0
1417;0.0;0.0;0.0;0.4470079839229584;0.057583998888731;1.3664000034332275;0.0;0.0;0.0
1419;0.0;0.0;0.0;0.4509119987487793;0.03806399926543236;1.3507839441299438;0.0;0.0;0.0
1421;0.3252519965171814;0.17543599009513855;1.226099967956543;0.47043198347091675;0.018543999642133713;1.3585920333862305;5.696249961853027;19.54312515258789;58.178749084472656
1424;0.0;0.0;0.0;0.4665279984474182;0.03806399926543236;1.3664000034332275;0.0;0.0;0.0
1426;0.0;0.0;0.0;0.4938559830188751;-0.0009759999811649323;1.3664000034332275;0.0;0.0;0.0
1428;0.0;0.0;0.0;0.4782399833202362;0.014639999717473984;1.3829920291900635;0.0;0.0;0.0
1430;0.3635599911212921;0.1525000035762787;1.2456200122833252;0.48214399814605713;0.0029279999434947968;1.3907999992370605;9.336249351501465;26.263124465942383;56.28874969482422
1432;0.0;0.0;0.0;0.45871999859809875;0.0029279999434947968;1.386896014213562;0.0;0.0;0.0
1434;0.0;0.0;0.0;0.45481598377227783;-0.0009759999811649323;1.362496018409729;0.0;0.0;0.0
1436;0.0;0.0;0.0;0.45871999859809875;-0.00878399983048439;1.386896014213562;0.0;0.0;0.0
1438;0.3428199887275696;0.14176400005817413;1.248304009437561;0.4509119987487793;0.018543999642133713;1.386896014213562;12.3462495803833;29.203125;53.69874954223633
1441;0.0;0.0;0.0;0.44310399889945984;0.014639999717473984;1.386896014213562;0.0;0.0;0.0
1443;0.0;0.0;0.0;0.4626239836215973;0.0302559994161129;1.3585920333862305;0.0;0.0;0.0
1445;0.0;0.0;0.0;0.4391999840736389;0.0029279999434947968;1.3585920333862305;0.0;0.0;0.0
1447;0.3337920010089874;0.1471319943666458;1.2370799779891968;0.45871999859809875;-0.01268799975514412;1.3263839483261108;15.706249237060547;27.31312370300293;50.05875015258789
1449;0.0;0.0;0.0;0.4509119987487793;0.022447999566793442;1.338096022605896;0.0;0.0;0.0
1451;0.0;0.0;0.0;0.4665279984474182;0.006831999868154526;1.2941759824752808;0.0;0.0;0.0
1453;0.0;0.0;0.0;0.4782399833202362;0.0302559994161129;1.3058879375457764;0.0;0.0;0.0
1455;0.34233200550079346;0.1471319943666458;1.1846200227737427;0.48604798316955566;0.02635199949145317;1.2775839567184448;18.576250076293945;25.003124237060547;45.928749084472656
1458;0.0;0.0;0.0;0.47433599829673767;-0.0009759999811649323;1.28929603099823;0.0;0.0;0.0
1460;0.0;0.0;0.0;0.41577598452568054;0.045871999114751816;1.2658720016479492;0.0;0.0;0.0
1462;0.0;0.0;0.0;0.4665279984474182;0.018543999642133713;1.2326879501342773;0.0;0.0;0.0
1464;0.342087984085083;0.14298400282859802;1.1360639333724976;0.4626239836215973;-0.01268799975514412;1.2414720058441162;21.516250610351562;25.703125;41.51874923706055
1466;0.0;0.0;0.0;0.423583984375;0.022447999566793442;1.2609919309616089;0.0;0.0;0.0
1468;0.0;0.0;0.0;0.44310399889945984;0.022447999566793442;1.2170720100402832;0.0;0.0;0.0
1470;0.0;0.0;0.0;0.4782399833202362;0.022447999566793442;1.2082879543304443;0.0;0.0;0.0
1472;0.3337920010089874;0.16152799129486084;1.0906800031661987;0.4509119987487793;0.04196799919009209;1.1838879585266113;23.33625030517578;25.423124313354492;37.248748779296875
1475;0.0;0.0;0.0;0.4509119987487793;0.045871999114751816;1.1643680334091187;0.0;0.0;0.0
1477;0.0;0.0;0.0;0.411871999502182;0.057583998888731;1.1555839776992798;0.0;0.0;0.0
1479;0.0;0.0;0.0;0.38844799995422363;0.014639999717473984;1.1477760076522827;0.0;0.0;0.0
1481;0.3050000071525574;0.16372399032115936;1.0396839380264282;0.4079679846763611;0.04196799919009209;1.1311839818954468;23.61625099182129;25.77312469482422;33.9587516784668
1483;0.0;0.0;0.0;0.411871999502182;0.04196799919009209;1.1477760076522827;0.0;0.0;0.0
1485;0.0;0.0;0.0;0.41577598452568054;0.0302559994161129;1.1272799968719482;0.0;0.0;0.0
1487;0.0;0.0;0.0;0.38942399621009827;0.053679998964071274;1.115567922592163;0.0;0.0;0.0
1489;0.2920680046081543;0.17592400312423706;0.9955199956893921;0.3972319960594177;0.04196799919009209;1.115567922592163;23.61625099182129;26.683124542236328;30.598751068115234
1492;0.0;0.0;0.0;0.3972319960594177;-0.01268799975514412;1.1028800010681152;0.0;0.0;0.0
1494;0.0;0.0;0.0;0.3659999966621399;0.049775999039411545;1.115567922592163;0.0;0.0;0.0
1496;0.0;0.0;0.0;0.38551998138427734;0.010735999792814255;1.1194720268249512;0.0;0.0;0.0
1498;0.26205599308013916;0.158843994140625;0.985759973526001;0.36209598183631897;0.03415999934077263;1.1350879669189453;21.446250915527344;26.053125381469727;27.868749618530273
1500;0.0;0.0;0.0;0.38942399621009827;0.006831999868154526;1.0989760160446167;0.0;0.0;0.0
1502;0.0;0.0;0.0;0.38551998138427734;-0.004879999905824661;1.115567922592163;0.0;0.0;0.0
1504;0.0;0.0;0.0;0.35819199681282043;0.010735999792814255;1.1360639333724976;0.0;0.0;0.0
1506;0.24863599240779877;0.12931999564170837;0.985759973526001;0.350383996963501;-0.020495999604463577;1.1067839860916138;17.45625114440918;22.8331241607666;26.60875129699707
1509;0.0;0.0;0.0;0.3542879819869995;0.006831999868154526;1.0950720310211182;0.0;0.0;0.0
1511;0.0;0.0;0.0;0.3542879819869995;-0.01268799975514412;1.1067839860916138;0.0;0.0;0.0
1513;0.0;0.0;0.0;0.3659999966621399;-0.028303999453783035;1.0872639417648315;0.0;0.0;0.0
1515;0.22203999757766724;0.10979999601840973;0.9657520055770874;0.33476799726486206;-0.032207999378442764;1.0706720352172852;13.466249465942383;17.373125076293945;25.418750762939453
1517;0.0;0.0;0.0;0.3269599974155426;-0.028303999453783035;1.0745760202407837;0.0;0.0;0.0
1519;0.0;0.0;0.0;0.3972319960594177;-0.04001599922776222;1.042367935180664;0.0;0.0;0.0
1521;0.0;0.0;0.0;0.3972319960594177;-0.04391999915242195;1.0384639501571655;0.0;0.0;0.0
1523;0.24155999720096588;0.09345199912786484;0.9281759858131409;0.4089439809322357;-0.04391999915242195;1.017967939376831;13.046249389648438;17.233123779296875;24.0887508392334
1526;0.0;0.0;0.0;0.3425759971141815;-0.0634399950504303;1.017967939376831;0.0;0.0;0.0
1528;0.0;0.0;0.0;0.3659999966621399;-0.03611199930310249;1.0257760286331177;0.0;0.0;0.0
1530;0.0;0.0;0.0;0.3816159963607788;-0.05953599885106087;1.010159969329834;0.0;0.0;0.0
1532;0.2601040005683899;0.07759200036525726;0.8942599892616272;0.41284799575805664;-0.06734399497509003;1.0013760328292847;15.286250114440918;20.52312469482422;24.438751220703125
1534;0.0;0.0;0.0;0.4391999840736389;-0.04782399907708168;0.9974719882011414;0.0;0.0;0.0
1536;0.0;0.0;0.0;0.4470079839229584;-0.07515199482440948;1.0218719244003296;0.0;0.0;0.0
1538;0.0;0.0;0.0;0.4352959990501404;-0.05563199892640114;0.9896639585494995;0.0;0.0;0.0
1540;0.31378400325775146;0.0756400004029274;0.8779119849205017;0.4391999840736389;-0.10247999429702759;1.0062559843063354;17.176250457763672;25.213125228881836;25.488750457763672
1543;0.0;0.0;0.0;0.423583984375;-0.05172799900174141;1.010159969329834;0.0;0.0;0.0
1545;0.0;0.0;0.0;0.41577598452568054;-0.06734399497509003;0.9935680031776428;0.0;0.0;0.0
1547;0.0;0.0;0.0;0.4079679846763611;-0.0634399950504303;0.985759973526001;0.0;0.0;0.0
1549;0.3118319809436798;0.05807200074195862;0.8832799792289734;0.4352959990501404;-0.11028799414634705;1.0062559843063354;15.286250114440918;29.553125381469727;24.71875
1551;0.0;0.0;0.0;0.41967999935150146;-0.07905599474906921;1.0306559801101685;0.0;0.0;0.0
1553;0.0;0.0;0.0;0.44310399889945984;-0.09857599437236786;1.0052800178527832;0.0;0.0;0.0
1555;0.0;0.0;0.0;0.45871999859809875;-0.1298079937696457;1.010159969329834;0.0;0.0;0.0
1558;0.313539981842041;0.0424560010433197;0.8747400045394897;0.44017598032951355;-0.11028799414634705;0.9935680031776428;10.946249961853027;32.423126220703125;20.658750534057617
1560;0.0;0.0;0.0;0.47433599829673767;-0.13761599361896515;0.9896639585494995;0.0;0.0;0.0
1562;0.0;0.0;0.0;0.423583984375;-0.10638399422168732;0.9935680031776428;0.0;0.0;0.0
1564;0.0;0.0;0.0;0.423583984375;-0.1298079937696457;0.9574559926986694;0.0;0.0;0.0
1566;0.3030479848384857;0.018055999651551247;0.8657119870185852;0.3777119815349579;-0.0907679945230484;0.9974719882011414;7.586250305175781;33.05312728881836;15.898750305175781
1568;0.0;0.0;0.0;0.3933279812335968;-0.08686399459838867;1.0140639543533325;0.0;0.0;0.0
1570;0.0;0.0;0.0;0.3699039816856384;-0.1180959939956665;1.034559965133667;0.0;0.0;0.0
1572;0.0;0.0;0.0;0.37380799651145935;-0.11028799414634705;1.0745760202407837;0.0;0.0;0.0
1574;0.26327598094940186;0.024399999529123306;0.8971880078315735;0.38942399621009827;-0.1571359932422638;1.034559965133667;4.576250076293945;31.513124465942383;10.648750305175781
1577;0.0;0.0;0.0;0.38551998138427734;-0.17665599286556244;1.0218719244003296;0.0;0.0;0.0
1579;0.0;0.0;0.0;0.38551998138427734;-0.1571359932422638;1.0296800136566162;0.0;0.0;0.0
1581;0.0;0.0;0.0;0.3699039816856384;-0.18836799263954163;1.034559965133667;0.0;0.0;0.0
1583;0.26083600521087646;-0.04123599827289581;0.9086560010910034;0.35819199681282043;-0.20788799226284027;1.0501760244369507;1.6362500190734863;29.13312530517578;6.658750057220459
1585;0.0;0.0;0.0;0.3777119815349579;-0.19617599248886108;1.0745760202407837;0.0;0.0;0.0
1587;0.0;0.0;0.0;0.33476799726486206;-0.2547360062599182;1.0784800052642822;0.0;0.0;0.0
1589;0.0;0.0;0.0;0.3230559825897217;-0.2391199916601181;1.0950720310211182;0.0;0.0;0.0
1592;0.2252119928598404;-0.0954039990901947;0.9469639658927917;0.3230559825897217;-0.2664479911327362;1.0872639417648315;-0.4637500047683716;25.423124313354492;4.838749885559082
1594;0.0;0.0;0.0;0.2996319830417633;-0.27035200595855713;1.0950720310211182;0.0;0.0;0.0
1596;0.0;0.0;0.0;0.31915199756622314;-0.3093920052051544;1.0872639417648315;0.0;0.0;0.0
1598;0.0;0.0;0.0;0.33476799726486206;-0.2547360062599182;1.1194720268249512;0.0;0.0;0.0
1600;0.20349599421024323;-0.1483519971370697;0.9745360016822815;0.34647998213768005;-0.2781600058078766;1.115567922592163;0.8662499785423279;17.723125457763672;3.088750123977661
1602;0.0;0.0;0.0;0.350383996963501;-0.26254400610923767;1.1311839818954468;0.0;0.0;0.0
1604;0.0;0.0;0.0;0.3425759971141815;-0.2820639908313751;1.1272799968719482;0.0;0.0;0.0
1606;0.0;0.0;0.0;0.3113439977169037;-0.28596800565719604;1.1116639375686646;0.0;0.0;0.0
1609;0.20861999690532684;-0.15518400073051453;0.9913719892501831;0.3113439977169037;-0.3054879903793335;1.1067839860916138;5.066249847412109;6.17312479019165;4.908750057220459
1611;0.0;0.0;0.0;0.33086398243904114;-0.31329599022865295;1.0823839902877808;0.0;0.0;0.0
1613;0.0;0.0;0.0;0.3269599974155426;-0.3211039900779724;1.0745760202407837;0.0;0.0;0.0
1615;0.0;0.0;0.0;0.3425759971141815;-0.2508319914340973;1.1067839860916138;0.0;0.0;0.0
1617;0.22130799293518066;-0.17470400035381317;0.9557479619979858;0.41577598452568054;-0.32500800490379333;1.0296800136566162;9.196249961853027;-0.7568749785423279;2.3887500762939453
1619;0.0;0.0;0.0;0.3777119815349579;-0.3328160047531128;1.0501760244369507;0.0;0.0;0.0
1621;0.0;0.0;0.0;0.36209598183631897;-0.3484320044517517;1.0384639501571655;0.0;0.0;0.0
1623;0.0;0.0;0.0;0.423583984375;-0.35624000430107117;1.0218719244003296;0.0;0.0;0.0
1626;0.27035200595855713;-0.2030079960823059;0.9088999629020691;0.41284799575805664;-0.3093920052051544;1.034559965133667;12.766249656677246;-2.6468751430511475;0.42875000834465027
1628;0.0;0.0;0.0;0.3933279812335968;-0.30158400535583496;1.034559965133667;0.0;0.0;0.0
1630;0.0;0.0;0.0;0.37380799651145935;-0.31329599022865295;1.0540800094604492;0.0;0.0;0.0
1632;0.0;0.0;0.0;0.3542879819869995;-0.3054879903793335;1.042367935180664;0.0;0.0;0.0
1634;0.26498398184776306;-0.18397599458694458;0.9108519554138184;0.3542879819869995;-0.3054879903793335;1.0462720394134521;15.356249809265137;-2.296875;-0.4112499952316284
1636;0.0;0.0;0.0;0.3386719822883606;-0.31329599022865295;1.0589599609375;0.0;0.0;0.0
1638;0.0;0.0;0.0;0.350383996963501;-0.3172000050544739;1.034559965133667;0.0;0.0;0.0
1640;0.0;0.0;0.0;0.30353599786758423;-0.3054879903793335;1.0296800136566162;0.0;0.0;0.0
1643;0.20203199982643127;-0.18422000110149384;0.9023119807243347;0.3386719822883606;-0.31329599022865295;1.0257760286331177;14.866250038146973;-4.536875247955322;-1.6012499332427979
1645;0.0;0.0;0.0;0.33476799726486206;-0.34062400460243225;0.9935680031776428;0.0;0.0;0.0
1647;0.0;0.0;0.0;0.34647998213768005;-0.3484320044517517;0.9974719882011414;0.0;0.0;0.0
1649;0.0;0.0;0.0;0.3542879819869995;-0.34062400460243225;0.985759973526001;0.0;0.0;0.0
1651;0.2117919921875;-0.20617999136447906;0.8640039563179016;0.3425759971141815;-0.33671998977661133;0.9730719923973083;13.326250076293945;-9.506875038146973;-3.4912500381469727
1653;0.0;0.0;0.0;0.3386719822883606;-0.36795198917388916;1.0013760328292847;0.0;0.0;0.0
1655;0.0;0.0;0.0;0.35819199681282043;-0.3718560039997101;0.9935680031776428;0.0;0.0;0.0
1657;0.0;0.0;0.0;0.350383996963501;-0.3601439893245697;0.9935680031776428;0.0;0.0;0.0
1660;0.2198439985513687;-0.23082399368286133;0.8635159730911255;0.3542879819869995;-0.4030880033969879;0.9935680031776428;11.926249504089355;-14.616874694824219;-5.171250343322754
1662;0.0;0.0;0.0;0.3425759971141815;-0.3835679888725281;1.0140639543533325;0.0;0.0;0.0
1664;0.0;0.0;0.0;0.33086398243904114;-0.3601439893245697;1.0013760328292847;0.0;0.0;0.0
1666;0.0;0.0;0.0;0.33476799726486206;-0.39528000354766846;0.9769759774208069;0.0;0.0;0.0
1668;0.2071560025215149;-0.25156399607658386;0.8710799813270569;0.3113439977169037;-0.39528000354766846;0.9896639585494995;9.056249618530273;-21.126874923706055;-8.741250038146973
1670;0.0;0.0;0.0;0.3230559825897217;-0.37966400384902954;0.9730719923973083;0.0;0.0;0.0
1672;0.0;0.0;0.0;0.29572799801826477;-0.4030880033969879;0.9769759774208069;0.0;0.0;0.0
1674;0.0;0.0;0.0;0.2996319830417633;-0.4030880033969879;0.9652639627456665;0.0;0.0;0.0
1677;0.1903200000524521;-0.2618120014667511;0.8503400087356567;0.3152479827404022;-0.387472003698349;0.9818559885025024;7.166250228881836;-30.016876220703125;-12.171249389648438
1679;0.0;0.0;0.0;0.29572799801826477;-0.40699198842048645;0.9486719965934753;0.0;0.0;0.0
1681;0.0;0.0;0.0;0.31915199756622314;-0.4108960032463074;0.944767951965332;0.0;0.0;0.0
1683;0.0;0.0;0.0;0.3425759971141815;-0.399183988571167;0.944767951965332;0.0;0.0;0.0
1685;0.1983719915151596;-0.2701079845428467;0.8234999775886536;0.3425759971141815;-0.399183988571167;0.9330559968948364;6.606250286102295;-37.15687561035156;-16.1612491607666
1687;0.0;0.0;0.0;0.3542879819869995;-0.44993600249290466;0.944767951965332;0.0;0.0;0.0
1689;0.0;0.0;0.0;0.3230559825897217;-0.4304159879684448;0.9574559926986694;0.0;0.0;0.0
1691;0.0;0.0;0.0;0.30743998289108276;-0.4577440023422241;0.9408639669418335;0.0;0.0;0.0
1694;0.20935200154781342;-0.29938799142837524;0.8098359704017639;0.30743998289108276;-0.4304159879684448;0.9242720007896423;5.976250171661377;-38.90687561035156;-18.681249618530273
1696;0.0;0.0;0.0;0.29182398319244385;-0.44603198766708374;0.9330559968948364;0.0;0.0;0.0
1698;0.0;0.0;0.0;0.2879199981689453;-0.4577440023422241;0.9408639669418335;0.0;0.0;0.0
1700;0.0;0.0;0.0;0.31915199756622314;-0.4538399875164032;0.9408639669418335;0.0;0.0;0.0
1702;0.18861199915409088;-0.3142719864845276;0.8215479850769043;0.3113439977169037;-0.44603198766708374;0.9652639627456665;3.4562501907348633;-39.11687469482422;-21.831249237060547
1704;0.0;0.0;0.0;0.34647998213768005;-0.4382239878177643;0.9486719965934753;0.0;0.0;0.0
1706;0.0;0.0;0.0;0.3152479827404022;-0.47336000204086304;0.9574559926986694;0.0;0.0;0.0
1708;0.0;0.0;0.0;0.3269599974155426;-0.4655520021915436;0.944767951965332;0.0;0.0;0.0
1711;0.19739599525928497;-0.3181760013103485;0.8210600018501282;0.3152479827404022;-0.46164798736572266;0.9330559968948364;0.7262499928474426;-36.87687301635742;-25.331249237060547
1713;0.0;0.0;0.0;0.3230559825897217;-0.48897600173950195;0.936959981918335;0.0;0.0;0.0
1715;0.0;0.0;0.0;0.31915199756622314;-0.4538399875164032;0.9535520076751709;0.0;0.0;0.0
1717;0.0;0.0;0.0;0.3269599974155426;-0.46164798736572266;0.944767951965332;0.0;0.0;0.0
1719;0.19568799436092377;-0.333547979593277;0.8117879629135132;0.3425759971141815;-0.4811680018901825;0.9408639669418335;-0.2537499964237213;-32.95687484741211;-29.041250228881836
1721;0.0;0.0;0.0;0.33086398243904114;-0.4577440023422241;0.9330559968948364;0.0;0.0;0.0
1723;0.0;0.0;0.0;0.3386719822883606;-0.47336000204086304;0.9574559926986694;0.0;0.0;0.0
1726;0.0;0.0;0.0;0.33086398243904114;-0.4928799867630005;0.9574559926986694;0.0;0.0;0.0
1728;0.2088640034198761;-0.342087984085083;0.8220359683036804;0.36209598183631897;-0.47336000204086304;0.9535520076751709;-0.8137500286102295;-26.796875;-32.96125030517578
1730;0.0;0.0;0.0;0.3425759971141815;-0.5006880164146423;0.961359977722168;0.0;0.0;0.0
1732;0.0;0.0;0.0;0.3152479827404022;-0.5241119861602783;0.9896639585494995;0.0;0.0;0.0
1734;0.0;0.0;0.0;0.2996319830417633;-0.5397279858589172;0.9574559926986694;0.0;0.0;0.0
1736;0.19910399615764618;-0.3803959786891937;0.8420439958572388;0.28011199831962585;-0.5358240008354187;0.9896639585494995;-2.773750066757202;-20.84687614440918;-35.62125015258789
1738;0.0;0.0;0.0;0.22935999929904938;-0.5163040161132812;0.9974719882011414;0.0;0.0;0.0
1740;0.0;0.0;0.0;0.24887999892234802;-0.5280159711837769;0.9896639585494995;0.0;0.0;0.0
1742;0.0;0.0;0.0;0.24107199907302856;-0.5084959864616394;1.0052800178527832;0.0;0.0;0.0
1745;0.13566400110721588;-0.3899119794368744;0.8627839684486389;0.3425759971141815;-0.5397279858589172;0.985759973526001;-5.083749771118164;-14.196874618530273;-41.151248931884766
1747;0.0;0.0;0.0;0.3425759971141815;-0.5241119861602783;1.0013760328292847;0.0;0.0;0.0
1749;0.0;0.0;0.0;0.28011199831962585;-0.5163040161132812;1.0140639543533325;0.0;0.0;0.0
1751;0.0;0.0;0.0;0.2683999836444855;-0.5358240008354187;1.0013760328292847;0.0;0.0;0.0
1753;0.16323599219322205;-0.40748000144958496;0.8657119870185852;0.20203199982643127;-0.5319200158119202;0.9769759774208069;-4.453750133514404;-7.196875095367432;-43.0412483215332
1755;0.0;0.0;0.0;0.1756799966096878;-0.5436319708824158;0.9974719882011414;0.0;0.0;0.0
1757;0.0;0.0;0.0;0.1600639969110489;-0.5319200158119202;0.9935680031776428;0.0;0.0;0.0
1759;0.0;0.0;0.0;0.1903200000524521;-0.5748639702796936;0.9974719882011414;0.0;0.0;0.0
1762;0.060999996960163116;-0.42089998722076416;0.8698599934577942;0.15518400073051453;-0.5904799699783325;0.9974719882011414;-3.1937499046325684;0.6431249976158142;-47.45124816894531
1764;0.0;0.0;0.0;0.12492799758911133;-0.5241119861602783;1.0218719244003296;0.0;0.0;0.0
1766;0.0;0.0;0.0;0.08588799834251404;-0.5436319708824158;1.010159969329834;0.0;0.0;0.0
1768;0.0;0.0;0.0;0.09759999811649323;-0.5514400005340576;1.017967939376831;0.0;0.0;0.0
1770;-0.007807999849319458;-0.41333597898483276;0.8879159688949585;0.07807999849319458;-0.5319200158119202;1.017967939376831;-3.333750009536743;3.7931249141693115;-50.811248779296875
1772;0.0;0.0;0.0;0.08979199826717377;-0.5241119861602783;1.0052800178527832;0.0;0.0;0.0
1774;0.0;0.0;0.0;0.054655998945236206;-0.5280159711837769;1.017967939376831;0.0;0.0;0.0
1777;0.0;0.0;0.0;0.05075199902057648;-0.5358240008354187;1.0052800178527832;0.0;0.0;0.0
1779;-0.06563600152730942;-0.39771997928619385;0.8783999681472778;-0.011711999773979187;-0.5084959864616394;1.0013760328292847;-4.383749961853027;4.633124828338623;-52.70124816894531
1781;0.0;0.0;0.0;-0.007807999849319458;-0.4928799867630005;1.017967939376831;0.0;0.0;0.0
1783;0.0;0.0;0.0;-0.007807999849319458;-0.5202080011367798;1.0052800178527832;0.0;0.0;0.0
1785;0.0;0.0;0.0;0.007807999849319458;-0.5280159711837769;1.0218719244003296;0.0;0.0;0.0
1787;-0.12761199474334717;-0.3823480010032654;0.8842560052871704;-0.015615999698638916;-0.5163040161132812;1.0306559801101685;-5.223750114440918;7.92312479019165;-55.36125183105469
1789;0.0;0.0;0.0;-0.09272000193595886;-0.4928799867630005;1.0540800094604492;0.0;0.0;0.0
1791;0.0;0.0;0.0;-0.062463998794555664;-0.5241119861602783;1.0462720394134521;0.0;0.0;0.0
1794;0.0;0.0;0.0;-0.12785600125789642;-0.5280159711837769;1.0706720352172852;0.0;0.0;0.0
1796;-0.20642399787902832;-0.3845439851284027;0.9191479682922363;-0.11614400148391724;-0.5163040161132812;1.0745760202407837;-6.413750171661377;8.273125648498535;-55.571250915527344
1798;0.0;0.0;0.0;-0.1239520013332367;-0.5397279858589172;1.0540800094604492;0.0;0.0;0.0
1800;0.0;0.0;0.0;-0.16299200057983398;-0.5241119861602783;1.0989760160446167;0.0;0.0;0.0
1802;0.0;0.0;0.0;-0.1512800008058548;-0.5202080011367798;1.1028800010681152;0.0;0.0;0.0
1804;-0.2576639950275421;-0.387472003698349;0.9474520087242126;-0.15518400073051453;-0.5084959864616394;1.1028800010681152;-9.143750190734863;7.083125114440918;-56.76124954223633
1806;0.0;0.0;0.0;-0.19422399997711182;-0.48897600173950195;1.1067839860916138;0.0;0.0;0.0
1808;0.0;0.0;0.0;-0.22935999929904938;-0.4928799867630005;1.1311839818954468;0.0;0.0;0.0
1811;0.0;0.0;0.0;-0.24107199907302856;-0.5006880164146423;1.1350879669189453;0.0;0.0;0.0
1813;-0.33842799067497253;-0.3740519881248474;0.9928359985351562;-0.2449759989976883;-0.5123999714851379;1.139967918395996;-12.503750801086426;4.563125133514404;-58.30125045776367
1815;0.0;0.0;0.0;-0.23716799914836884;-0.5358240008354187;1.1477760076522827;0.0;0.0;0.0
1817;0.0;0.0;0.0;-0.23716799914836884;-0.5475360155105591;1.1477760076522827;0.0;0.0;0.0
1819;0.0;0.0;0.0;-0.2566879987716675;-0.5202080011367798;1.1555839776992798;0.0;0.0;0.0
1821;-0.3681959807872772;-0.3911319971084595;1.017967939376831;-0.2879199981689453;-0.5280159711837769;1.1516799926757812;-14.953750610351562;-0.05687499791383743;-57.67124938964844
1823;0.0;0.0;0.0;-0.29572799801826477;-0.5241119861602783;1.1799839735031128;0.0;0.0;0.0
1825;0.0;0.0;0.0;-0.3113439977169037;-0.5280159711837769;1.1838879585266113;0.0;0.0;0.0
1828;0.0;0.0;0.0;-0.3269599974155426;-0.5280159711837769;1.1760799884796143;0.0;0.0;0.0
1830;-0.43773600459098816;-0.39528000354766846;1.046515941619873;-0.38844799995422363;-0.5241119861602783;1.1965759992599487;-14.883750915527344;-1.736875057220459;-54.661251068115234
1832;0.0;0.0;0.0;-0.3337920010089874;-0.5084959864616394;1.2121919393539429;0.0;0.0;0.0
1834;0.0;0.0;0.0;-0.3728320002555847;-0.5436319708824158;1.2082879543304443;0.0;0.0;0.0
1836;0.0;0.0;0.0;-0.38844799995422363;-0.5358240008354187;1.2365919351577759;0.0;0.0;0.0
1838;-0.5028839707374573;-0.3962559998035431;1.0892159938812256;-0.40406399965286255;-0.5319200158119202;1.2004799842834473;-13.763750076293945;-2.0168750286102295;-51.44124984741211
1840;0.0;0.0;0.0;-0.3533119857311249;-0.5475360155105591;1.2453759908676147;0.0;0.0;0.0
1842;0.0;0.0;0.0;-0.3845439851284027;-0.5553439855575562;1.2121919393539429;0.0;0.0;0.0
1845;0.0;0.0;0.0;-0.36502400040626526;-0.5514400005340576;1.2121919393539429;0.0;0.0;0.0
1847;-0.4999559819698334;-0.41919198632240295;1.0887279510498047;-0.40406399965286255;-0.5592479705810547;1.1799839735031128;-9.423750877380371;-1.8768750429153442;-45.491249084472656
1849;0.0;0.0;0.0;-0.37673598527908325;-0.5241119861602783;1.1887680292129517;0.0;0.0;0.0
1851;0.0;0.0;0.0;-0.3455039858818054;-0.5163040161132812;1.1926720142364502;0.0;0.0;0.0
1853;0.0;0.0;0.0;-0.3230559825897217;-0.5084959864616394;1.1926720142364502;0.0;0.0;0.0
1855;-0.48555999994277954;-0.39137598872184753;1.0704280138015747;-0.37673598527908325;-0.5045920014381409;1.2082879543304443;-2.703749895095825;1.763124942779541;-38.561248779296875
1857;0.0;0.0;0.0;-0.3689279854297638;-0.4928799867630005;1.1887680292129517;0.0;0.0;0.0
1859;0.0;0.0;0.0;-0.3689279854297638;-0.48507198691368103;1.1643680334091187;0.0;0.0;0.0
1862;0.0;0.0;0.0;-0.34647998213768005;-0.5045920014381409;1.1721760034561157;0.0;0.0;0.0
1864;-0.4794600009918213;-0.3525799810886383;1.0394400358200073;-0.36502400040626526;-0.5006880164146423;1.1682720184326172;3.1762499809265137;8.623125076293945;-32.5412483215332
1866;0.0;0.0;0.0;-0.3542879819869995;-0.4577440023422241;1.1477760076522827;0.0;0.0;0.0
1868;0.0;0.0;0.0;-0.3845439851284027;-0.4147999882698059;1.1516799926757812;0.0;0.0;0.0
1870;0.0;0.0;0.0;-0.3728320002555847;-0.4265120029449463;1.1272799968719482;0.0;0.0;0.0
1872;-0.49361199140548706;-0.31207600235939026;1.0133320093154907;-0.36502400040626526;-0.41870400309562683;1.1438720226287842;6.18625020980835;13.663125038146973;-27.991249084472656
1874;0.0;0.0;0.0;-0.3533119857311249;-0.4421280026435852;1.139967918395996;0.0;0.0;0.0
1876;0.0;0.0;0.0;-0.37673598527908325;-0.41870400309562683;1.1311839818954468;0.0;0.0;0.0
1879;0.0;0.0;0.0;-0.38844799995422363;-0.4030880033969879;1.115567922592163;0.0;0.0;0.0
1881;-0.4967840015888214;-0.2823079824447632;0.9891759753227234;-0.3845439851284027;-0.4147999882698059;1.1028800010681152;5.626250267028809;15.133125305175781;-24.841249465942383
1883;0.0;0.0;0.0;-0.4001599848270416;-0.4304159879684448;1.1116639375686646;0.0;0.0;0.0
1885;0.0;0.0;0.0;-0.36502400040626526;-0.4538399875164032;1.0989760160446167;0.0;0.0;0.0
1887;0.0;0.0;0.0;-0.411871999502182;-0.44603198766708374;1.1194720268249512;0.0;0.0;0.0
1889;-0.5180119872093201;-0.30158400535583496;0.9762439727783203;-0.4391999840736389;-0.4265120029449463;1.1116639375686646;1.3562500476837158;14.503125190734863;-23.1612491607666
1891;0.0;0.0;0.0;-0.41577598452568054;-0.4382239878177643;1.0989760160446167;0.0;0.0;0.0
1893;0.0;0.0;0.0;-0.39235198497772217;-0.46164798736572266;1.09116792678833;0.0;0.0;0.0
1896;0.0;0.0;0.0;-0.3572160005569458;-0.4265120029449463;1.0950720310211182;0.0;0.0;0.0
1898;-0.5080080032348633;-0.3108559846878052;0.9777079820632935;-0.350383996963501;-0.4772639870643616;1.0989760160446167;-3.8237500190734863;10.373125076293945;-19.87125015258789
1900;0.0;0.0;0.0;-0.4079679846763611;-0.43432000279426575;1.1028800010681152;0.0;0.0;0.0
1902;0.0;0.0;0.0;-0.36111998558044434;-0.4694559872150421;1.083359956741333;0.0;0.0;0.0
1904;0.0;0.0;0.0;-0.3455039858818054;-0.44603198766708374;1.0950720310211182;0.0;0.0;0.0
1906;-0.48921999335289;-0.32598400115966797;0.9635559916496277;-0.33476799726486206;-0.44993600249290466;1.0706720352172852;-8.233750343322754;3.7931249141693115;-14.411250114440918
1908;0.0;0.0;0.0;-0.30743998289108276;-0.44993600249290466;1.0589599609375;0.0;0.0;0.0
1910;0.0;0.0;0.0;-0.2840159833431244;-0.4304159879684448;1.0589599609375;0.0;0.0;0.0
1913;0.0;0.0;0.0;-0.2566879987716675;-0.44603198766708374;1.0540800094604492;0.0;0.0;0.0
1915;-0.4177280068397522;-0.3269599974155426;0.9398880004882812;-0.25278398394584656;-0.43432000279426575;1.0823839902877808;-11.803750038146973;-1.0368750095367432;-11.4712495803833
1917;0.0;0.0;0.0;-0.24107199907302856;-0.4538399875164032;1.0823839902877808;0.0;0.0;0.0
1919;0.0;0.0;0.0;-0.24107199907302856;-0.44603198766708374;1.066767930984497;0.0;0.0;0.0
1921;0.0;0.0;0.0;-0.16299200057983398;-0.44993600249290466;1.0872639417648315;0.0;0.0;0.0
1923;-0.3357439935207367;-0.3215920031070709;0.9479399919509888;-0.19812799990177155;-0.44993600249290466;1.0706720352172852;-14.323750495910645;-2.786875009536743;-9.511249542236328
1925;0.0;0.0;0.0;-0.18251200020313263;-0.47336000204086304;1.0950720310211182;0.0;0.0;0.0
1927;0.0;0.0;0.0;-0.16299200057983398;-0.4772639870643616;1.0950720310211182;0.0;0.0;0.0
1930;0.0;0.0;0.0;-0.18641600012779236;-0.4577440023422241;1.0823839902877808;0.0;0.0;0.0
1932;-0.2991439998149872;-0.3276920020580292;0.9589200019836426;-0.1239520013332367;-0.46164798736572266;1.0950720310211182;-15.723750114440918;-2.5768749713897705;-9.651249885559082
1934;0.0;0.0;0.0;-0.1395680010318756;-0.46164798736572266;1.0989760160446167;0.0;0.0;0.0
1936;0.0;0.0;0.0;-0.14737600088119507;-0.46164798736572266;1.09116792678833;0.0;0.0;0.0
1938;0.0;0.0;0.0;-0.14737600088119507;-0.4811680018901825;1.1233760118484497;0.0;0.0;0.0
1940;-0.2698639929294586;-0.3362320065498352;0.9750239849090576;-0.13566400110721588;-0.46164798736572266;1.1067839860916138;-14.953750610351562;-4.116875171661377;-11.821249961853027
1942;0.0;0.0;0.0;-0.10052800178527832;-0.46164798736572266;1.1233760118484497;0.0;0.0;0.0
1945;0.0;0.0;0.0;-0.13566400110721588;-0.4811680018901825;1.1106879711151123;0.0;0.0;0.0
1947;0.0;0.0;0.0;-0.12785600125789642;-0.47336000204086304;1.1233760118484497;0.0;0.0;0.0
1949;-0.2564440071582794;-0.3333039879798889;0.9845399856567383;-0.13176000118255615;-0.44993600249290466;1.107759952545166;-11.453750610351562;-7.686874866485596;-14.69124984741211
1951;0.0;0.0;0.0;-0.11614400148391724;-0.47336000204086304;1.1438720226287842;0.0;0.0;0.0
1953;0.0;0.0;0.0;-0.11614400148391724;-0.4421280026435852;1.1272799968719482;0.0;0.0;0.0
1955;0.0;0.0;0.0;-0.1239520013332367;-0.47336000204086304;1.0989760160446167;0.0;0.0;0.0
1957;-0.24595199525356293;-0.3257399797439575;0.9930799603462219;-0.14347200095653534;-0.44993600249290466;1.1028800010681152;-5.923749923706055;-10.696874618530273;-17.491249084472656
1960;0.0;0.0;0.0;-0.10052800178527832;-0.44993600249290466;1.1028800010681152;0.0;0.0;0.0
1962;0.0;0.0;0.0;-0.08979199826717377;-0.4382239878177643;1.1233760118484497;0.0;0.0;0.0
1964;0.0;0.0;0.0;-0.11224000155925751;-0.44993600249290466;1.1067839860916138;0.0;0.0;0.0
1966;-0.2286279946565628;-0.3076840043067932;0.9869799613952637;-0.11224000155925751;-0.4147999882698059;1.1116639375686646;-0.4637500047683716;-10.4868745803833;-18.751249313354492
1968;0.0;0.0;0.0;-0.12004800140857697;-0.4108960032463074;1.1194720268249512;0.0;0.0;0.0
1970;0.0;0.0;0.0;-0.11614400148391724;-0.3835679888725281;1.115567922592163;0.0;0.0;0.0
1972;0.0;0.0;0.0;-0.1395680010318756;-0.3835679888725281;1.1028800010681152;0.0;0.0;0.0
1974;-0.2374119907617569;-0.2727919816970825;0.9789279699325562;-0.10833600163459778;-0.40699198842048645;1.1106879711151123;3.666249990463257;-7.266875267028809;-18.261249542236328
1977;0.0;0.0;0.0;-0.1512800008058548;-0.3601439893245697;1.1106879711151123;0.0;0.0;0.0
1979;0.0;0.0;0.0;-0.1786080002784729;-0.35624000430107117;1.1067839860916138;0.0;0.0;0.0
1981;0.0;0.0;0.0;-0.15518400073051453;-0.3211039900779724;1.1194720268249512;0.0;0.0;0.0
1983;-0.2715719938278198;-0.21959999203681946;0.9847840070724487;-0.15518400073051453;-0.33671998977661133;1.1067839860916138;5.136250019073486;-4.746875286102295;-16.651248931884766
1985;0.0;0.0;0.0;-0.1786080002784729;-0.33671998977661133;1.1311839818954468;0.0;0.0;0.0
1987;0.0;0.0;0.0;-0.17470400035381317;-0.3093920052051544;1.1028800010681152;0.0;0.0;0.0
1989;0.0;0.0;0.0;-0.17470400035381317;-0.3172000050544739;1.1272799968719482;0.0;0.0;0.0
1991;-0.29646000266075134;-0.19593200087547302;1.00381600856781;-0.1903200000524521;-0.3172000050544739;1.1594879627227783;3.736250162124634;-2.296875;-14.481249809265137
1994;0.0;0.0;0.0;-0.20983999967575073;-0.32500800490379333;1.1643680334091187;0.0;0.0;0.0
1996;0.0;0.0;0.0;-0.2176479995250702;-0.34062400460243225;1.1643680334091187;0.0;0.0;0.0
1998;0.0;0.0;0.0;-0.2176479995250702;-0.3211039900779724;1.1721760034561157;0.0;0.0;0.0
2000;-0.342087984085083;-0.17836399376392365;1.0330959558486938;-0.21374399960041046;-0.3093920052051544;1.1555839776992798;1.3562500476837158;-0.8268750309944153;-11.54124927520752
2002;0.0;0.0;0.0;-0.2332639992237091;-0.29767999053001404;1.1887680292129517;0.0;0.0;0.0
2004;0.0;0.0;0.0;-0.24107199907302856;-0.28596800565719604;1.1887680292129517;0.0;0.0;0.0
2006;0.0;0.0;0.0;-0.24107199907302856;-0.28596800565719604;1.2170720100402832;0.0;0.0;0.0
2008;-0.36038798093795776;-0.16128399968147278;1.0604239702224731;-0.2332639992237091;-0.31329599022865295;1.1887680292129517;0.8662499785423279;-2.296875;-7.971250057220459
2011;0.0;0.0;0.0;-0.23716799914836884;-0.30158400535583496;1.2131680250167847;0.0;0.0;0.0
2013;0.0;0.0;0.0;-0.25278398394584656;-0.3093920052051544;1.2248799800872803;0.0;0.0;0.0
2015;0.0;0.0;0.0;-0.2566879987716675;-0.2781600058078766;1.2248799800872803;0.0;0.0;0.0
2017;-0.37380799651145935;-0.1559159904718399;1.0782359838485718;-0.24107199907302856;-0.2664479911327362;1.2170720100402832;3.3162500858306885;-6.426875114440918;-5.31125020980835
2019;0.0;0.0;0.0;-0.24107199907302856;-0.2664479911327362;1.2414720058441162;0.0;0.0;0.0
2021;0.0;0.0;0.0;-0.22155199944972992;-0.27425599098205566;1.2004799842834473;0.0;0.0;0.0
2023;0.0;0.0;0.0;-0.205935999751091;-0.2820639908313751;1.2004799842834473;0.0;0.0;0.0
2025;-0.3491639792919159;-0.14103199541568756;1.0748199224472046;-0.19422399997711182;-0.2664479911327362;1.2082879543304443;7.586250305175781;-13.846874237060547;-3.981250047683716
2028;0.0;0.0;0.0;-0.18641600012779236;-0.25863999128341675;1.1877919435501099;0.0;0.0;0.0
2030;0.0;0.0;0.0;-0.1668960005044937;-0.2547360062599182;1.1965759992599487;0.0;0.0;0.0
2032;0.0;0.0;0.0;-0.19812799990177155;-0.24692799150943756;1.1721760034561157;0.0;0.0;0.0
2034;-0.30573198199272156;-0.10809199512004852;1.0560319423675537;-0.16299200057983398;-0.2117919921875;1.1760799884796143;11.366250038146973;-19.93687629699707;-4.191250324249268
2036;0.0;0.0;0.0;-0.16299200057983398;-0.24302399158477783;1.1682720184326172;0.0;0.0;0.0
2038;0.0;0.0;0.0;-0.1668960005044937;-0.19227199256420135;1.1799839735031128;0.0;0.0;0.0
2040;0.0;0.0;0.0;-0.13176000118255615;-0.19227199256420135;1.1477760076522827;0.0;0.0;0.0
2042;-0.2808440029621124;-0.06490399688482285;1.0396839380264282;-0.17080000042915344;-0.16103999316692352;1.1721760034561157;12.41624927520752;-22.946876525878906;-4.051249980926514
2045;0.0;0.0;0.0;-0.16299200057983398;-0.16494399309158325;1.1477760076522827;0.0;0.0;0.0
2047;0.0;0.0;0.0;-0.14737600088119507;-0.16494399309158325;1.1682720184326172;0.0;0.0;0.0
2049;0.0;0.0;0.0;-0.12785600125789642;-0.1571359932422638;1.1721760034561157;0.0;0.0;0.0
2051;-0.26669198274612427;-0.030743999406695366;1.0348039865493774;-0.1512800008058548;-0.15323199331760406;1.1555839776992798;9.616250038146973;-21.546875;-2.021250009536743
2053;0.0;0.0;0.0;-0.13176000118255615;-0.14151999354362488;1.1838879585266113;0.0;0.0;0.0
2055;0.0;0.0;0.0;-0.14347200095653534;-0.1571359932422638;1.2043839693069458;0.0;0.0;0.0
2057;0.0;0.0;0.0;-0.12004800140857697;-0.16103999316692352;1.1838879585266113;0.0;0.0;0.0
2059;-0.2618120014667511;-0.011467999778687954;1.054811954498291;-0.12785600125789642;-0.1180959939956665;1.2170720100402832;5.486249923706055;-15.80687427520752;2.1787500381469727
2062;0.0;0.0;0.0;-0.13176000118255615;-0.13761599361896515;1.2121919393539429;0.0;0.0;0.0
2064;0.0;0.0;0.0;-0.17470400035381317;-0.16494399309158325;1.2209759950637817;0.0;0.0;0.0
2066;0.0;0.0;0.0;-0.17080000042915344;-0.1727519929409027;1.2121919393539429;0.0;0.0;0.0
2068;-0.28938400745391846;-0.019519999623298645;1.079211950302124;-0.1786080002784729;-0.1844639927148819;1.2082879543304443;0.65625;-11.046875;7.358749866485596
2070;0.0;0.0;0.0;-0.1903200000524521;-0.18836799263954163;1.2131680250167847;0.0;0.0;0.0
2072;0.0;0.0;0.0;-0.18641600012779236;-0.19227199256420135;1.2043839693069458;0.0;0.0;0.0
2074;0.0;0.0;0.0;-0.19812799990177155;-0.1844639927148819;1.2209759950637817;0.0;0.0;0.0
2076;-0.31671199202537537;-0.04806799814105034;1.0855560302734375;-0.20203199982643127;-0.16103999316692352;1.2453759908676147;0.65625;-8.386874198913574;8.12874984741211
2079;0.0;0.0;0.0;-0.2449759989976883;-0.1727519929409027;1.2248799800872803;0.0;0.0;0.0
2081;0.0;0.0;0.0;-0.22155199944972992;-0.16103999316692352;1.2248799800872803;0.0;0.0;0.0
2083;0.0;0.0;0.0;-0.22935999929904938;-0.1727519929409027;1.2287839651107788;0.0;0.0;0.0
2085;-0.34525999426841736;-0.03562399744987488;1.105563998222351;-0.22155199944972992;-0.16494399309158325;1.2414720058441162;5.136250019073486;-10.4868745803833;8.96875
2087;0.0;0.0;0.0;-0.22545599937438965;-0.16103999316692352;1.2326879501342773;0.0;0.0;0.0
2089;0.0;0.0;0.0;-0.1903200000524521;-0.14932799339294434;1.2453759908676147;0.0;0.0;0.0
2091;0.0;0.0;0.0;-0.2176479995250702;-0.1454239934682846;1.2531839609146118;0.0;0.0;0.0
2093;-0.3374519944190979;-0.02537599951028824;1.1075159311294556;-0.2176479995250702;-0.14151999354362488;1.2365919351577759;8.356249809265137;-16.016876220703125;11.978750228881836
2096;0.0;0.0;0.0;-0.2332639992237091;-0.1571359932422638;1.2287839651107788;0.0;0.0;0.0
2098;0.0;0.0;0.0;-0.2449759989976883;-0.14932799339294434;1.2170720100402832;0.0;0.0;0.0
2100;0.0;0.0;0.0;-0.21374399960041046;-0.15323199331760406;1.2414720058441162;0.0;0.0;0.0
2102;-0.3391599953174591;-0.01268799975514412;1.0984879732131958;-0.21374399960041046;-0.1571359932422638;1.2248799800872803;8.776249885559082;-17.906875610351562;14.078750610351562
2104;0.0;0.0;0.0;-0.1786080002784729;-0.13761599361896515;1.2287839651107788;0.0;0.0;0.0
2106;0.0;0.0;0.0;-0.18251200020313263;-0.15323199331760406;1.2170720100402832;0.0;0.0;0.0
2108;0.0;0.0;0.0;-0.17080000042915344;-0.12199999392032623;1.2082879543304443;0.0;0.0;0.0
2110;-0.2954840064048767;0.0024399999529123306;1.0816519260406494;-0.15908800065517426;-0.12590399384498596;1.2082879543304443;8.91624927520752;-16.716875076293945;17.228750228881836
2113;0.0;0.0;0.0;-0.14737600088119507;-0.11028799414634705;1.2082879543304443;0.0;0.0;0.0
2115;0.0;0.0;0.0;-0.14737600088119507;-0.12590399384498596;1.1877919435501099;0.0;0.0;0.0
2117;0.0;0.0;0.0;-0.11224000155925751;-0.1180959939956665;1.2043839693069458;0.0;0.0;0.0
2119;-0.2500999867916107;0.007807999849319458;1.0731120109558105;-0.10443200170993805;-0.12199999392032623;1.2082879543304443;10.386249542236328;-11.326874732971191;20.37874984741211
2121;0.0;0.0;0.0;-0.10833600163459778;-0.12199999392032623;1.2043839693069458;0.0;0.0;0.0
2123;0.0;0.0;0.0;-0.08881600201129913;-0.10247999429702759;1.2004799842834473;0.0;0.0;0.0
2125;0.0;0.0;0.0;-0.13176000118255615;-0.07124799489974976;1.2131680250167847;0.0;0.0;0.0
2127;-0.23545999825000763;0.037331998348236084;1.073356032371521;-0.12004800140857697;-0.05953599885106087;1.2082879543304443;13.046249389648438;-6.706875324249268;24.368749618530273
2130;0.0;0.0;0.0;-0.1239520013332367;-0.08686399459838867;1.1965759992599487;0.0;0.0;0.0
2132;0.0;0.0;0.0;-0.12785600125789642;-0.04391999915242195;1.1721760034561157;0.0;0.0;0.0
2134;0.0;0.0;0.0;-0.12004800140857697;-0.028303999453783035;1.1799839735031128;0.0;0.0;0.0
2136;-0.22496800124645233;0.09296400099992752;1.0572519302368164;-0.054655998945236206;-0.020495999604463577;1.1682720184326172;13.746249198913574;-4.046875;26.188751220703125
2138;0.0;0.0;0.0;-0.0936959981918335;0.014639999717473984;1.1721760034561157;0.0;0.0;0.0
2140;0.0;0.0;0.0;-0.08881600201129913;0.022447999566793442;1.1516799926757812;0.0;0.0;0.0
2142;0.0;0.0;0.0;-0.07027199864387512;0.06148799881339073;1.1643680334091187;0.0;0.0;0.0
2144;-0.19983600080013275;0.15152399241924286;1.0328519344329834;-0.08588799834251404;0.0029279999434947968;1.1555839776992798;13.746249198913574;0.8531250357627869;27.798749923706055
2147;0.0;0.0;0.0;-0.12004800140857697;0.057583998888731;1.1594879627227783;0.0;0.0;0.0
2149;0.0;0.0;0.0;-0.07807999849319458;0.045871999114751816;1.1555839776992798;0.0;0.0;0.0
2151;0.0;0.0;0.0;-0.10443200170993805;0.07320000231266022;1.1760799884796143;0.0;0.0;0.0
2153;-0.21837998926639557;0.18470799922943115;1.0369999408721924;-0.11224000155925751;0.06148799881339073;1.1682720184326172;12.276249885559082;5.613124847412109;29.26875114440918
2155;0.0;0.0;0.0;-0.09662400186061859;0.09272000193595886;1.1965759992599487;0.0;0.0;0.0
2157;0.0;0.0;0.0;-0.10833600163459778;0.08881600201129913;1.1799839735031128;0.0;0.0;0.0
2159;0.0;0.0;0.0;-0.10052800178527832;0.09272000193595886;1.1926720142364502;0.0;0.0;0.0
2161;-0.23521599173545837;0.20374000072479248;1.0504199266433716;-0.10443200170993805;0.06929600238800049;1.1926720142364502;7.726250171661377;7.293125152587891;31.85875129699707
2164;0.0;0.0;0.0;-0.10150399804115295;0.02635199949145317;1.1838879585266113;0.0;0.0;0.0
2166;0.0;0.0;0.0;-0.07710400223731995;0.049775999039411545;1.1965759992599487;0.0;0.0;0.0
2168;0.0;0.0;0.0;-0.08979199826717377;0.06929600238800049;1.2082879543304443;0.0;0.0;0.0
2170;-0.21886800229549408;0.1920280009508133;1.0601799488067627;-0.10833600163459778;0.053679998964071274;1.1760799884796143;3.3162500858306885;7.92312479019165;34.44874954223633
2172;0.0;0.0;0.0;-0.10443200170993805;0.053679998964071274;1.1838879585266113;0.0;0.0;0.0
2174;0.0;0.0;0.0;-0.0849120020866394;0.057583998888731;1.2248799800872803;0.0;0.0;0.0
2176;0.0;0.0;0.0;-0.08588799834251404;0.03806399926543236;1.2248799800872803;0.0;0.0;0.0
2178;-0.21862399578094482;0.1908079981803894;1.0760400295257568;-0.10443200170993805;0.08881600201129913;1.2043839693069458;1.6362500190734863;8.413125038146973;37.94874954223633
2181;0.0;0.0;0.0;-0.11224000155925751;0.0849120020866394;1.2043839693069458;0.0;0.0;0.0
2183;0.0;0.0;0.0;-0.07417599856853485;0.06148799881339073;1.1926720142364502;0.0;0.0;0.0
2185;0.0;0.0;0.0;-0.0663679987192154;0.06148799881339073;1.2082879543304443;0.0;0.0;0.0
2187;-0.20398399233818054;0.1908079981803894;1.0762839317321777;-0.05075199902057648;0.08881600201129913;1.2043839693069458;1.6362500190734863;7.083125114440918;43.19874954223633
2189;0.0;0.0;0.0;-0.03903999924659729;0.06539200246334076;1.2170720100402832;0.0;0.0;0.0
2191;0.0;0.0;0.0;-0.03903999924659729;0.06929600238800049;1.1965759992599487;0.0;0.0;0.0
2193;0.0;0.0;0.0;-0.031231999397277832;0.04196799919009209;1.1877919435501099;0.0;0.0;0.0
2195;-0.1483519971370697;0.2083759903907776;1.073356032371521;0.0;0.08881600201129913;1.2043839693069458;2.0562500953674316;7.013124942779541;47.9587516784668
2198;0.0;0.0;0.0;0.015615999698638916;0.06148799881339073;1.1965759992599487;0.0;0.0;0.0
2200;0.0;0.0;0.0;0.003903999924659729;0.1239520013332367;1.2004799842834473;0.0;0.0;0.0
2202;0.0;0.0;0.0;0.011711999773979187;0.10833600163459778;1.1682720184326172;0.0;0.0;0.0
2204;-0.12175599485635757;0.22130799293518066;1.0689640045166016;0.03513599932193756;0.10052800178527832;1.2131680250167847;2.1262500286102295;8.063125610351562;50.408748626708984
2206;0.0;0.0;0.0;0.03903999924659729;0.13176000118255615;1.2043839693069458;0.0;0.0;0.0
2208;0.0;0.0;0.0;0.027327999472618103;0.12004800140857697;1.2043839693069458;0.0;0.0;0.0
2210;0.0;0.0;0.0;0.031231999397277832;0.1395680010318756;1.1887680292129517;0.0;0.0;0.0
2212;-0.10394399613142014;0.24741598963737488;1.0616439580917358;0.023423999547958374;0.12785600125789642;1.1877919435501099;1.9162499904632568;5.963124752044678;50.19874954223633
2215;0.0;0.0;0.0;0.031231999397277832;0.13566400110721588;1.1682720184326172;0.0;0.0;0.0
2217;0.0;0.0;0.0;0.08979199826717377;0.12785600125789642;1.1682720184326172;0.0;0.0;0.0
2219;0.0;0.0;0.0;0.08588799834251404;0.1239520013332367;1.1760799884796143;0.0;0.0;0.0
2221;-0.04172400012612343;0.2554679811000824;1.0457839965820312;0.11321599781513214;0.11614400148391724;1.1555839776992798;2.0562500953674316;2.6731250286102295;49.498748779296875
2223;0.0;0.0;0.0;0.12492799758911133;0.13176000118255615;1.1633919477462769;0.0;0.0;0.0
2225;0.0;0.0;0.0;0.10540799796581268;0.12004800140857697;1.1721760034561157;0.0;0.0;0.0
2227;0.0;0.0;0.0;0.11711999773979187;0.15908800065517426;1.1555839776992798;0.0;0.0;0.0
2229;-0.00024399999529123306;0.2735239863395691;1.0416359901428223;0.15225599706172943;0.14737600088119507;1.1682720184326172;-0.5337499976158142;0.43312501907348633;49.07875061035156
2232;0.0;0.0;0.0;0.13663999736309052;0.13566400110721588;1.1682720184326172;0.0;0.0;0.0
2234;0.0;0.0;0.0;0.1483519971370697;0.14347200095653534;1.1721760034561157;0.0;0.0;0.0
2236;0.0;0.0;0.0;0.1786080002784729;0.14737600088119507;1.1682720184326172;0.0;0.0;0.0
2238;0.03660000115633011;0.2769399881362915;1.0357799530029297;0.13663999736309052;0.12785600125789642;1.1838879585266113;-4.663750171661377;0.5731250047683716;46.838748931884766
2240;0.0;0.0;0.0;0.20203199982643127;0.1395680010318756;1.1516799926757812;0.0;0.0;0.0
2242;0.0;0.0;0.0;0.16299200057983398;0.13566400110721588;1.1516799926757812;0.0;0.0;0.0
2244;0.0;0.0;0.0;0.19422399997711182;0.1239520013332367;1.1477760076522827;0.0;0.0;0.0
2246;0.07637199759483337;0.2630319893360138;1.0211399793624878;0.25278398394584656;0.1239520013332367;1.1594879627227783;-7.463749885559082;2.813124895095825;45.85874938964844
2249;0.0;0.0;0.0;0.2840159833431244;0.09272000193595886;1.1477760076522827;0.0;0.0;0.0
2251;0.0;0.0;0.0;0.2996319830417633;0.11224000155925751;1.139967918395996;0.0;0.0;0.0
2253;0.0;0.0;0.0;0.2879199981689453;0.08100800216197968;1.1721760034561157;0.0;0.0;0.0
2255;0.15176799893379211;0.2193560004234314;1.0301679372787476;0.22155199944972992;0.0849120020866394;1.2121919393539429;-7.673749923706055;9.253125190734863;44.94874954223633
2257;0.0;0.0;0.0;0.21374399960041046;0.06148799881339073;1.2131680250167847;0.0;0.0;0.0
2259;0.0;0.0;0.0;0.2449759989976883;0.04196799919009209;1.1877919435501099;0.0;0.0;0.0
2261;0.0;0.0;0.0;0.22935999929904938;0.018543999642133713;1.2043839693069458;0.0;0.0;0.0
2263;0.11272799968719482;0.18007199466228485;1.075551986694336;0.25278398394584656;0.02635199949145317;1.2170720100402832;-7.323750019073486;14.223125457763672;45.01874923706055
2266;0.0;0.0;0.0;0.260591983795166;0.0302559994161129;1.2209759950637817;0.0;0.0;0.0
2268;0.0;0.0;0.0;0.260591983795166;0.02635199949145317;1.2326879501342773;0.0;0.0;0.0
2270;0.0;0.0;0.0;0.24107199907302856;0.0302559994161129;1.2570879459381104;0.0;0.0;0.0
2272;0.13053999841213226;0.15689200162887573;1.099463939666748;0.2566879987716675;0.0302559994161129;1.2365919351577759;-5.853749752044678;14.29312515258789;45.928749084472656
2274;0.0;0.0;0.0;0.22935999929904938;0.03415999934077263;1.2326879501342773;0.0;0.0;0.0
2276;0.0;0.0;0.0;0.24107199907302856;0.02635199949145317;1.2531839609146118;0.0;0.0;0.0
2278;0.0;0.0;0.0;0.2566879987716675;0.006831999868154526;1.2414720058441162;0.0;0.0;0.0
2280;0.12443999946117401;0.14591199159622192;1.1172759532928467;0.260591983795166;0.014639999717473984;1.2570879459381104;-2.84375;12.19312572479248;45.78874969482422
2283;0.0;0.0;0.0;0.26449599862098694;-0.01659199967980385;1.2365919351577759;0.0;0.0;0.0
2285;0.0;0.0;0.0;0.24107199907302856;0.02635199949145317;1.2648959159851074;0.0;0.0;0.0
2287;0.0;0.0;0.0;0.260591983795166;0.010735999792814255;1.2287839651107788;0.0;0.0;0.0
2289;0.130295991897583;0.13298000395298004;1.1136159896850586;0.24107199907302856;-0.020495999604463577;1.2531839609146118;2.40625;8.623125076293945;44.94874954223633
2291;0.0;0.0;0.0;0.24887999892234802;0.018543999642133713;1.2492799758911133;0.0;0.0;0.0
2293;0.0;0.0;0.0;0.2449759989976883;-0.01268799975514412;1.2414720058441162;0.0;0.0;0.0
2295;0.0;0.0;0.0;0.25278398394584656;0.053679998964071274;1.2287839651107788;0.0;0.0;0.0
2297;0.13517600297927856;0.14322799444198608;1.1053199768066406;0.260591983795166;0.018543999642133713;1.2131680250167847;8.8462495803833;4.283124923706055;44.94874954223633
2300;0.0;0.0;0.0;0.2840159833431244;0.03806399926543236;1.2287839651107788;0.0;0.0;0.0
2302;0.0;0.0;0.0;0.2840159833431244;0.045871999114751816;1.2043839693069458;0.0;0.0;0.0
2304;0.0;0.0;0.0;0.29182398319244385;0.045871999114751816;1.1965759992599487;0.0;0.0;0.0
2306;0.17080000042915344;0.17128799855709076;1.0743319988250732;0.3152479827404022;0.057583998888731;1.1760799884796143;14.516249656677246;2.323124885559082;45.368751525878906
2308;0.0;0.0;0.0;0.3113439977169037;0.08881600201129913;1.1477760076522827;0.0;0.0;0.0
2310;0.0;0.0;0.0;0.3386719822883606;0.06148799881339073;1.1721760034561157;0.0;0.0;0.0
2312;0.0;0.0;0.0;0.33086398243904114;0.07710400223731995;1.1477760076522827;0.0;0.0;0.0
2314;0.21837998926639557;0.2012999951839447;1.030411958694458;0.3659999966621399;0.08100800216197968;1.139967918395996;18.016250610351562;4.773125171661377;45.78874969482422
2317;0.0;0.0;0.0;0.3777119815349579;0.09272000193595886;1.1116639375686646;0.0;0.0;0.0
2319;0.0;0.0;0.0;0.3816159963607788;0.07710400223731995;1.1311839818954468;0.0;0.0;0.0
2321;0.0;0.0;0.0;0.34647998213768005;0.08881600201129913;1.139967918395996;0.0;0.0;0.0
2323;0.24131599068641663;0.21837998926639557;1.0089399814605713;0.3659999966621399;0.10052800178527832;1.1477760076522827;18.646249771118164;10.233125686645508;45.088748931884766
2325;0.0;0.0;0.0;0.3425759971141815;0.10443200170993805;1.1233760118484497;0.0;0.0;0.0
2327;0.0;0.0;0.0;0.3777119815349579;0.09272000193595886;1.1438720226287842;0.0;0.0;0.0
2329;0.0;0.0;0.0;0.3269599974155426;0.08881600201129913;1.1350879669189453;0.0;0.0;0.0
2331;0.23179998993873596;0.22203999757766724;1.0106480121612549;0.33476799726486206;0.08881600201129913;1.1477760076522827;16.966251373291016;13.873125076293945;43.12874984741211
2334;0.0;0.0;0.0;0.33086398243904114;0.08881600201129913;1.1438720226287842;0.0;0.0;0.0
2336;0.0;0.0;0.0;0.33086398243904114;0.08881600201129913;1.1555839776992798;0.0;0.0;0.0
2338;0.0;0.0;0.0;0.34647998213768005;0.09662400186061859;1.1477760076522827;0.0;0.0;0.0
2340;0.2193560004234314;0.2130119949579239;1.009671926498413;0.3425759971141815;0.057583998888731;1.1233760118484497;14.936249732971191;12.683125495910645;40.188751220703125
2342;0.0;0.0;0.0;0.3386719822883606;0.06539200246334076;1.1477760076522827;0.0;0.0;0.0
2344;0.0;0.0;0.0;0.3699039816856384;0.057583998888731;1.1555839776992798;0.0;0.0;0.0
2346;0.0;0.0;0.0;0.3659999966621399;0.06539200246334076;1.1194720268249512;0.0;0.0;0.0
2349;0.23594799637794495;0.20203199982643127;0.9943000078201294;0.3699039816856384;0.06539200246334076;1.1116639375686646;13.746249198913574;9.393125534057617;36.82875061035156
2351;0.0;0.0;0.0;0.350383996963501;0.07710400223731995;1.1194720268249512;0.0;0.0;0.0
2353;0.0;0.0;0.0;0.3816159963607788;0.08881600201129913;1.1194720268249512;0.0;0.0;0.0
2355;0.0;0.0;0.0;0.3777119815349579;0.08100800216197968;1.0872639417648315;0.0;0.0;0.0
2357;0.2525399923324585;0.19885998964309692;0.9711199998855591;0.3777119815349579;0.06539200246334076;1.09116792678833;13.536250114440918;9.04312515258789;33.60874938964844
2359;0.0;0.0;0.0;0.3777119815349579;0.06929600238800049;1.0872639417648315;0.0;0.0;0.0
2361;0.0;0.0;0.0;0.3777119815349579;0.08100800216197968;1.0745760202407837;0.0;0.0;0.0
2363;0.0;0.0;0.0;0.3816159963607788;0.06539200246334076;1.0628639459609985;0.0;0.0;0.0
2366;0.2581520080566406;0.19422399997711182;0.9464759826660156;0.3542879819869995;0.06148799881339073;1.0784800052642822;13.606249809265137;10.583125114440918;31.158750534057617
2368;0.0;0.0;0.0;0.3659999966621399;0.06929600238800049;1.0579839944839478;0.0;0.0;0.0
2370;0.0;0.0;0.0;0.37380799651145935;0.07710400223731995;1.0540800094604492;0.0;0.0;0.0
