Timestamp(ms);LG-Accel x(g);LG-Accel y(g);LG-Accel z(g);HG-Accel x(g);HG-Accel y(g);HG-Accel z(g);Gyro x(dps);Gyro y(dps);Gyro z(dps)
99;0.0;0.0;0.0;-0.057583998888731;-0.25278398394584656;1.0931199789047241;0.0;0.0;0.0
101;0.0;0.0;0.0;-0.06539200246334076;-0.27620798349380493;1.1009279489517212;0.0;0.0;0.0
103;0.0;0.0;0.0;-0.06539200246334076;-0.2683999836444855;1.1175199747085571;0.0;0.0;0.0
105;0.0;0.0;0.0;-0.07710400223731995;-0.29572799801826477;1.0648159980773926;0.0;0.0;0.0
108;0.0;0.0;0.0;-0.08393599838018417;-0.2879199981689453;1.0648159980773926;0.0;0.0;0.0
110;0.0;0.0;0.0;-0.053679998964071274;-0.3211039900779724;1.0775039196014404;0.0;0.0;0.0
112;0.0;0.0;0.0;-0.06148799881339073;-0.30158400535583496;1.0775039196014404;0.0;0.0;0.0
114;0.0;0.0;0.0;-0.06148799881339073;-0.31329599022865295;1.0570080280303955;0.0;0.0;0.0
116;-0.177387997508049;-0.18007199466228485;0.9459879994392395;-0.0029279999434947968;-0.32891198992729187;1.0775039196014404;0.0;0.0;0.0
118;0.0;0.0;0.0;0.01268799975514412;-0.3718560039997101;1.0814080238342285;0.0;0.0;0.0
120;0.0;0.0;0.0;-0.049775999039411545;-0.3328160047531128;1.101904034614563;0.0;0.0;0.0
122;0.0;0.0;0.0;-0.08100800216197968;-0.3718560039997101;1.0775039196014404;0.0;0.0;0.0
125;-0.1617719978094101;-0.21691599488258362;0.9596520066261292;-0.12004800140857697;-0.33671998977661133;1.0940959453582764;0.0;0.0;0.0
127;0.0;0.0;0.0;-0.1512800008058548;-0.3328160047531128;1.1028800010681152;0.0;0.0;0.0
129;0.0;0.0;0.0;-0.15908800065517426;-0.33671998977661133;1.0784800052642822;0.0;0.0;0.0
131;0.0;0.0;0.0;-0.19422399997711182;-0.3484320044517517;1.0706720352172852;0.0;0.0;0.0
133;-0.27742800116539;-0.21423199772834778;0.9576999545097351;-0.1668960005044937;-0.3835679888725281;1.0706720352172852;0.0;0.0;0.0
135;0.0;0.0;0.0;-0.13566400110721588;-0.3835679888725281;1.0706720352172852;0.0;0.0;0.0
137;0.0;0.0;0.0;-0.13566400110721588;-0.37966400384902954;1.0823839902877808;0.0;0.0;0.0
139;0.0;0.0;0.0;-0.15518400073051453;-0.3835679888725281;1.0823839902877808;0.0;0.0;0.0
142;-0.27303600311279297;-0.2432679980993271;0.9469639658927917;-0.16299200057983398;-0.39137598872184753;1.1028800010681152;0.0;0.0;0.0
144;0.0;0.0;0.0;-0.1698240041732788;-0.3835679888725281;1.1058080196380615;0.0;0.0;0.0
146;0.0;0.0;0.0;-0.19324800372123718;-0.39137598872184753;1.0862879753112793;0.0;0.0;0.0
148;0.0;0.0;0.0;-0.2088640034198761;-0.36795198917388916;1.0901919603347778;0.0;0.0;0.0
150;-0.30987998843193054;-0.2547360062599182;0.9591639637947083;-0.21667200326919556;-0.39528000354766846;1.0696959495544434;0.0;0.0;0.0
152;0.0;0.0;0.0;-0.21667200326919556;-0.387472003698349;1.0940959453582764;0.0;0.0;0.0
154;0.0;0.0;0.0;-0.19715198874473572;-0.3835679888725281;1.073599934577942;0.0;0.0;0.0
156;0.0;0.0;0.0;-0.21276798844337463;-0.387472003698349;1.0940959453582764;0.0;0.0;0.0
159;-0.334524005651474;-0.25986000895500183;0.9479399919509888;-0.2088640034198761;-0.40699198842048645;1.0618879795074463;-16.646875381469727;-12.818750381469727;-22.220624923706055
161;0.0;0.0;0.0;-0.1786080002784729;-0.40699198842048645;1.0540800094604492;0.0;0.0;0.0
163;0.0;0.0;0.0;-0.18251200020313263;-0.37966400384902954;1.0589599609375;0.0;0.0;0.0
165;0.0;0.0;0.0;-0.1512800008058548;-0.3640480041503906;1.0462720394134521;0.0;0.0;0.0
167;-0.3084160089492798;-0.24155999720096588;0.9267119765281677;-0.1668960005044937;-0.36795198917388916;1.066767930984497;-16.086875915527344;-25.138750076293945;-22.360624313354492
169;0.0;0.0;0.0;-0.16299200057983398;-0.387472003698349;1.034559965133667;0.0;0.0;0.0
171;0.0;0.0;0.0;-0.1512800008058548;-0.35233598947525024;1.0218719244003296;0.0;0.0;0.0
173;0.0;0.0;0.0;-0.12785600125789642;-0.3445279896259308;1.0140639543533325;0.0;0.0;0.0
176;-0.2654719948768616;-0.2281399965286255;0.9027999639511108;-0.1239520013332367;-0.3484320044517517;1.042367935180664;-16.926876068115234;-32.13875198364258;-21.80062484741211
178;0.0;0.0;0.0;-0.1395680010318756;-0.3601439893245697;1.0501760244369507;0.0;0.0;0.0
180;0.0;0.0;0.0;-0.1239520013332367;-0.3601439893245697;1.0462720394134521;0.0;0.0;0.0
182;0.0;0.0;0.0;-0.10833600163459778;-0.3328160047531128;1.0706720352172852;0.0;0.0;0.0
184;-0.2437559962272644;-0.21496400237083435;0.9242720007896423;-0.1239520013332367;-0.3093920052051544;1.0784800052642822;-19.236875534057617;-32.13875198364258;-23.410625457763672
186;0.0;0.0;0.0;-0.0849120020866394;-0.31329599022865295;1.0823839902877808;0.0;0.0;0.0
188;0.0;0.0;0.0;-0.08588799834251404;-0.32891198992729187;1.0384639501571655;0.0;0.0;0.0
191;0.0;0.0;0.0;-0.07807999849319458;-0.31329599022865295;1.0706720352172852;0.0;0.0;0.0
193;-0.2000799924135208;-0.19446799159049988;0.9228079915046692;-0.03513599932193756;-0.3093920052051544;1.034559965133667;-24.34687614440918;-26.048749923706055;-25.090625762939453
195;0.0;0.0;0.0;-0.04294399917125702;-0.32891198992729187;1.0589599609375;0.0;0.0;0.0
197;0.0;0.0;0.0;-0.03513599932193756;-0.37966400384902954;1.034559965133667;0.0;0.0;0.0
199;0.0;0.0;0.0;-0.054655998945236206;-0.35233598947525024;1.0501760244369507;0.0;0.0;0.0
201;-0.15933199226856232;-0.21227999031543732;0.9196360111236572;-0.003903999924659729;-0.3640480041503906;1.0501760244369507;-30.43687629699707;-14.568750381469727;-24.110624313354492
203;0.0;0.0;0.0;0.0;-0.35624000430107117;1.0462720394134521;0.0;0.0;0.0
205;0.0;0.0;0.0;0.0;-0.37966400384902954;1.0589599609375;0.0;0.0;0.0
208;0.0;0.0;0.0;-0.023423999547958374;-0.3601439893245697;1.0462720394134521;0.0;0.0;0.0
210;-0.13176000118255615;-0.2315559983253479;0.9176839590072632;-0.027327999472618103;-0.35233598947525024;1.0384639501571655;-36.03687286376953;1.881250023841858;-22.640625
212;0.0;0.0;0.0;-0.06539200246334076;-0.35233598947525024;1.0618879795074463;0.0;0.0;0.0
214;0.0;0.0;0.0;-0.09272000193595886;-0.3718560039997101;1.0579839944839478;0.0;0.0;0.0
216;0.0;0.0;0.0;-0.11614400148391724;-0.3835679888725281;1.0657919645309448;0.0;0.0;0.0
218;-0.2164279967546463;-0.2332639992237091;0.936959981918335;-0.1815359890460968;-0.35624000430107117;1.097999930381775;-38.97687530517578;18.751251220703125;-21.5206241607666
220;0.0;0.0;0.0;-0.1815359890460968;-0.39528000354766846;1.0940959453582764;0.0;0.0;0.0
222;0.0;0.0;0.0;-0.20495998859405518;-0.35624000430107117;1.1106879711151123;0.0;0.0;0.0
225;0.0;0.0;0.0;-0.24009600281715393;-0.35233598947525024;1.122399926185608;0.0;0.0;0.0
227;-0.3228119909763336;-0.24155999720096588;0.9713639616966248;-0.2635200023651123;-0.39137598872184753;1.1067839860916138;-39.326873779296875;28.341251373291016;-19.840625762939453
229;0.0;0.0;0.0;-0.260591983795166;-0.3757599890232086;1.1233760118484497;0.0;0.0;0.0
231;0.0;0.0;0.0;-0.28011199831962585;-0.35624000430107117;1.1272799968719482;0.0;0.0;0.0
233;0.0;0.0;0.0;-0.29182398319244385;-0.3445279896259308;1.1272799968719482;0.0;0.0;0.0
235;-0.4062599837779999;-0.22838398814201355;0.9989359974861145;-0.3152479827404022;-0.32500800490379333;1.1516799926757812;-36.87687301635742;27.291250228881836;-16.55062484741211
237;0.0;0.0;0.0;-0.29572799801826477;-0.34062400460243225;1.1721760034561157;0.0;0.0;0.0
239;0.0;0.0;0.0;-0.31915199756622314;-0.3328160047531128;1.1477760076522827;0.0;0.0;0.0
242;0.0;0.0;0.0;-0.29182398319244385;-0.34062400460243225;1.1438720226287842;0.0;0.0;0.0
244;-0.43553999066352844;-0.20983999967575073;1.0140639543533325;-0.33086398243904114;-0.3484320044517517;1.1272799968719482;-34.076873779296875;20.92125129699707;-13.820625305175781
246;0.0;0.0;0.0;-0.33476799726486206;-0.33671998977661133;1.1555839776992798;0.0;0.0;0.0
248;0.0;0.0;0.0;-0.36111998558044434;-0.3211039900779724;1.1555839776992798;0.0;0.0;0.0
250;0.0;0.0;0.0;-0.3386719822883606;-0.29767999053001404;1.1760799884796143;0.0;0.0;0.0
252;-0.45359599590301514;-0.19349199533462524;1.0177240371704102;-0.34940800070762634;-0.3328160047531128;1.1516799926757812;-31.696876525878906;16.51125144958496;-10.810625076293945
254;0.0;0.0;0.0;-0.33476799726486206;-0.29767999053001404;1.1360639333724976;0.0;0.0;0.0
256;0.0;0.0;0.0;-0.3337920010089874;-0.2937760055065155;1.139967918395996;0.0;0.0;0.0
259;0.0;0.0;0.0;-0.33769598603248596;-0.32500800490379333;1.1350879669189453;0.0;0.0;0.0
261;-0.47433599829673767;-0.18129199743270874;1.0111359357833862;-0.3455039858818054;-0.3093920052051544;1.1272799968719482;-29.6668758392334;14.551249504089355;-7.800624847412109
263;0.0;0.0;0.0;-0.3445279896259308;-0.2781600058078766;1.158511996269226;0.0;0.0;0.0
265;0.0;0.0;0.0;-0.35233598947525024;-0.27425599098205566;1.1389919519424438;0.0;0.0;0.0
267;0.0;0.0;0.0;-0.33769598603248596;-0.2781600058078766;1.1633919477462769;0.0;0.0;0.0
269;-0.46750399470329285;-0.1500599980354309;1.006500005722046;-0.3025600016117096;-0.27425599098205566;1.1145919561386108;-27.566875457763672;13.571249961853027;-2.9706249237060547
271;0.0;0.0;0.0;-0.3484320044517517;-0.26254400610923767;1.1428959369659424;0.0;0.0;0.0
273;0.0;0.0;0.0;-0.32891198992729187;-0.26254400610923767;1.158511996269226;0.0;0.0;0.0
276;0.0;0.0;0.0;-0.33671998977661133;-0.27035200595855713;1.1350879669189453;0.0;0.0;0.0
278;-0.4694559872150421;-0.12199999392032623;1.018455982208252;-0.36795198917388916;-0.2391199916601181;1.1546080112457275;-27.00687599182129;14.061249732971191;3.049375057220459
280;0.0;0.0;0.0;-0.3845439851284027;-0.22740799188613892;1.1838879585266113;0.0;0.0;0.0
282;0.0;0.0;0.0;-0.4001599848270416;-0.2391199916601181;1.1643680334091187;0.0;0.0;0.0
284;0.0;0.0;0.0;-0.41577598452568054;-0.2000799924135208;1.1799839735031128;0.0;0.0;0.0
286;-0.5143519639968872;-0.09711199998855591;1.0399279594421387;-0.39235198497772217;-0.20398399233818054;1.1926720142364502;-27.706876754760742;12.87125015258789;8.229374885559082
288;0.0;0.0;0.0;-0.3845439851284027;-0.21959999203681946;1.2043839693069458;0.0;0.0;0.0
290;0.0;0.0;0.0;-0.39235198497772217;-0.2117919921875;1.1799839735031128;0.0;0.0;0.0
293;0.0;0.0;0.0;-0.4001599848270416;-0.18836799263954163;1.1887680292129517;0.0;0.0;0.0
295;-0.5128880143165588;-0.0773480013012886;1.0577399730682373;-0.4079679846763611;-0.18055999279022217;1.1877919435501099;-27.986875534057617;6.641250133514404;14.039375305175781
297;0.0;0.0;0.0;-0.42260798811912537;-0.18055999279022217;1.2278079986572266;0.0;0.0;0.0
299;0.0;0.0;0.0;-0.40699198842048645;-0.2000799924135208;1.2200000286102295;0.0;0.0;0.0
301;0.0;0.0;0.0;-0.4265120029449463;-0.20788799226284027;1.1916959285736084;0.0;0.0;0.0
303;-0.5328959822654724;-0.06368400156497955;1.0689640045166016;-0.42260798811912537;-0.2000799924135208;1.199504017829895;-27.356876373291016;-0.9187500476837158;17.399375915527344
305;0.0;0.0;0.0;-0.40699198842048645;-0.21569599211215973;1.182911992073059;0.0;0.0;0.0
307;0.0;0.0;0.0;-0.46164798736572266;-0.20788799226284027;1.175104022026062;0.0;0.0;0.0
310;0.0;0.0;0.0;-0.4265120029449463;-0.20398399233818054;1.2200000286102295;0.0;0.0;0.0
312;-0.5468040108680725;-0.07393199950456619;1.0655479431152344;-0.46164798736572266;-0.20788799226284027;1.1712000370025635;-24.906875610351562;-9.108750343322754;18.659374237060547
314;0.0;0.0;0.0;-0.4274879992008209;-0.2391199916601181;1.2043839693069458;0.0;0.0;0.0
316;0.0;0.0;0.0;-0.4470079839229584;-0.20398399233818054;1.2043839693069458;0.0;0.0;0.0
318;0.0;0.0;0.0;-0.4352959990501404;-0.21959999203681946;1.1721760034561157;0.0;0.0;0.0
320;-0.5729119777679443;-0.08735200017690659;1.0677440166473389;-0.45481598377227783;-0.21959999203681946;1.2082879543304443;-20.706876754760742;-20.448749542236328;21.03937530517578
322;0.0;0.0;0.0;-0.4626239836215973;-0.19617599248886108;1.2287839651107788;0.0;0.0;0.0
324;0.0;0.0;0.0;-0.41967999935150146;-0.18055999279022217;1.2170720100402832;0.0;0.0;0.0
327;0.0;0.0;0.0;-0.41577598452568054;-0.1727519929409027;1.2170720100402832;0.0;0.0;0.0
329;-0.5568079948425293;-0.059779997915029526;1.0848239660263062;-0.41577598452568054;-0.17665599286556244;1.2170720100402832;-16.856876373291016;-32.76875305175781;24.609375
331;0.0;0.0;0.0;-0.36111998558044434;-0.17665599286556244;1.2365919351577759;0.0;0.0;0.0
333;0.0;0.0;0.0;-0.3806400001049042;-0.1727519929409027;1.2121919393539429;0.0;0.0;0.0
335;0.0;0.0;0.0;-0.37673598527908325;-0.18055999279022217;1.2170720100402832;0.0;0.0;0.0
337;-0.5070319771766663;-0.039772000163793564;1.0806759595870972;-0.3533119857311249;-0.17665599286556244;1.1965759992599487;-14.546875;-41.79875183105469;28.599374771118164
340;0.0;0.0;0.0;-0.3572160005569458;-0.16103999316692352;1.2209759950637817;0.0;0.0;0.0
341;0.0;0.0;0.0;-0.36111998558044434;-0.14151999354362488;1.2170720100402832;0.0;0.0;0.0
344;0.0;0.0;0.0;-0.36111998558044434;-0.16103999316692352;1.1877919435501099;0.0;0.0;0.0
346;-0.464819997549057;-0.021959999576210976;1.067255973815918;-0.3113439977169037;-0.14932799339294434;1.1838879585266113;-12.2368745803833;-48.098751068115234;32.8693733215332
348;0.0;0.0;0.0;-0.2879199981689453;-0.10247999429702759;1.1760799884796143;0.0;0.0;0.0
350;0.0;0.0;0.0;-0.260591983795166;-0.13371199369430542;1.1799839735031128;0.0;0.0;0.0
352;0.0;0.0;0.0;-0.22935999929904938;-0.12199999392032623;1.1887680292129517;0.0;0.0;0.0
354;-0.3781999945640564;-0.0017079999670386314;1.047003984451294;-0.21374399960041046;-0.1454239934682846;1.1721760034561157;-9.646875381469727;-51.1087532043457;37.069374084472656
356;0.0;0.0;0.0;-0.1903200000524521;-0.1454239934682846;1.1516799926757812;0.0;0.0;0.0
358;0.0;0.0;0.0;-0.15518400073051453;-0.09857599437236786;1.1604639291763306;0.0;0.0;0.0
361;0.0;0.0;0.0;-0.14347200095653534;-0.1180959939956665;1.1516799926757812;0.0;0.0;0.0
363;-0.28767600655555725;0.0012199999764561653;1.0321199893951416;-0.13176000118255615;-0.11419199407100677;1.1965759992599487;-7.406875133514404;-48.16875076293945;40.42937469482422
365;0.0;0.0;0.0;-0.07027199864387512;-0.16494399309158325;1.1555839776992798;0.0;0.0;0.0
367;0.0;0.0;0.0;-0.04684799909591675;-0.13761599361896515;1.1438720226287842;0.0;0.0;0.0
369;0.0;0.0;0.0;-0.03513599932193756;-0.1298079937696457;1.1438720226287842;0.0;0.0;0.0
371;-0.18348799645900726;-0.011711999773979187;1.0213840007781982;-0.015615999698638916;-0.12199999392032623;1.1682720184326172;-5.026875019073486;-42.7087516784668;43.71937561035156
374;0.0;0.0;0.0;0.023423999547958374;-0.14932799339294434;1.1272799968719482;0.0;0.0;0.0
376;0.0;0.0;0.0;0.03513599932193756;-0.1298079937696457;1.1360639333724976;0.0;0.0;0.0
378;0.0;0.0;0.0;0.062463998794555664;-0.12199999392032623;1.1116639375686646;0.0;0.0;0.0
380;-0.08735200017690659;-0.003415999934077263;1.0091840028762817;0.04684799909591675;-0.13371199369430542;1.139967918395996;-2.786875009536743;-33.6087532043457;45.609375
382;0.0;0.0;0.0;0.07417599856853485;-0.1298079937696457;1.1311839818954468;0.0;0.0;0.0
384;0.0;0.0;0.0;0.03903999924659729;-0.14151999354362488;1.1438720226287842;0.0;0.0;0.0
386;0.0;0.0;0.0;0.03903999924659729;-0.11419199407100677;1.1721760034561157;0.0;0.0;0.0
388;-0.07612799853086472;0.010247999802231789;1.0189440250396729;0.015615999698638916;-0.10638399422168732;1.1594879627227783;-0.4768750071525574;-21.568748474121094;44.90937423706055
390;0.0;0.0;0.0;0.023423999547958374;-0.11419199407100677;1.1555839776992798;0.0;0.0;0.0
392;0.0;0.0;0.0;0.03903999924659729;-0.11419199407100677;1.1799839735031128;0.0;0.0;0.0
395;0.0;0.0;0.0;0.0;-0.09857599437236786;1.1721760034561157;0.0;0.0;0.0
397;-0.09223199635744095;0.02513200044631958;1.0426119565963745;0.007807999849319458;-0.07905599474906921;1.1799839735031128;1.0631250143051147;-14.21875;43.99937438964844
399;0.0;0.0;0.0;0.04294399917125702;-0.09467199444770813;1.1887680292129517;0.0;0.0;0.0
401;0.0;0.0;0.0;0.058559998869895935;-0.07515199482440948;1.2043839693069458;0.0;0.0;0.0
403;0.0;0.0;0.0;0.03513599932193756;-0.10247999429702759;1.2043839693069458;0.0;0.0;0.0
405;-0.07807999849319458;0.03513599932193756;1.0635960102081299;0.07027199864387512;-0.11028799414634705;1.2170720100402832;2.2531251907348633;-12.188750267028809;43.649375915527344
408;0.0;0.0;0.0;0.04294399917125702;-0.07905599474906921;1.1926720142364502;0.0;0.0;0.0
410;0.0;0.0;0.0;0.062463998794555664;-0.09467199444770813;1.2082879543304443;0.0;0.0;0.0
412;0.0;0.0;0.0;0.058559998869895935;-0.0907679945230484;1.2004799842834473;0.0;0.0;0.0
414;-0.0605119988322258;0.03294000029563904;1.0740879774093628;0.04684799909591675;-0.11419199407100677;1.2209759950637817;2.8131251335144043;-14.428750038146973;43.649375915527344
416;0.0;0.0;0.0;0.07027199864387512;-0.1180959939956665;1.1965759992599487;0.0;0.0;0.0
418;0.0;0.0;0.0;0.10150399804115295;-0.08295999467372894;1.1965759992599487;0.0;0.0;0.0
420;0.0;0.0;0.0;0.062463998794555664;-0.08295999467372894;1.1926720142364502;0.0;0.0;0.0
422;-0.05636399984359741;0.04904399812221527;1.0684759616851807;0.054655998945236206;-0.09467199444770813;1.2004799842834473;4.633125305175781;-17.78874969482422;41.68937683105469
424;0.0;0.0;0.0;0.10540799796581268;-0.08686399459838867;1.1643680334091187;0.0;0.0;0.0
427;0.0;0.0;0.0;0.0936959981918335;-0.05563199892640114;1.1965759992599487;0.0;0.0;0.0
429;0.0;0.0;0.0;0.1210239976644516;-0.028303999453783035;1.1887680292129517;0.0;0.0;0.0
431;-0.017324000597000122;0.07417599856853485;1.0660359859466553;0.15225599706172943;-0.028303999453783035;1.2043839693069458;6.663125038146973;-21.21875;36.78937530517578
433;0.0;0.0;0.0;0.1483519971370697;-0.04391999915242195;1.2082879543304443;0.0;0.0;0.0
435;0.0;0.0;0.0;0.1786080002784729;-0.03611199930310249;1.2004799842834473;0.0;0.0;0.0
437;0.0;0.0;0.0;0.1786080002784729;-0.04391999915242195;1.2043839693069458;0.0;0.0;0.0
439;0.04318799823522568;0.09882000088691711;1.0696959495544434;0.17470400035381317;-0.01268799975514412;1.2004799842834473;6.523125171661377;-24.228750228881836;33.42937469482422
442;0.0;0.0;0.0;0.23716799914836884;-0.032207999378442764;1.1838879585266113;0.0;0.0;0.0
444;0.0;0.0;0.0;0.23716799914836884;-0.0009759999811649323;1.1926720142364502;0.0;0.0;0.0
446;0.0;0.0;0.0;0.22935999929904938;-0.004879999905824661;1.1682720184326172;0.0;0.0;0.0
448;0.11565599590539932;0.10955599695444107;1.0513960123062134;0.2723039984703064;-0.032207999378442764;1.1721760034561157;4.633125305175781;-24.50874900817871;32.169376373291016
450;0.0;0.0;0.0;0.2879199981689453;-0.04782399907708168;1.1594879627227783;0.0;0.0;0.0
452;0.0;0.0;0.0;0.260591983795166;-0.05172799900174141;1.1594879627227783;0.0;0.0;0.0
454;0.0;0.0;0.0;0.3152479827404022;-0.0634399950504303;1.1516799926757812;0.0;0.0;0.0
456;0.17958399653434753;0.08759599924087524;1.0228480100631714;0.34647998213768005;-0.05172799900174141;1.1477760076522827;2.0431251525878906;-19.118749618530273;28.389375686645508
459;0.0;0.0;0.0;0.33086398243904114;-0.0907679945230484;1.1233760118484497;0.0;0.0;0.0
461;0.0;0.0;0.0;0.3269599974155426;-0.04391999915242195;1.139967918395996;0.0;0.0;0.0
463;0.0;0.0;0.0;0.2879199981689453;-0.07124799489974976;1.139967918395996;0.0;0.0;0.0
465;0.2042279988527298;0.08369199931621552;1.0182119607925415;0.3230559825897217;-0.028303999453783035;1.1311839818954468;0.7831249833106995;-10.648750305175781;21.459375381469727
467;0.0;0.0;0.0;0.33086398243904114;-0.028303999453783035;1.1799839735031128;0.0;0.0;0.0
469;0.0;0.0;0.0;0.3230559825897217;-0.04391999915242195;1.1926720142364502;0.0;0.0;0.0
471;0.0;0.0;0.0;0.2723039984703064;-0.04782399907708168;1.1926720142364502;0.0;0.0;0.0
473;0.1827559918165207;0.08686399459838867;1.0411479473114014;0.27620798349380493;-0.04001599922776222;1.1555839776992798;-0.12687501311302185;-9.5287504196167;21.459375381469727
475;0.0;0.0;0.0;0.27620798349380493;-0.05953599885106087;1.1555839776992798;0.0;0.0;0.0
478;0.0;0.0;0.0;0.26449599862098694;-0.05172799900174141;1.1721760034561157;0.0;0.0;0.0
480;0.0;0.0;0.0;0.26449599862098694;-0.020495999604463577;1.1838879585266113;0.0;0.0;0.0
482;0.15615999698638916;0.09174399822950363;1.0411479473114014;0.2996319830417633;-0.024399999529123306;1.1926720142364502;-0.3368750214576721;-12.258749961853027;23.4893741607666
484;0.0;0.0;0.0;0.29572799801826477;-0.020495999604463577;1.1594879627227783;0.0;0.0;0.0
486;0.0;0.0;0.0;0.30743998289108276;-0.04391999915242195;1.1555839776992798;0.0;0.0;0.0
488;0.0;0.0;0.0;0.2996319830417633;-0.05953599885106087;1.1643680334091187;0.0;0.0;0.0
490;0.18690399825572968;0.0936959981918335;1.0404160022735596;0.3425759971141815;-0.032207999378442764;1.1594879627227783;0.7831249833106995;-13.728750228881836;24.81937599182129
493;0.0;0.0;0.0;0.31915199756622314;-0.04001599922776222;1.1760799884796143;0.0;0.0;0.0
495;0.0;0.0;0.0;0.34647998213768005;-0.04782399907708168;1.1643680334091187;0.0;0.0;0.0
497;0.0;0.0;0.0;0.3269599974155426;-0.028303999453783035;1.1838879585266113;0.0;0.0;0.0
499;0.21716000139713287;0.0878399983048439;1.0438319444656372;0.350383996963501;-0.04391999915242195;1.1926720142364502;3.7231252193450928;-10.928750038146973;24.959375381469727
501;0.0;0.0;0.0;0.3386719822883606;-0.04001599922776222;1.1760799884796143;0.0;0.0;0.0
503;0.0;0.0;0.0;0.31915199756622314;-0.04391999915242195;1.1877919435501099;0.0;0.0;0.0
505;0.0;0.0;0.0;0.3386719822883606;-0.032207999378442764;1.2004799842834473;0.0;0.0;0.0
507;0.21716000139713287;0.09516000002622604;1.067255973815918;0.31915199756622314;-0.028303999453783035;1.2043839693069458;7.923125267028809;-7.21875;24.329374313354492
510;0.0;0.0;0.0;0.3699039816856384;-0.04782399907708168;1.2170720100402832;0.0;0.0;0.0
512;0.0;0.0;0.0;0.3659999966621399;-0.020495999604463577;1.1926720142364502;0.0;0.0;0.0
514;0.0;0.0;0.0;0.3777119815349579;-0.04001599922776222;1.2248799800872803;0.0;0.0;0.0
516;0.23521599173545837;0.09125600010156631;1.0777479410171509;0.3425759971141815;-0.05172799900174141;1.2004799842834473;12.893125534057617;-5.328749656677246;22.01937484741211
518;0.0;0.0;0.0;0.3269599974155426;0.0029279999434947968;1.2082879543304443;0.0;0.0;0.0
520;0.0;0.0;0.0;0.3542879819869995;-0.028303999453783035;1.1965759992599487;0.0;0.0;0.0
522;0.0;0.0;0.0;0.3269599974155426;-0.04782399907708168;1.1760799884796143;0.0;0.0;0.0
524;0.21252399682998657;0.10394399613142014;1.0687199831008911;0.30743998289108276;-0.07515199482440948;1.1721760034561157;16.74312400817871;-7.078749656677246;18.589374542236328
527;0.0;0.0;0.0;0.3230559825897217;-0.04782399907708168;1.1721760034561157;0.0;0.0;0.0
529;0.0;0.0;0.0;0.3113439977169037;-0.04391999915242195;1.139967918395996;0.0;0.0;0.0
531;0.0;0.0;0.0;0.27620798349380493;-0.028303999453783035;1.1360639333724976;0.0;0.0;0.0
533;0.19519999623298645;0.08832799643278122;1.024067997932434;0.31915199756622314;-0.024399999529123306;1.139967918395996;19.40312385559082;-10.438750267028809;14.039375305175781
535;0.0;0.0;0.0;0.30353599786758423;-0.04782399907708168;1.1233760118484497;0.0;0.0;0.0
537;0.0;0.0;0.0;0.29182398319244385;-0.01268799975514412;1.139967918395996;0.0;0.0;0.0
539;0.0;0.0;0.0;0.30743998289108276;-0.04782399907708168;1.1028800010681152;0.0;0.0;0.0
541;0.17933999001979828;0.09906399995088577;0.9921039938926697;0.2840159833431244;-0.01659199967980385;1.1028800010681152;21.573123931884766;-12.818750381469727;10.399374961853027
544;0.0;0.0;0.0;0.2723039984703064;-0.05563199892640114;1.0950720310211182;0.0;0.0;0.0
546;0.0;0.0;0.0;0.24887999892234802;-0.05172799900174141;1.0989760160446167;0.0;0.0;0.0
548;0.0;0.0;0.0;0.22155199944972992;-0.01659199967980385;1.083359956741333;0.0;0.0;0.0
550;0.1424959897994995;0.08906000107526779;0.962336003780365;0.24887999892234802;-0.032207999378442764;1.1067839860916138;22.693124771118164;-14.21875;9.489375114440918
552;0.0;0.0;0.0;0.23716799914836884;-0.028303999453783035;1.1233760118484497;0.0;0.0;0.0
554;0.0;0.0;0.0;0.25278398394584656;-0.024399999529123306;1.0823839902877808;0.0;0.0;0.0
556;0.0;0.0;0.0;0.2449759989976883;-0.0634399950504303;1.0950720310211182;0.0;0.0;0.0
558;0.1349319964647293;0.09174399822950363;0.9555040001869202;0.25278398394584656;-0.04782399907708168;1.0784800052642822;21.923124313354492;-15.688750267028809;11.099374771118164
561;0.0;0.0;0.0;0.25278398394584656;-0.06734399497509003;1.0745760202407837;0.0;0.0;0.0
563;0.0;0.0;0.0;0.2449759989976883;-0.0634399950504303;1.0628639459609985;0.0;0.0;0.0
565;0.0;0.0;0.0;0.2449759989976883;-0.07905599474906921;1.0745760202407837;0.0;0.0;0.0
567;0.12492799758911133;0.07807999849319458;0.9420839548110962;0.24107199907302856;-0.04782399907708168;1.0706720352172852;19.54312515258789;-18.138750076293945;13.619375228881836
569;0.0;0.0;0.0;0.22545599937438965;-0.0634399950504303;1.0462720394134521;0.0;0.0;0.0
571;0.0;0.0;0.0;0.260591983795166;-0.05953599885106087;1.0706720352172852;0.0;0.0;0.0
573;0.0;0.0;0.0;0.2840159833431244;-0.06734399497509003;1.042367935180664;0.0;0.0;0.0
575;0.1407880038022995;0.06588000059127808;0.9306159615516663;0.2879199981689453;-0.0634399950504303;1.0589599609375;16.603124618530273;-22.268749237060547;15.719374656677246
578;0.0;0.0;0.0;0.2683999836444855;-0.05172799900174141;1.0628639459609985;0.0;0.0;0.0
580;0.0;0.0;0.0;0.31915199756622314;-0.04001599922776222;1.0579839944839478;0.0;0.0;0.0
582;0.0;0.0;0.0;0.29182398319244385;-0.07124799489974976;1.0296800136566162;0.0;0.0;0.0
584;0.17958399653434753;0.0651479959487915;0.9298839569091797;0.30353599786758423;-0.0907679945230484;1.034559965133667;13.383125305175781;-26.53874969482422;16.629375457763672
586;0.0;0.0;0.0;0.33476799726486206;-0.07905599474906921;1.042367935180664;0.0;0.0;0.0
588;0.0;0.0;0.0;0.3386719822883606;-0.09857599437236786;1.0218719244003296;0.0;0.0;0.0
590;0.0;0.0;0.0;0.3269599974155426;-0.10638399422168732;1.042367935180664;0.0;0.0;0.0
592;0.21130399405956268;0.03562399744987488;0.9015799760818481;0.350383996963501;-0.10247999429702759;1.0218719244003296;11.073124885559082;-28.638750076293945;15.089375495910645
595;0.0;0.0;0.0;0.34647998213768005;-0.1298079937696457;1.0140639543533325;0.0;0.0;0.0
597;0.0;0.0;0.0;0.3425759971141815;-0.11028799414634705;1.010159969329834;0.0;0.0;0.0
599;0.0;0.0;0.0;0.36209598183631897;-0.1298079937696457;1.010159969329834;0.0;0.0;0.0
601;0.23521599173545837;0.01878799870610237;0.8842560052871704;0.37380799651145935;-0.1298079937696457;1.0062559843063354;10.653124809265137;-27.30875015258789;10.749375343322754
603;0.0;0.0;0.0;0.3933279812335968;-0.13761599361896515;1.0013760328292847;0.0;0.0;0.0
605;0.0;0.0;0.0;0.3933279812335968;-0.14932799339294434;0.9769759774208069;0.0;0.0;0.0
607;0.0;0.0;0.0;0.3972319960594177;-0.1454239934682846;1.0013760328292847;0.0;0.0;0.0
609;0.264739990234375;-0.011467999778687954;0.8730319738388062;0.4001599848270416;-0.18836799263954163;1.0257760286331177;11.563125610351562;-23.248748779296875;6.409375190734863
612;0.0;0.0;0.0;0.4050399959087372;-0.3484320044517517;0.9164639711380005;0.0;0.0;0.0
614;0.0;0.0;0.0;0.29572799801826477;-0.1727519929409027;1.0218719244003296;0.0;0.0;0.0
616;0.0;0.0;0.0;0.3386719822883606;-0.032207999378442764;1.0589599609375;0.0;0.0;0.0
618;0.2256999909877777;-0.07612799853086472;0.875715970993042;0.31915199756622314;-0.27035200595855713;0.9818559885025024;15.483124732971191;-17.158748626708984;2.7693750858306885
620;0.0;0.0;0.0;0.33086398243904114;-0.20398399233818054;1.0501760244369507;0.0;0.0;0.0
622;0.0;0.0;0.0;0.33086398243904114;-0.1180959939956665;1.0823839902877808;0.0;0.0;0.0
624;0.0;0.0;0.0;0.3230559825897217;-0.0634399950504303;1.0989760160446167;0.0;0.0;0.0
626;0.21081599593162537;-0.01268799975514412;0.9311040043830872;0.3230559825897217;-0.14932799339294434;1.0384639501571655;15.7631254196167;-12.398750305175781;-0.6606249809265137
629;0.0;0.0;0.0;0.28011199831962585;-0.1844639927148819;1.0218719244003296;0.0;0.0;0.0
631;0.0;0.0;0.0;0.2996319830417633;-0.2000799924135208;1.0140639543533325;0.0;0.0;0.0
633;0.0;0.0;0.0;0.29182398319244385;-0.2000799924135208;1.0257760286331177;0.0;0.0;0.0
635;0.1727519929409027;-0.04806799814105034;0.8920639753341675;0.30743998289108276;-0.2235039919614792;1.0062559843063354;11.143125534057617;-10.508749961853027;2.909374952316284
637;0.0;0.0;0.0;0.2996319830417633;-0.24302399158477783;0.9730719923973083;0.0;0.0;0.0
639;0.0;0.0;0.0;0.2840159833431244;-0.23521599173545837;0.9896639585494995;0.0;0.0;0.0
641;0.0;0.0;0.0;0.33476799726486206;-0.21569599211215973;0.9896639585494995;0.0;0.0;0.0
643;0.18958799540996552;-0.0954039990901947;0.8701039552688599;0.33476799726486206;-0.23521599173545837;1.0140639543533325;15.483124732971191;-7.568749904632568;3.2593750953674316
646;0.0;0.0;0.0;0.3542879819869995;-0.23131199181079865;1.0140639543533325;0.0;0.0;0.0
648;0.0;0.0;0.0;0.3152479827404022;-0.21569599211215973;1.0384639501571655;0.0;0.0;0.0
650;0.0;0.0;0.0;0.33476799726486206;-0.21959999203681946;1.0501760244369507;0.0;0.0;0.0
652;0.20935200154781342;-0.09882000088691711;0.9013359546661377;0.3230559825897217;-0.27035200595855713;0.9974719882011414;21.783124923706055;-3.158750057220459;1.7193750143051147
654;0.0;0.0;0.0;0.33476799726486206;-0.2547360062599182;1.010159969329834;0.0;0.0;0.0
656;0.0;0.0;0.0;0.30743998289108276;-0.21959999203681946;1.0462720394134521;0.0;0.0;0.0
658;0.0;0.0;0.0;0.2840159833431244;-0.22740799188613892;1.0589599609375;0.0;0.0;0.0
660;0.18422000110149384;-0.11126399785280228;0.9128040075302124;0.27620798349380493;-0.24692799150943756;1.0384639501571655;24.933124542236328;-1.8287500143051147;0.039374999701976776
663;0.0;0.0;0.0;0.2840159833431244;-0.2117919921875;1.0540800094604492;0.0;0.0;0.0
665;0.0;0.0;0.0;0.30353599786758423;-0.24692799150943756;1.0628639459609985;0.0;0.0;0.0
667;0.0;0.0;0.0;0.30743998289108276;-0.26254400610923767;1.0589599609375;0.0;0.0;0.0
669;0.1698240041732788;-0.1117519959807396;0.9220759868621826;0.3113439977169037;-0.2664479911327362;1.042367935180664;23.953125;-3.4387500286102295;-2.4806249141693115
671;0.0;0.0;0.0;0.29572799801826477;-0.25863999128341675;1.0296800136566162;0.0;0.0;0.0
673;0.0;0.0;0.0;0.30743998289108276;-0.23521599173545837;1.0140639543533325;0.0;0.0;0.0
675;0.0;0.0;0.0;0.33086398243904114;-0.2781600058078766;1.0218719244003296;0.0;0.0;0.0
677;0.18885599076747894;-0.13346800208091736;0.907435953617096;0.31915199756622314;-0.25863999128341675;1.0257760286331177;21.433124542236328;-3.5787501335144043;-3.6006250381469727
680;0.0;0.0;0.0;0.33476799726486206;-0.2547360062599182;1.042367935180664;0.0;0.0;0.0
682;0.0;0.0;0.0;0.3152479827404022;-0.23131199181079865;1.0052800178527832;0.0;0.0;0.0
684;0.0;0.0;0.0;0.29182398319244385;-0.30158400535583496;1.0384639501571655;0.0;0.0;0.0
686;0.1908079981803894;-0.13566400110721588;0.9103639721870422;0.29572799801826477;-0.25863999128341675;1.0745760202407837;18.353124618530273;-1.058750033378601;-2.340625047683716
688;0.0;0.0;0.0;0.33086398243904114;-0.26254400610923767;1.0540800094604492;0.0;0.0;0.0
690;0.0;0.0;0.0;0.2566879987716675;-0.3093920052051544;1.0540800094604492;0.0;0.0;0.0
692;0.0;0.0;0.0;0.21374399960041046;-0.387472003698349;1.0296800136566162;0.0;0.0;0.0
694;0.13859200477600098;-0.18592800199985504;0.9096319675445557;0.1903200000524521;-0.40699198842048645;1.0218719244003296;14.503125190734863;-0.07874999940395355;1.5793750286102295
697;0.0;0.0;0.0;0.20203199982643127;-0.3054879903793335;1.0501760244369507;0.0;0.0;0.0
699;0.0;0.0;0.0;0.24107199907302856;-0.3601439893245697;1.0384639501571655;0.0;0.0;0.0
701;0.0;0.0;0.0;0.18641600012779236;-0.36795198917388916;1.0501760244369507;0.0;0.0;0.0
703;0.09637999534606934;-0.22033199667930603;0.9162200093269348;0.20983999967575073;-0.4030880033969879;1.034559965133667;14.923125267028809;-3.298750162124634;-0.8706250190734863
705;0.0;0.0;0.0;0.20203199982643127;-0.33671998977661133;1.0589599609375;0.0;0.0;0.0
707;0.0;0.0;0.0;0.19422399997711182;-0.36795198917388916;1.0628639459609985;0.0;0.0;0.0
709;0.0;0.0;0.0;0.20983999967575073;-0.36795198917388916;1.0501760244369507;0.0;0.0;0.0
711;0.08393599838018417;-0.22130799293518066;0.9332999587059021;0.19422399997711182;-0.34062400460243225;1.09116792678833;17.303123474121094;-12.328750610351562;-4.160624980926514
714;0.0;0.0;0.0;0.15908800065517426;-0.33671998977661133;1.0823839902877808;0.0;0.0;0.0
716;0.0;0.0;0.0;0.16299200057983398;-0.35233598947525024;1.0950720310211182;0.0;0.0;0.0
718;0.0;0.0;0.0;0.18251200020313263;-0.3601439893245697;1.066767930984497;0.0;0.0;0.0
720;0.06075599789619446;-0.22326000034809113;0.9462319612503052;0.18641600012779236;-0.3601439893245697;1.0628639459609985;19.193124771118164;-25.55875015258789;-6.050624847412109
722;0.0;0.0;0.0;0.2176479995250702;-0.36795198917388916;1.0589599609375;0.0;0.0;0.0
724;0.0;0.0;0.0;0.2332639992237091;-0.37966400384902954;1.0540800094604492;0.0;0.0;0.0
726;0.0;0.0;0.0;0.23716799914836884;-0.3835679888725281;1.0218719244003296;0.0;0.0;0.0
728;0.10394399613142014;-0.24277999997138977;0.9137799739837646;0.24107199907302856;-0.3835679888725281;1.017967939376831;18.56312370300293;-36.96875;-8.220624923706055
731;0.0;0.0;0.0;0.2723039984703064;-0.3835679888725281;1.0140639543533325;0.0;0.0;0.0
733;0.0;0.0;0.0;0.27620798349380493;-0.3835679888725281;0.9896639585494995;0.0;0.0;0.0
735;0.0;0.0;0.0;0.2840159833431244;-0.387472003698349;0.9818559885025024;0.0;0.0;0.0
737;0.16299200057983398;-0.2593719959259033;0.8666880130767822;0.27620798349380493;-0.4108960032463074;0.9652639627456665;17.5831241607666;-41.028751373291016;-8.500624656677246
739;0.0;0.0;0.0;0.33086398243904114;-0.4147999882698059;0.9769759774208069;0.0;0.0;0.0
741;0.0;0.0;0.0;0.29182398319244385;-0.4265120029449463;0.9769759774208069;0.0;0.0;0.0
743;0.0;0.0;0.0;0.33476799726486206;-0.43432000279426575;0.9486719965934753;0.0;0.0;0.0
745;0.20325200259685516;-0.2793799936771393;0.8483879566192627;0.33476799726486206;-0.41870400309562683;0.9818559885025024;16.603124618530273;-36.89875030517578;-9.690625190734863
748;0.0;0.0;0.0;0.3425759971141815;-0.4382239878177643;1.0013760328292847;0.0;0.0;0.0
750;0.0;0.0;0.0;0.34647998213768005;-0.42260798811912537;1.010159969329834;0.0;0.0;0.0
752;0.0;0.0;0.0;0.31915199756622314;-0.44603198766708374;1.0013760328292847;0.0;0.0;0.0
754;0.21276798844337463;-0.29523998498916626;0.8730319738388062;0.33476799726486206;-0.4304159879684448;1.0052800178527832;14.713125228881836;-30.108749389648438;-11.720624923706055
756;0.0;0.0;0.0;0.33086398243904114;-0.41870400309562683;1.0296800136566162;0.0;0.0;0.0
758;0.0;0.0;0.0;0.30743998289108276;-0.4421280026435852;1.042367935180664;0.0;0.0;0.0
760;0.0;0.0;0.0;0.30743998289108276;-0.44603198766708374;1.042367935180664;0.0;0.0;0.0
763;0.18812400102615356;-0.3184199929237366;0.895967960357666;0.31915199756622314;-0.46164798736572266;1.0218719244003296;12.403124809265137;-26.53874969482422;-12.910625457763672
765;0.0;0.0;0.0;0.26449599862098694;-0.4967840015888214;1.0257760286331177;0.0;0.0;0.0
767;0.0;0.0;0.0;0.28011199831962585;-0.5084959864616394;1.0140639543533325;0.0;0.0;0.0
769;0.0;0.0;0.0;0.2879199981689453;-0.4811680018901825;1.010159969329834;0.0;0.0;0.0
771;0.1693359911441803;-0.35111600160598755;0.8930400013923645;0.28011199831962585;-0.5163040161132812;1.0257760286331177;11.35312557220459;-27.728750228881836;-15.360625267028809
773;0.0;0.0;0.0;0.2683999836444855;-0.4928799867630005;1.0296800136566162;0.0;0.0;0.0
775;0.0;0.0;0.0;0.27620798349380493;-0.4811680018901825;1.017967939376831;0.0;0.0;0.0
777;0.0;0.0;0.0;0.2566879987716675;-0.5084959864616394;1.0296800136566162;0.0;0.0;0.0
780;0.14981599152088165;-0.3669759929180145;0.8925519585609436;0.26449599862098694;-0.5163040161132812;1.0384639501571655;11.003125190734863;-30.87874984741211;-19.420625686645508
782;0.0;0.0;0.0;0.24887999892234802;-0.5045920014381409;1.034559965133667;0.0;0.0;0.0
784;0.0;0.0;0.0;0.2683999836444855;-0.5084959864616394;1.010159969329834;0.0;0.0;0.0
786;0.0;0.0;0.0;0.26449599862098694;-0.5045920014381409;0.9896639585494995;0.0;0.0;0.0
788;0.13419999182224274;-0.36111998558044434;0.8803519606590271;0.2449759989976883;-0.48897600173950195;0.9974719882011414;10.79312515258789;-34.30875015258789;-24.740625381469727
790;0.0;0.0;0.0;0.2879199981689453;-0.48507198691368103;0.9935680031776428;0.0;0.0;0.0
792;0.0;0.0;0.0;0.26449599862098694;-0.48897600173950195;0.961359977722168;0.0;0.0;0.0
794;0.0;0.0;0.0;0.26449599862098694;-0.4577440023422241;0.9935680031776428;0.0;0.0;0.0
797;0.15030398964881897;-0.3369639813899994;0.8549759984016418;0.30743998289108276;-0.44993600249290466;0.9730719923973083;10.583125114440918;-34.938751220703125;-28.80062484741211
799;0.0;0.0;0.0;0.2840159833431244;-0.44993600249290466;0.9691680073738098;0.0;0.0;0.0
801;0.0;0.0;0.0;0.2566879987716675;-0.4577440023422241;0.9652639627456665;0.0;0.0;0.0
803;0.0;0.0;0.0;0.260591983795166;-0.4382239878177643;0.9769759774208069;0.0;0.0;0.0
805;0.1437159925699234;-0.3215920031070709;0.8461920022964478;0.260591983795166;-0.43432000279426575;0.9730719923973083;8.693124771118164;-31.228750228881836;-31.46062469482422
807;0.0;0.0;0.0;0.25278398394584656;-0.4421280026435852;0.9535520076751709;0.0;0.0;0.0
809;0.0;0.0;0.0;0.24107199907302856;-0.41870400309562683;0.9769759774208069;0.0;0.0;0.0
811;0.0;0.0;0.0;0.2176479995250702;-0.4382239878177643;0.9730719923973083;0.0;0.0;0.0
814;0.12809999287128448;-0.3020719885826111;0.8532679677009583;0.22935999929904938;-0.4304159879684448;0.9818559885025024;3.7231252193450928;-22.89875030517578;-33.490623474121094
816;0.0;0.0;0.0;0.2332639992237091;-0.4304159879684448;0.9896639585494995;0.0;0.0;0.0
818;0.0;0.0;0.0;0.2176479995250702;-0.40699198842048645;0.9974719882011414;0.0;0.0;0.0
820;0.0;0.0;0.0;0.22545599937438965;-0.40699198842048645;0.9935680031776428;0.0;0.0;0.0
822;0.10199199616909027;-0.2979239821434021;0.8632720112800598;0.20983999967575073;-0.43432000279426575;1.0013760328292847;-2.786875009536743;-10.998750686645508;-34.680625915527344
824;0.0;0.0;0.0;0.18641600012779236;-0.44993600249290466;1.0052800178527832;0.0;0.0;0.0
826;0.0;0.0;0.0;0.1903200000524521;-0.4382239878177643;0.9935680031776428;0.0;0.0;0.0
828;0.0;0.0;0.0;0.17470400035381317;-0.44603198766708374;1.0384639501571655;0.0;0.0;0.0
831;0.058803997933864594;-0.3140279948711395;0.8815720081329346;0.14054399728775024;-0.47336000204086304;0.9935680031776428;-8.246874809265137;1.6712499856948853;-35.240623474121094
833;0.0;0.0;0.0;0.12883199751377106;-0.43432000279426575;1.0540800094604492;0.0;0.0;0.0
835;0.0;0.0;0.0;0.12492799758911133;-0.4772639870643616;1.0589599609375;0.0;0.0;0.0
837;0.0;0.0;0.0;0.08198399841785431;-0.4928799867630005;1.0501760244369507;0.0;0.0;0.0
839;-0.014883999712765217;-0.34696799516677856;0.9081679582595825;0.05075199902057648;-0.4928799867630005;1.0462720394134521;-11.046875;12.451250076293945;-35.520626068115234
841;0.0;0.0;0.0;0.031231999397277832;-0.5045920014381409;1.0706720352172852;0.0;0.0;0.0
843;0.0;0.0;0.0;0.023423999547958374;-0.48507198691368103;1.0872639417648315;0.0;0.0;0.0
845;0.0;0.0;0.0;0.031231999397277832;-0.48897600173950195;1.0784800052642822;0.0;0.0;0.0
848;-0.08686399459838867;-0.3625839948654175;0.9437919855117798;0.007807999849319458;-0.4967840015888214;1.09116792678833;-11.116874694824219;20.431251525878906;-37.48062515258789
850;0.0;0.0;0.0;-0.015615999698638916;-0.4967840015888214;1.0950720310211182;0.0;0.0;0.0
852;0.0;0.0;0.0;-0.04294399917125702;-0.48897600173950195;1.1028800010681152;0.0;0.0;0.0
854;0.0;0.0;0.0;-0.058559998869895935;-0.4928799867630005;1.1106879711151123;0.0;0.0;0.0
856;-0.16787199676036835;-0.35941198468208313;0.9723399877548218;-0.13176000118255615;-0.5123999714851379;1.1272799968719482;-8.45687484741211;23.791250228881836;-37.48062515258789
858;0.0;0.0;0.0;-0.13176000118255615;-0.4967840015888214;1.1272799968719482;0.0;0.0;0.0
860;0.0;0.0;0.0;-0.1239520013332367;-0.5163040161132812;1.1360639333724976;0.0;0.0;0.0
862;0.0;0.0;0.0;-0.16299200057983398;-0.5006880164146423;1.107759952545166;0.0;0.0;0.0
865;-0.25986000895500183;-0.36795198917388916;0.9969840049743652;-0.1395680010318756;-0.4772639870643616;1.1438720226287842;-5.796875;19.451250076293945;-36.360626220703125
867;0.0;0.0;0.0;-0.1395680010318756;-0.5280159711837769;1.1438720226287842;0.0;0.0;0.0
869;0.0;0.0;0.0;-0.15908800065517426;-0.4967840015888214;1.1594879627227783;0.0;0.0;0.0
871;0.0;0.0;0.0;-0.14347200095653534;-0.5006880164146423;1.1311839818954468;0.0;0.0;0.0
873;-0.27035200595855713;-0.3774679899215698;1.017967939376831;-0.17080000042915344;-0.5202080011367798;1.1438720226287842;-6.286874771118164;14.341249465942383;-35.170623779296875
875;0.0;0.0;0.0;-0.1903200000524521;-0.5280159711837769;1.1799839735031128;0.0;0.0;0.0
877;0.0;0.0;0.0;-0.2176479995250702;-0.5123999714851379;1.1633919477462769;0.0;0.0;0.0
879;0.0;0.0;0.0;-0.22935999929904938;-0.5319200158119202;1.1799839735031128;0.0;0.0;0.0
882;-0.3408679962158203;-0.3806400001049042;1.048956036567688;-0.2449759989976883;-0.48507198691368103;1.1838879585266113;-8.806875228881836;12.87125015258789;-32.37062454223633
884;0.0;0.0;0.0;-0.22545599937438965;-0.5123999714851379;1.1877919435501099;0.0;0.0;0.0
886;0.0;0.0;0.0;-0.2176479995250702;-0.5084959864616394;1.1965759992599487;0.0;0.0;0.0
888;0.0;0.0;0.0;-0.2332639992237091;-0.5045920014381409;1.2004799842834473;0.0;0.0;0.0
890;-0.36209598183631897;-0.3740519881248474;1.0640839338302612;-0.2683999836444855;-0.5280159711837769;1.2082879543304443;-10.976875305175781;12.38124942779541;-28.380624771118164
892;0.0;0.0;0.0;-0.24887999892234802;-0.5084959864616394;1.1877919435501099;0.0;0.0;0.0
894;0.0;0.0;0.0;-0.21374399960041046;-0.5358240008354187;1.1799839735031128;0.0;0.0;0.0
896;0.0;0.0;0.0;-0.21374399960041046;-0.5280159711837769;1.1887680292129517;0.0;0.0;0.0
899;-0.3369639813899994;-0.38771599531173706;1.0584720373153687;-0.1903200000524521;-0.5163040161132812;1.2004799842834473;-8.876874923706055;11.12125015258789;-23.340625762939453
901;0.0;0.0;0.0;-0.205935999751091;-0.5319200158119202;1.2248799800872803;0.0;0.0;0.0
903;0.0;0.0;0.0;-0.18641600012779236;-0.4928799867630005;1.1926720142364502;0.0;0.0;0.0
905;0.0;0.0;0.0;-0.2332639992237091;-0.48507198691368103;1.2043839693069458;0.0;0.0;0.0
907;-0.3264719843864441;-0.3794199824333191;1.0665240287780762;-0.20203199982643127;-0.5006880164146423;1.2004799842834473;-3.6968748569488525;9.581250190734863;-18.440624237060547
910;0.0;0.0;0.0;-0.20983999967575073;-0.4928799867630005;1.1721760034561157;0.0;0.0;0.0
911;0.0;0.0;0.0;-0.22155199944972992;-0.5045920014381409;1.1760799884796143;0.0;0.0;0.0
913;0.0;0.0;0.0;-0.18641600012779236;-0.5045920014381409;1.1594879627227783;0.0;0.0;0.0
916;-0.33086398243904114;-0.36795198917388916;1.0487120151519775;-0.20983999967575073;-0.4928799867630005;1.1721760034561157;1.9031250476837158;5.31125020980835;-18.090625762939453
918;0.0;0.0;0.0;-0.2176479995250702;-0.47336000204086304;1.1682720184326172;0.0;0.0;0.0
920;0.0;0.0;0.0;-0.2176479995250702;-0.4811680018901825;1.1477760076522827;0.0;0.0;0.0
922;0.0;0.0;0.0;-0.19422399997711182;-0.4928799867630005;1.1477760076522827;0.0;0.0;0.0
924;-0.32891198992729187;-0.35526400804519653;1.0218719244003296;-0.15908800065517426;-0.5045920014381409;1.115567922592163;7.083125114440918;3.4912500381469727;-24.180625915527344
926;0.0;0.0;0.0;-0.1512800008058548;-0.5123999714851379;1.1067839860916138;0.0;0.0;0.0
928;0.0;0.0;0.0;-0.11224000155925751;-0.5045920014381409;1.0950720310211182;0.0;0.0;0.0
930;0.0;0.0;0.0;-0.13176000118255615;-0.4811680018901825;1.0989760160446167;0.0;0.0;0.0
933;-0.2564440071582794;-0.350383996963501;0.9779520034790039;-0.14347200095653534;-0.4655520021915436;1.1194720268249512;11.35312557220459;0.9012500047683716;-27.470624923706055
935;0.0;0.0;0.0;-0.13176000118255615;-0.47336000204086304;1.1116639375686646;0.0;0.0;0.0
937;0.0;0.0;0.0;-0.1668960005044937;-0.4694559872150421;1.1272799968719482;0.0;0.0;0.0
939;0.0;0.0;0.0;-0.15518400073051453;-0.4382239878177643;1.0989760160446167;0.0;0.0;0.0
941;-0.2840159833431244;-0.3198840022087097;0.9855159521102905;-0.1786080002784729;-0.4304159879684448;1.1116639375686646;10.86312484741211;-0.21875;-29.220624923706055
943;0.0;0.0;0.0;-0.205935999751091;-0.4304159879684448;1.1233760118484497;0.0;0.0;0.0
945;0.0;0.0;0.0;-0.1903200000524521;-0.41870400309562683;1.1028800010681152;0.0;0.0;0.0
948;0.0;0.0;0.0;-0.20203199982643127;-0.4577440023422241;1.0989760160446167;0.0;0.0;0.0
950;-0.3169559836387634;-0.3020719885826111;0.981611967086792;-0.17470400035381317;-0.43432000279426575;1.1272799968719482;5.753125190734863;2.3712499141693115;-32.37062454223633
952;0.0;0.0;0.0;-0.17470400035381317;-0.4655520021915436;1.1067839860916138;0.0;0.0;0.0
954;0.0;0.0;0.0;-0.1903200000524521;-0.43432000279426575;1.0784800052642822;0.0;0.0;0.0
956;0.0;0.0;0.0;-0.22155199944972992;-0.40699198842048645;1.0872639417648315;0.0;0.0;0.0
958;-0.3106119930744171;-0.3013399839401245;0.9659959673881531;-0.22545599937438965;-0.46164798736572266;1.1067839860916138;1.6931250095367432;6.921250343322754;-33.91062545776367
960;0.0;0.0;0.0;-0.20203199982643127;-0.4382239878177643;1.1028800010681152;0.0;0.0;0.0
962;0.0;0.0;0.0;-0.2176479995250702;-0.43432000279426575;1.115567922592163;0.0;0.0;0.0
964;0.0;0.0;0.0;-0.21374399960041046;-0.39528000354766846;1.1350879669189453;0.0;0.0;0.0
967;-0.32915598154067993;-0.28596800565719604;0.9874680042266846;-0.22545599937438965;-0.4147999882698059;1.1555839776992798;0.8531249761581421;9.44124984741211;-32.72062683105469
969;0.0;0.0;0.0;-0.22545599937438965;-0.387472003698349;1.1594879627227783;0.0;0.0;0.0
971;0.0;0.0;0.0;-0.2449759989976883;-0.40699198842048645;1.1516799926757812;0.0;0.0;0.0
973;0.0;0.0;0.0;-0.2332639992237091;-0.3757599890232086;1.1643680334091187;0.0;0.0;0.0
975;-0.35111600160598755;-0.2669360041618347;1.040903925895691;-0.2449759989976883;-0.399183988571167;1.1926720142364502;-0.2668749988079071;7.691250324249268;-29.640625
977;0.0;0.0;0.0;-0.2996319830417633;-0.387472003698349;1.1721760034561157;0.0;0.0;0.0
979;0.0;0.0;0.0;-0.28011199831962585;-0.3718560039997101;1.1838879585266113;0.0;0.0;0.0
982;0.0;0.0;0.0;-0.2879199981689453;-0.3640480041503906;1.2004799842834473;0.0;0.0;0.0
984;-0.39698800444602966;-0.24765999615192413;1.060912013053894;-0.2879199981689453;-0.37966400384902954;1.1887680292129517;-2.0868749618530273;1.3212499618530273;-27.750625610351562
986;0.0;0.0;0.0;-0.2683999836444855;-0.3718560039997101;1.2043839693069458;0.0;0.0;0.0
988;0.0;0.0;0.0;-0.25278398394584656;-0.37966400384902954;1.2121919393539429;0.0;0.0;0.0
990;0.0;0.0;0.0;-0.2449759989976883;-0.36795198917388916;1.2082879543304443;0.0;0.0;0.0
992;-0.3608759939670563;-0.2408279925584793;1.073356032371521;-0.22935999929904938;-0.387472003698349;1.2082879543304443;-5.026875019073486;-6.378749847412109;-27.330625534057617
994;0.0;0.0;0.0;-0.20983999967575073;-0.3835679888725281;1.2082879543304443;0.0;0.0;0.0
996;0.0;0.0;0.0;-0.24107199907302856;-0.3835679888725281;1.2082879543304443;0.0;0.0;0.0
999;0.0;0.0;0.0;-0.25278398394584656;-0.3757599890232086;1.1643680334091187;0.0;0.0;0.0
1001;-0.350383996963501;-0.24448800086975098;1.0577399730682373;-0.2332639992237091;-0.4030880033969879;1.1760799884796143;-7.336874961853027;-6.868749618530273;-27.330625534057617
1003;0.0;0.0;0.0;-0.23716799914836884;-0.4030880033969879;1.1555839776992798;0.0;0.0;0.0
1005;0.0;0.0;0.0;-0.22935999929904938;-0.3640480041503906;1.1516799926757812;0.0;0.0;0.0
1007;0.0;0.0;0.0;-0.23716799914836884;-0.3640480041503906;1.139967918395996;0.0;0.0;0.0
1009;-0.36111998558044434;-0.24424399435520172;1.030411958694458;-0.260591983795166;-0.3445279896259308;1.1887680292129517;-5.166874885559082;-3.9287500381469727;-27.05062484741211
1011;0.0;0.0;0.0;-0.25278398394584656;-0.32500800490379333;1.1682720184326172;0.0;0.0;0.0
1013;0.0;0.0;0.0;-0.22545599937438965;-0.32500800490379333;1.1555839776992798;0.0;0.0;0.0
1016;0.0;0.0;0.0;-0.22935999929904938;-0.3054879903793335;1.1594879627227783;0.0;0.0;0.0
1018;-0.35989999771118164;-0.187391996383667;1.028216004371643;-0.24107199907302856;-0.2820639908313751;1.1555839776992798;-0.3368750214576721;-1.3387500047683716;-25.0206241607666
1020;0.0;0.0;0.0;-0.25278398394584656;-0.2664479911327362;1.1555839776992798;0.0;0.0;0.0
1022;0.0;0.0;0.0;-0.23716799914836884;-0.2547360062599182;1.1555839776992798;0.0;0.0;0.0
1024;0.0;0.0;0.0;-0.23716799914836884;-0.21959999203681946;1.1643680334091187;0.0;0.0;0.0
1026;-0.34404000639915466;-0.11785199493169785;1.0274839401245117;-0.17080000042915344;-0.20398399233818054;1.1194720268249512;3.3731250762939453;2.721250057220459;-21.240625381469727
1028;0.0;0.0;0.0;-0.18251200020313263;-0.2391199916601181;1.1116639375686646;0.0;0.0;0.0
1030;0.0;0.0;0.0;-0.21374399960041046;-0.23521599173545837;1.1233760118484497;0.0;0.0;0.0
1033;0.0;0.0;0.0;-0.20983999967575073;-0.2391199916601181;1.1028800010681152;0.0;0.0;0.0
1035;-0.3235439956188202;-0.10028399527072906;0.9906399846076965;-0.17470400035381317;-0.20788799226284027;1.1067839860916138;4.423125267028809;11.611249923706055;-14.660625457763672
1037;0.0;0.0;0.0;-0.19422399997711182;-0.19227199256420135;1.139967918395996;0.0;0.0;0.0
1039;0.0;0.0;0.0;-0.21374399960041046;-0.18836799263954163;1.1116639375686646;0.0;0.0;0.0
1041;0.0;0.0;0.0;-0.19812799990177155;-0.19617599248886108;1.1194720268249512;0.0;0.0;0.0
1043;-0.3379400074481964;-0.06588000059127808;0.9818559885025024;-0.25278398394584656;-0.1844639927148819;1.1311839818954468;3.9331250190734863;22.181251525878906;-7.100625038146973
1045;0.0;0.0;0.0;-0.25278398394584656;-0.18836799263954163;1.1233760118484497;0.0;0.0;0.0
1047;0.0;0.0;0.0;-0.27620798349380493;-0.1844639927148819;1.1272799968719482;0.0;0.0;0.0
1050;0.0;0.0;0.0;-0.29182398319244385;-0.21959999203681946;1.1194720268249512;0.0;0.0;0.0
1052;-0.39528000354766846;-0.0680759996175766;0.9882000088691711;-0.29572799801826477;-0.18836799263954163;1.1233760118484497;0.013125002384185791;31.001251220703125;-1.640625
1054;0.0;0.0;0.0;-0.30353599786758423;-0.2000799924135208;1.1555839776992798;0.0;0.0;0.0
1056;0.0;0.0;0.0;-0.30743998289108276;-0.21569599211215973;1.1555839776992798;0.0;0.0;0.0
1058;0.0;0.0;0.0;-0.2996319830417633;-0.1727519929409027;1.1477760076522827;0.0;0.0;0.0
1060;-0.4289519786834717;-0.04879999905824661;1.016260027885437;-0.30353599786758423;-0.1571359932422638;1.1926720142364502;-1.386875033378601;33.17124938964844;1.0193750858306885
1062;0.0;0.0;0.0;-0.28011199831962585;-0.13371199369430542;1.1838879585266113;0.0;0.0;0.0
1064;0.0;0.0;0.0;-0.3230559825897217;-0.1180959939956665;1.1926720142364502;0.0;0.0;0.0
1067;0.0;0.0;0.0;-0.3230559825897217;-0.1298079937696457;1.2082879543304443;0.0;0.0;0.0
1069;-0.4345639944076538;-0.0017079999670386314;1.0555440187454224;-0.28011199831962585;-0.11419199407100677;1.2043839693069458;-1.386875033378601;26.381250381469727;6.759375095367432
1071;0.0;0.0;0.0;-0.2879199981689453;-0.12199999392032623;1.1721760034561157;0.0;0.0;0.0
1073;0.0;0.0;0.0;-0.2840159833431244;-0.10247999429702759;1.1877919435501099;0.0;0.0;0.0
1075;0.0;0.0;0.0;-0.2566879987716675;-0.12199999392032623;1.1838879585266113;0.0;0.0;0.0
1077;-0.40162399411201477;0.014639999717473984;1.056764006614685;-0.2683999836444855;-0.0907679945230484;1.1926720142364502;-1.8768750429153442;14.411250114440918;13.689374923706055
1079;0.0;0.0;0.0;-0.23716799914836884;-0.05953599885106087;1.2043839693069458;0.0;0.0;0.0
1081;0.0;0.0;0.0;-0.2176479995250702;-0.11028799414634705;1.1643680334091187;0.0;0.0;0.0
1084;0.0;0.0;0.0;-0.2332639992237091;-0.1298079937696457;1.1360639333724976;0.0;0.0;0.0
1086;-0.36502400040626526;0.020495999604463577;1.0367560386657715;-0.2566879987716675;-0.19227199256420135;1.0950720310211182;-2.296875;4.331250190734863;19.009374618530273
1088;0.0;0.0;0.0;-0.21374399960041046;-0.0634399950504303;1.1721760034561157;0.0;0.0;0.0
1090;0.0;0.0;0.0;-0.11614400148391724;-0.06734399497509003;1.1682720184326172;0.0;0.0;0.0
1092;0.0;0.0;0.0;-0.15908800065517426;-0.05953599885106087;1.1643680334091187;0.0;0.0;0.0
1094;-0.293287992477417;0.0558759979903698;1.0326080322265625;-0.1512800008058548;-0.05953599885106087;1.1643680334091187;-1.3168749809265137;0.3412500023841858;21.109375
1096;0.0;0.0;0.0;-0.11614400148391724;-0.07905599474906921;1.139967918395996;0.0;0.0;0.0
1098;0.0;0.0;0.0;-0.11614400148391724;-0.08686399459838867;1.1438720226287842;0.0;0.0;0.0
1101;0.0;0.0;0.0;-0.13566400110721588;-0.07124799489974976;1.1516799926757812;0.0;0.0;0.0
1103;-0.23814399540424347;0.052216000854969025;1.028216004371643;-0.08881600201129913;-0.09467199444770813;1.1604639291763306;-4.466875076293945;0.6212500333786011;23.76937484741211
1105;0.0;0.0;0.0;-0.08979199826717377;-0.07124799489974976;1.1682720184326172;0.0;0.0;0.0
1107;0.0;0.0;0.0;-0.062463998794555664;-0.08295999467372894;1.1721760034561157;0.0;0.0;0.0
1109;0.0;0.0;0.0;-0.04294399917125702;-0.0907679945230484;1.1838879585266113;0.0;0.0;0.0
1111;-0.183243989944458;0.03952799737453461;1.0416359901428223;-0.011711999773979187;-0.05563199892640114;1.1643680334091187;-5.726874828338623;2.161249876022339;23.4893741607666
1113;0.0;0.0;0.0;-0.054655998945236206;-0.0634399950504303;1.2121919393539429;0.0;0.0;0.0
1115;0.0;0.0;0.0;-0.019519999623298645;-0.05563199892640114;1.2043839693069458;0.0;0.0;0.0
1118;0.0;0.0;0.0;0.007807999849319458;-0.05563199892640114;1.2365919351577759;0.0;0.0;0.0
1120;-0.13834799826145172;0.07490799576044083;1.075551986694336;0.003903999924659729;-0.04782399907708168;1.1887680292129517;-5.726874828338623;2.4412500858306885;24.959375381469727
1122;0.0;0.0;0.0;-0.027327999472618103;-0.07124799489974976;1.2287839651107788;0.0;0.0;0.0
1124;0.0;0.0;0.0;-0.023423999547958374;-0.04391999915242195;1.2287839651107788;0.0;0.0;0.0
1126;0.0;0.0;0.0;-0.011711999773979187;-0.028303999453783035;1.2043839693069458;0.0;0.0;0.0
1128;-0.13883599638938904;0.0861319974064827;1.0828720331192017;-0.007807999849319458;-0.05563199892640114;1.2287839651107788;-5.586874961853027;2.021250009536743;25.2393741607666
1131;0.0;0.0;0.0;-0.003903999924659729;-0.0634399950504303;1.2043839693069458;0.0;0.0;0.0
1132;0.0;0.0;0.0;0.015615999698638916;-0.05172799900174141;1.2082879543304443;0.0;0.0;0.0
1135;0.0;0.0;0.0;0.019519999623298645;-0.03611199930310249;1.1926720142364502;0.0;0.0;0.0
1137;-0.10369999706745148;0.08393599838018417;1.0704280138015747;0.03513599932193756;-0.04782399907708168;1.2043839693069458;-4.186874866485596;2.3712499141693115;25.51937484741211
1139;0.0;0.0;0.0;0.08198399841785431;-0.028303999453783035;1.2043839693069458;0.0;0.0;0.0
1141;0.0;0.0;0.0;0.062463998794555664;-0.004879999905824661;1.1926720142364502;0.0;0.0;0.0
1143;0.0;0.0;0.0;0.07417599856853485;-0.01268799975514412;1.2004799842834473;0.0;0.0;0.0
1145;-0.057583998888731;0.10955599695444107;1.0562759637832642;0.08198399841785431;0.014639999717473984;1.2004799842834473;-2.856874942779541;6.011250019073486;26.219375610351562
1148;0.0;0.0;0.0;0.08979199826717377;-0.00878399983048439;1.1838879585266113;0.0;0.0;0.0
1149;0.0;0.0;0.0;0.08198399841785431;-0.0009759999811649323;1.1799839735031128;0.0;0.0;0.0
1152;0.0;0.0;0.0;0.09759999811649323;0.018543999642133713;1.1799839735031128;0.0;0.0;0.0
1154;-0.030743999406695366;0.13371199369430542;1.0482239723205566;0.10150399804115295;0.014639999717473984;1.1760799884796143;-2.5068747997283936;11.611249923706055;26.499374389648438
1156;0.0;0.0;0.0;0.08979199826717377;-0.04001599922776222;1.1965759992599487;0.0;0.0;0.0
1158;0.0;0.0;0.0;0.09759999811649323;-0.0009759999811649323;1.1887680292129517;0.0;0.0;0.0
1160;0.0;0.0;0.0;0.08198399841785431;0.0029279999434947968;1.1887680292129517;0.0;0.0;0.0
1162;-0.03537999838590622;0.13517600297927856;1.0543240308761597;0.04684799909591675;0.006831999868154526;1.1965759992599487;-2.716874837875366;16.021249771118164;26.849374771118164
1164;0.0;0.0;0.0;0.058559998869895935;-0.004879999905824661;1.1965759992599487;0.0;0.0;0.0
1167;0.0;0.0;0.0;0.062463998794555664;0.0302559994161129;1.1965759992599487;0.0;0.0;0.0
1169;0.0;0.0;0.0;0.058559998869895935;0.006831999868154526;1.1799839735031128;0.0;0.0;0.0
1171;-0.052947998046875;0.14420399069786072;1.0648159980773926;0.058559998869895935;0.0302559994161129;1.1965759992599487;-2.9968748092651367;16.51125144958496;27.129375457763672
1173;0.0;0.0;0.0;0.08588799834251404;0.010735999792814255;1.2326879501342773;0.0;0.0;0.0
1175;0.0;0.0;0.0;0.08588799834251404;0.018543999642133713;1.2043839693069458;0.0;0.0;0.0
1177;0.0;0.0;0.0;0.12492799758911133;0.0302559994161129;1.1838879585266113;0.0;0.0;0.0
1179;-0.03147599846124649;0.15640400350093842;1.0635960102081299;0.10150399804115295;0.03415999934077263;1.1682720184326172;-3.1368749141693115;14.481249809265137;27.059375762939453
1182;0.0;0.0;0.0;0.11711999773979187;0.014639999717473984;1.1926720142364502;0.0;0.0;0.0
1184;0.0;0.0;0.0;0.10540799796581268;0.022447999566793442;1.1838879585266113;0.0;0.0;0.0
1186;0.0;0.0;0.0;0.10150399804115295;-0.01268799975514412;1.1887680292129517;0.0;0.0;0.0
1188;-0.010003999806940556;0.1454239934682846;1.0499320030212402;0.1210239976644516;0.018543999642133713;1.1643680334091187;-2.9968748092651367;13.361249923706055;27.26937484741211
1190;0.0;0.0;0.0;0.08198399841785431;0.006831999868154526;1.1594879627227783;0.0;0.0;0.0
1192;0.0;0.0;0.0;0.10150399804115295;0.006831999868154526;1.1594879627227783;0.0;0.0;0.0
1194;0.0;0.0;0.0;0.10540799796581268;0.014639999717473984;1.1594879627227783;0.0;0.0;0.0
1196;-0.018055999651551247;0.13761599361896515;1.0421240329742432;0.10150399804115295;0.010735999792814255;1.1838879585266113;-2.786875009536743;12.731249809265137;27.549375534057617
1199;0.0;0.0;0.0;0.10150399804115295;-0.0009759999811649323;1.1799839735031128;0.0;0.0;0.0
1201;0.0;0.0;0.0;0.09759999811649323;0.0029279999434947968;1.1682720184326172;0.0;0.0;0.0
1203;0.0;0.0;0.0;0.12492799758911133;0.0029279999434947968;1.1594879627227783;0.0;0.0;0.0
1205;-0.007807999849319458;0.14103199541568756;1.042855978012085;0.10150399804115295;-0.0009759999811649323;1.1643680334091187;-2.856874942779541;11.891249656677246;27.829374313354492
1207;0.0;0.0;0.0;0.10150399804115295;-0.01268799975514412;1.1799839735031128;0.0;0.0;0.0
1209;0.0;0.0;0.0;0.11711999773979187;0.02635199949145317;1.1926720142364502;0.0;0.0;0.0
1211;0.0;0.0;0.0;0.11711999773979187;-0.004879999905824661;1.1887680292129517;0.0;0.0;0.0
1213;-0.009271999821066856;0.14005599915981293;1.0467599630355835;0.10931199789047241;0.018543999642133713;1.2043839693069458;-2.9968748092651367;9.7212495803833;28.109375
1216;0.0;0.0;0.0;0.07807999849319458;0.03806399926543236;1.1965759992599487;0.0;0.0;0.0
1218;0.0;0.0;0.0;0.09759999811649323;0.02635199949145317;1.2043839693069458;0.0;0.0;0.0
1220;0.0;0.0;0.0;0.11321599781513214;0.0029279999434947968;1.1838879585266113;0.0;0.0;0.0
1222;-0.009027999825775623;0.15201199054718018;1.0701839923858643;0.15615999698638916;0.0302559994161129;1.2082879543304443;-3.6268749237060547;3.981250047683716;27.549375534057617
1224;0.0;0.0;0.0;0.10931199789047241;0.03806399926543236;1.2209759950637817;0.0;0.0;0.0
1226;0.0;0.0;0.0;0.12492799758911133;0.045871999114751816;1.2248799800872803;0.0;0.0;0.0
1228;0.0;0.0;0.0;0.11321599781513214;0.045871999114751816;1.2004799842834473;0.0;0.0;0.0
1230;-0.00024399999529123306;0.16616399586200714;1.0850679874420166;0.1210239976644516;0.045871999114751816;1.2209759950637817;-4.606874942779541;-3.71875;25.7293758392334
1233;0.0;0.0;0.0;0.10931199789047241;0.04196799919009209;1.2326879501342773;0.0;0.0;0.0
1235;0.0;0.0;0.0;0.11321599781513214;0.053679998964071274;1.2004799842834473;0.0;0.0;0.0
1237;0.0;0.0;0.0;0.10931199789047241;0.057583998888731;1.2209759950637817;0.0;0.0;0.0
1239;0.0009759999811649323;0.1756799966096878;1.0809199810028076;0.1210239976644516;0.03806399926543236;1.1926720142364502;-4.326874732971191;-11.2787504196167;23.06937599182129
1241;0.0;0.0;0.0;0.14444799721240997;0.0849120020866394;1.2170720100402832;0.0;0.0;0.0
1243;0.0;0.0;0.0;0.16396799683570862;0.06539200246334076;1.1887680292129517;0.0;0.0;0.0
1245;0.0;0.0;0.0;0.18251200020313263;0.0849120020866394;1.1887680292129517;0.0;0.0;0.0
1247;0.04416399821639061;0.20959599316120148;1.065303921699524;0.1786080002784729;0.08881600201129913;1.2004799842834473;-2.786875009536743;-17.438749313354492;21.03937530517578
1250;0.0;0.0;0.0;0.20983999967575073;0.10052800178527832;1.1838879585266113;0.0;0.0;0.0
1252;0.0;0.0;0.0;0.22155199944972992;0.10833600163459778;1.1643680334091187;0.0;0.0;0.0
1254;0.0;0.0;0.0;0.26449599862098694;0.09662400186061859;1.1760799884796143;0.0;0.0;0.0
1256;0.11760799586772919;0.22496800124645233;1.047003984451294;0.2879199981689453;0.10833600163459778;1.1838879585266113;-0.19687500596046448;-17.298749923706055;20.129375457763672
1258;0.0;0.0;0.0;0.26449599862098694;0.09662400186061859;1.1721760034561157;0.0;0.0;0.0
1260;0.0;0.0;0.0;0.27620798349380493;0.10443200170993805;1.1721760034561157;0.0;0.0;0.0
1262;0.0;0.0;0.0;0.29182398319244385;0.12004800140857697;1.1682720184326172;0.0;0.0;0.0
1264;0.1622599959373474;0.23692399263381958;1.0389519929885864;0.29572799801826477;0.1395680010318756;1.1477760076522827;2.8131251335144043;-12.188750267028809;20.899375915527344
1267;0.0;0.0;0.0;0.30353599786758423;0.12785600125789642;1.1643680334091187;0.0;0.0;0.0
1269;0.0;0.0;0.0;0.2996319830417633;0.12785600125789642;1.1877919435501099;0.0;0.0;0.0
1271;0.0;0.0;0.0;0.3230559825897217;0.12004800140857697;1.1643680334091187;0.0;0.0;0.0
1273;0.17616799473762512;0.24692799150943756;1.0313879251480103;0.2840159833431244;0.12785600125789642;1.1477760076522827;5.543125152587891;-4.978749752044678;22.439374923706055
1275;0.0;0.0;0.0;0.30743998289108276;0.13176000118255615;1.1438720226287842;0.0;0.0;0.0
1277;0.0;0.0;0.0;0.2996319830417633;0.14737600088119507;1.1438720226287842;0.0;0.0;0.0
1279;0.0;0.0;0.0;0.33476799726486206;0.12785600125789642;1.1516799926757812;0.0;0.0;0.0
1281;0.19617599248886108;0.26498398184776306;1.02211594581604;0.3230559825897217;0.12004800140857697;1.1477760076522827;7.153125286102295;2.161249876022339;23.4893741607666
1284;0.0;0.0;0.0;0.30353599786758423;0.15518400073051453;1.1516799926757812;0.0;0.0;0.0
1286;0.0;0.0;0.0;0.33086398243904114;0.15908800065517426;1.1311839818954468;0.0;0.0;0.0
1288;0.0;0.0;0.0;0.3542879819869995;0.13566400110721588;1.1194720268249512;0.0;0.0;0.0
1290;0.21081599593162537;0.2654719948768616;1.0111359357833862;0.3269599974155426;0.11224000155925751;1.1594879627227783;7.57312536239624;8.181249618530273;24.049375534057617
1292;0.0;0.0;0.0;0.3269599974155426;0.13566400110721588;1.1604639291763306;0.0;0.0;0.0
1294;0.0;0.0;0.0;0.30353599786758423;0.12785600125789642;1.1682720184326172;0.0;0.0;0.0
1296;0.0;0.0;0.0;0.3425759971141815;0.14347200095653534;1.1555839776992798;0.0;0.0;0.0
1298;0.2088640034198761;0.2588839828968048;1.024067997932434;0.3425759971141815;0.1395680010318756;1.1682720184326172;7.433125019073486;12.171249389648438;24.399375915527344
1301;0.0;0.0;0.0;0.33086398243904114;0.1668960005044937;1.1594879627227783;0.0;0.0;0.0
1303;0.0;0.0;0.0;0.3386719822883606;0.14347200095653534;1.1516799926757812;0.0;0.0;0.0
1305;0.0;0.0;0.0;0.350383996963501;0.12785600125789642;1.1838879585266113;0.0;0.0;0.0
1307;0.2176479995250702;0.27035200595855713;1.0384639501571655;0.3269599974155426;0.11614400148391724;1.2004799842834473;7.013124942779541;13.081250190734863;24.189374923706055
1309;0.0;0.0;0.0;0.3542879819869995;0.1512800008058548;1.1594879627227783;0.0;0.0;0.0
1311;0.0;0.0;0.0;0.3699039816856384;0.15518400073051453;1.1799839735031128;0.0;0.0;0.0
1313;0.0;0.0;0.0;0.3699039816856384;0.15518400073051453;1.1516799926757812;0.0;0.0;0.0
1315;0.23814399540424347;0.2786479890346527;1.042855978012085;0.3699039816856384;0.1512800008058548;1.1682720184326172;6.593125343322754;12.38124942779541;22.649375915527344
1318;0.0;0.0;0.0;0.3659999966621399;0.14737600088119507;1.1682720184326172;0.0;0.0;0.0
1320;0.0;0.0;0.0;0.36209598183631897;0.13566400110721588;1.1760799884796143;0.0;0.0;0.0
1322;0.0;0.0;0.0;0.37380799651145935;0.1395680010318756;1.1643680334091187;0.0;0.0;0.0
1324;0.25327199697494507;0.26962000131607056;1.0321199893951416;0.36209598183631897;0.12785600125789642;1.1350879669189453;6.803125381469727;13.2212495803833;20.619375228881836
1326;0.0;0.0;0.0;0.4050399959087372;0.13566400110721588;1.1477760076522827;0.0;0.0;0.0
1328;0.0;0.0;0.0;0.3699039816856384;0.1395680010318756;1.1721760034561157;0.0;0.0;0.0
1330;0.0;0.0;0.0;0.3777119815349579;0.11224000155925751;1.1760799884796143;0.0;0.0;0.0
1332;0.264739990234375;0.2635200023651123;1.0326080322265625;0.37380799651145935;0.1239520013332367;1.1682720184326172;7.363125324249268;16.021249771118164;17.469375610351562
1335;0.0;0.0;0.0;0.38844799995422363;0.12004800140857697;1.1760799884796143;0.0;0.0;0.0
1337;0.0;0.0;0.0;0.3659999966621399;0.0849120020866394;1.1799839735031128;0.0;0.0;0.0
1339;0.0;0.0;0.0;0.36209598183631897;0.11614400148391724;1.2004799842834473;0.0;0.0;0.0
1341;0.2571759819984436;0.2432679980993271;1.0633519887924194;0.3269599974155426;0.09272000193595886;1.2121919393539429;6.943125247955322;18.891250610351562;13.619375228881836
1343;0.0;0.0;0.0;0.3113439977169037;0.09272000193595886;1.2170720100402832;0.0;0.0;0.0
1345;0.0;0.0;0.0;0.29572799801826477;0.0849120020866394;1.2082879543304443;0.0;0.0;0.0
1347;0.0;0.0;0.0;0.30353599786758423;0.06539200246334076;1.2248799800872803;0.0;0.0;0.0
1349;0.17714399099349976;0.2134999930858612;1.0818959474563599;0.2723039984703064;0.06539200246334076;1.2121919393539429;6.803125381469727;19.87125015258789;9.559374809265137
1352;0.0;0.0;0.0;0.24107199907302856;0.0849120020866394;1.2121919393539429;0.0;0.0;0.0
1354;0.0;0.0;0.0;0.205935999751091;0.07320000231266022;1.2365919351577759;0.0;0.0;0.0
1356;0.0;0.0;0.0;0.2332639992237091;0.02635199949145317;1.2209759950637817;0.0;0.0;0.0
1358;0.1163880005478859;0.19178399443626404;1.0872639417648315;0.22545599937438965;0.06539200246334076;1.2287839651107788;7.993124961853027;17.631250381469727;7.459374904632568
1360;0.0;0.0;0.0;0.1903200000524521;0.03806399926543236;1.2043839693069458;0.0;0.0;0.0
1362;0.0;0.0;0.0;0.18251200020313263;0.03806399926543236;1.2121919393539429;0.0;0.0;0.0
1364;0.0;0.0;0.0;0.1668960005044937;0.02635199949145317;1.2043839693069458;0.0;0.0;0.0
1366;0.0697840005159378;0.17348399758338928;1.0884839296340942;0.20203199982643127;0.022447999566793442;1.1965759992599487;10.233124732971191;14.13124942779541;7.809374809265137
1369;0.0;0.0;0.0;0.16396799683570862;0.010735999792814255;1.2248799800872803;0.0;0.0;0.0
1371;0.0;0.0;0.0;0.1600639969110489;0.03415999934077263;1.2248799800872803;0.0;0.0;0.0
1373;0.0;0.0;0.0;0.15225599706172943;0.022447999566793442;1.2043839693069458;0.0;0.0;0.0
1375;0.03684400022029877;0.14932799339294434;1.081164002418518;0.1327359974384308;0.0302559994161129;1.1965759992599487;12.61312484741211;9.301249504089355;9.279375076293945
1377;0.0;0.0;0.0;0.13663999736309052;-0.01268799975514412;1.1887680292129517;0.0;0.0;0.0
1379;0.0;0.0;0.0;0.14444799721240997;-0.028303999453783035;1.2004799842834473;0.0;0.0;0.0
1381;0.0;0.0;0.0;0.13663999736309052;-0.23521599173545837;1.1067839860916138;0.0;0.0;0.0
1383;0.009027999825775623;0.07612799853086472;1.0472480058670044;0.10931199789047241;0.0849120020866394;1.2531839609146118;16.603124618530273;2.651249885559082;11.239375114440918
1386;0.0;0.0;0.0;0.12883199751377106;-0.004879999905824661;1.1838879585266113;0.0;0.0;0.0
1388;0.0;0.0;0.0;0.18251200020313263;-0.08686399459838867;1.1594879627227783;0.0;0.0;0.0
1390;0.0;0.0;0.0;0.17080000042915344;-0.03611199930310249;1.2248799800872803;0.0;0.0;0.0
1392;0.04001599922776222;0.12517200410366058;1.0718920230865479;0.1903200000524521;0.08100800216197968;1.2209759950637817;21.573123931884766;-4.558749675750732;11.589375495910645
1394;0.0;0.0;0.0;0.1668960005044937;0.04196799919009209;1.2170720100402832;0.0;0.0;0.0
1396;0.0;0.0;0.0;0.19422399997711182;-0.00878399983048439;1.1760799884796143;0.0;0.0;0.0
1398;0.0;0.0;0.0;0.22155199944972992;-0.00878399983048439;1.1594879627227783;0.0;0.0;0.0
1400;0.07246799767017365;0.13176000118255615;1.0504199266433716;0.22935999929904938;-0.004879999905824661;1.115567922592163;18.63312339782715;-10.36875057220459;16.9793758392334
1403;0.0;0.0;0.0;0.2332639992237091;-0.05172799900174141;1.1028800010681152;0.0;0.0;0.0
1405;0.0;0.0;0.0;0.24107199907302856;-0.11028799414634705;1.0784800052642822;0.0;0.0;0.0
1407;0.0;0.0;0.0;0.24887999892234802;-0.09857599437236786;1.0550559759140015;0.0;0.0;0.0
1409;0.11492399871349335;0.06368400156497955;0.954039990901947;0.26449599862098694;-0.05953599885106087;1.0706720352172852;19.963123321533203;-12.398750305175781;18.939374923706055
1411;0.0;0.0;0.0;0.28011199831962585;-0.10247999429702759;1.0628639459609985;0.0;0.0;0.0
1413;0.0;0.0;0.0;0.29572799801826477;-0.04391999915242195;1.0462720394134521;0.0;0.0;0.0
1415;0.0;0.0;0.0;0.2996319830417633;-0.0634399950504303;1.0501760244369507;0.0;0.0;0.0
1417;0.1739719957113266;0.06124399974942207;0.9198799729347229;0.3230559825897217;-0.07124799489974976;1.066767930984497;27.31312370300293;-8.96875;15.649374961853027
1420;0.0;0.0;0.0;0.3425759971141815;-0.05563199892640114;1.0296800136566162;0.0;0.0;0.0
1422;0.0;0.0;0.0;0.3269599974155426;-0.05953599885106087;1.034559965133667;0.0;0.0;0.0
1424;0.0;0.0;0.0;0.3230559825897217;-0.028303999453783035;1.0218719244003296;0.0;0.0;0.0
1426;0.20227599143981934;0.08661999553442001;0.9088999629020691;0.2996319830417633;-0.05953599885106087;1.0384639501571655;30.74312400817871;-4.768749713897705;12.429374694824219
1428;0.0;0.0;0.0;0.3230559825897217;-0.04391999915242195;0.9935680031776428;0.0;0.0;0.0
1430;0.0;0.0;0.0;0.29572799801826477;-0.05953599885106087;1.0384639501571655;0.0;0.0;0.0
1432;0.0;0.0;0.0;0.3230559825897217;-0.04391999915242195;1.0257760286331177;0.0;0.0;0.0
1434;0.18470799922943115;0.08588799834251404;0.9023119807243347;0.260591983795166;-0.04391999915242195;1.0462720394134521;28.923124313354492;-1.1987500190734863;8.509374618530273
1437;0.0;0.0;0.0;0.2566879987716675;-0.07905599474906921;1.0384639501571655;0.0;0.0;0.0
1439;0.0;0.0;0.0;0.26449599862098694;-0.05563199892640114;1.0296800136566162;0.0;0.0;0.0
1441;0.0;0.0;0.0;0.2566879987716675;-0.0907679945230484;1.0462720394134521;0.0;0.0;0.0
1443;0.14444799721240997;0.07612799853086472;0.9030439853668213;0.25278398394584656;-0.05172799900174141;1.042367935180664;23.183124542236328;0.20125000178813934;3.679374933242798
1445;0.0;0.0;0.0;0.23716799914836884;-0.04782399907708168;1.0462720394134521;0.0;0.0;0.0
1447;0.0;0.0;0.0;0.24107199907302856;-0.028303999453783035;1.0335839986801147;0.0;0.0;0.0
1449;0.0;0.0;0.0;0.22155199944972992;-0.0907679945230484;1.0384639501571655;0.0;0.0;0.0
1451;0.12224400043487549;0.08417999744415283;0.90938800573349;0.2332639992237091;-0.04391999915242195;1.042367935180664;15.623125076293945;0.27125000953674316;0.17937499284744263
1454;0.0;0.0;0.0;0.2176479995250702;-0.08686399459838867;1.0140639543533325;0.0;0.0;0.0
1456;0.0;0.0;0.0;0.22155199944972992;-0.10638399422168732;1.017967939376831;0.0;0.0;0.0
1458;0.0;0.0;0.0;0.19422399997711182;-0.1180959939956665;1.0296800136566162;0.0;0.0;0.0
1460;0.09906399995088577;0.03513599932193756;0.8925519585609436;0.2176479995250702;-0.1298079937696457;1.0296800136566162;11.35312557220459;-0.35875001549720764;-0.4506250023841858
1462;0.0;0.0;0.0;0.23716799914836884;-0.10247999429702759;1.034559965133667;0.0;0.0;0.0
1464;0.0;0.0;0.0;0.22545599937438965;-0.11419199407100677;1.017967939376831;0.0;0.0;0.0
1466;0.0;0.0;0.0;0.1903200000524521;-0.14932799339294434;1.0706720352172852;0.0;0.0;0.0
1468;0.09272000193595886;-0.00024399999529123306;0.9032880067825317;0.22155199944972992;-0.18055999279022217;1.0013760328292847;10.653124809265137;-0.7087500095367432;1.859375
1471;0.0;0.0;0.0;0.20983999967575073;-0.14151999354362488;1.0384639501571655;0.0;0.0;0.0
1473;0.0;0.0;0.0;0.22935999929904938;-0.1180959939956665;1.0501760244369507;0.0;0.0;0.0
1475;0.0;0.0;0.0;0.2176479995250702;-0.1727519929409027;1.0218719244003296;0.0;0.0;0.0
1477;0.09906399995088577;-0.011223999783396721;0.904263973236084;0.2176479995250702;-0.18055999279022217;1.0140639543533325;10.5131254196167;1.6712499856948853;3.749375104904175
1479;0.0;0.0;0.0;0.17470400035381317;-0.24692799150943756;1.0257760286331177;0.0;0.0;0.0
1481;0.0;0.0;0.0;0.19422399997711182;-0.1844639927148819;1.0257760286331177;0.0;0.0;0.0
1483;0.0;0.0;0.0;0.21374399960041046;-0.24302399158477783;1.0218719244003296;0.0;0.0;0.0
1485;0.08930400013923645;-0.08466799557209015;0.8954799771308899;0.19422399997711182;-0.2235039919614792;1.042367935180664;10.093125343322754;5.101250171661377;4.519374847412109
1488;0.0;0.0;0.0;0.20983999967575073;-0.2235039919614792;1.066767930984497;0.0;0.0;0.0
1490;0.0;0.0;0.0;0.22155199944972992;-0.2235039919614792;1.0784800052642822;0.0;0.0;0.0
1492;0.0;0.0;0.0;0.25278398394584656;-0.20398399233818054;1.0784800052642822;0.0;0.0;0.0
1494;0.11272799968719482;-0.08808399736881256;0.933788001537323;0.24107199907302856;-0.21569599211215973;1.083359956741333;11.773124694824219;7.90125036239624;6.339375019073486
1496;0.0;0.0;0.0;0.25278398394584656;-0.2391199916601181;1.066767930984497;0.0;0.0;0.0
1498;0.0;0.0;0.0;0.2683999836444855;-0.24302399158477783;1.0784800052642822;0.0;0.0;0.0
1500;0.0;0.0;0.0;0.2449759989976883;-0.24302399158477783;1.0462720394134521;0.0;0.0;0.0
1502;0.12883199751377106;-0.10077200084924698;0.9347639679908752;0.2449759989976883;-0.26254400610923767;1.066767930984497;11.983124732971191;11.611249923706055;9.279375076293945
1505;0.0;0.0;0.0;0.24887999892234802;-0.24692799150943756;1.0628639459609985;0.0;0.0;0.0
1507;0.0;0.0;0.0;0.2332639992237091;-0.2781600058078766;1.0784800052642822;0.0;0.0;0.0
1509;0.0;0.0;0.0;0.22935999929904938;-0.2664479911327362;1.0706720352172852;0.0;0.0;0.0
1511;0.10199199616909027;-0.1332239955663681;0.9420839548110962;0.22545599937438965;-0.25863999128341675;1.0989760160446167;12.333125114440918;15.041250228881836;9.839375495910645
1513;0.0;0.0;0.0;0.2566879987716675;-0.2898719906806946;1.0540800094604492;0.0;0.0;0.0
1515;0.0;0.0;0.0;0.22545599937438965;-0.2898719906806946;1.0589599609375;0.0;0.0;0.0
1517;0.0;0.0;0.0;0.2449759989976883;-0.2937760055065155;1.0745760202407837;0.0;0.0;0.0
1520;0.11834000051021576;-0.15274399518966675;0.9279319643974304;0.2176479995250702;-0.2898719906806946;1.042367935180664;13.243124961853027;15.811249732971191;8.439374923706055
1522;0.0;0.0;0.0;0.21374399960041046;-0.30158400535583496;1.066767930984497;0.0;0.0;0.0
1524;0.0;0.0;0.0;0.17470400035381317;-0.29767999053001404;1.0462720394134521;0.0;0.0;0.0
1526;0.0;0.0;0.0;0.17470400035381317;-0.3172000050544739;1.0745760202407837;0.0;0.0;0.0
1528;0.07246799767017365;-0.17812000215053558;0.9352520108222961;0.17080000042915344;-0.3093920052051544;1.0745760202407837;14.923125267028809;14.411250114440918;6.479374885559082
1530;0.0;0.0;0.0;0.14444799721240997;-0.31329599022865295;1.0989760160446167;0.0;0.0;0.0
1532;0.0;0.0;0.0;0.1600639969110489;-0.33671998977661133;1.083359956741333;0.0;0.0;0.0
1534;0.0;0.0;0.0;0.1483519971370697;-0.3172000050544739;1.1067839860916138;0.0;0.0;0.0
1536;0.018055999651551247;-0.18836799263954163;0.9674599766731262;0.13663999736309052;-0.32500800490379333;1.083359956741333;14.783124923706055;6.431250095367432;4.519374847412109
1539;0.0;0.0;0.0;0.1210239976644516;-0.33671998977661133;1.1350879669189453;0.0;0.0;0.0
1541;0.0;0.0;0.0;0.13663999736309052;-0.3328160047531128;1.139967918395996;0.0;0.0;0.0
1543;0.0;0.0;0.0;0.09759999811649323;-0.3484320044517517;1.1194720268249512;0.0;0.0;0.0
1545;0.010003999806940556;-0.21423199772834778;0.9833199977874756;0.16396799683570862;-0.36795198917388916;1.1233760118484497;12.473125457763672;-5.18874979019165;3.3993749618530273
1547;0.0;0.0;0.0;0.1668960005044937;-0.3640480041503906;1.1350879669189453;0.0;0.0;0.0
1549;0.0;0.0;0.0;0.19422399997711182;-0.387472003698349;1.09116792678833;0.0;0.0;0.0
1551;0.0;0.0;0.0;0.20203199982643127;-0.39528000354766846;1.0950720310211182;0.0;0.0;0.0
1554;0.06441599875688553;-0.24985599517822266;0.9708759784698486;0.20983999967575073;-0.4108960032463074;1.0989760160446167;10.023124694824219;-15.688750267028809;2.6993749141693115
1556;0.0;0.0;0.0;0.24887999892234802;-0.4265120029449463;1.0950720310211182;0.0;0.0;0.0
1558;0.0;0.0;0.0;0.2683999836444855;-0.4265120029449463;1.0540800094604492;0.0;0.0;0.0
1560;0.0;0.0;0.0;0.26449599862098694;-0.42260798811912537;1.0745760202407837;0.0;0.0;0.0
1562;0.14395999908447266;-0.28596800565719604;0.9430599808692932;0.3152479827404022;-0.4421280026435852;1.042367935180664;9.463125228881836;-21.568748474121094;1.3693749904632568
1564;0.0;0.0;0.0;0.3230559825897217;-0.4382239878177643;1.0589599609375;0.0;0.0;0.0
1566;0.0;0.0;0.0;0.3113439977169037;-0.43432000279426575;1.034559965133667;0.0;0.0;0.0
1568;0.0;0.0;0.0;0.3152479827404022;-0.44603198766708374;1.0540800094604492;0.0;0.0;0.0
1571;0.20203199982643127;-0.30329200625419617;0.9220759868621826;0.35819199681282043;-0.44993600249290466;1.0462720394134521;9.60312557220459;-23.66874885559082;-1.640625
1573;0.0;0.0;0.0;0.3425759971141815;-0.4538399875164032;1.0296800136566162;0.0;0.0;0.0
1575;0.0;0.0;0.0;0.3542879819869995;-0.4421280026435852;1.0384639501571655;0.0;0.0;0.0
1577;0.0;0.0;0.0;0.3972319960594177;-0.4655520021915436;1.0218719244003296;0.0;0.0;0.0
1579;0.2449759989976883;-0.3140279948711395;0.9027999639511108;0.3777119815349579;-0.4304159879684448;1.0218719244003296;9.11312484741211;-22.338748931884766;-7.590624809265137
1581;0.0;0.0;0.0;0.3699039816856384;-0.4655520021915436;1.034559965133667;0.0;0.0;0.0
1583;0.0;0.0;0.0;0.4001599848270416;-0.4655520021915436;1.0218719244003296;0.0;0.0;0.0
1585;0.0;0.0;0.0;0.3933279812335968;-0.4538399875164032;1.010159969329834;0.0;0.0;0.0
1588;0.2710839807987213;-0.3198840022087097;0.8886479735374451;0.37380799651145935;-0.46164798736572266;1.0062559843063354;7.223124980926514;-17.158748626708984;-14.590624809265137
1590;0.0;0.0;0.0;0.3777119815349579;-0.4577440023422241;1.0257760286331177;0.0;0.0;0.0
1592;0.0;0.0;0.0;0.3816159963607788;-0.4538399875164032;1.0013760328292847;0.0;0.0;0.0
1594;0.0;0.0;0.0;0.3386719822883606;-0.46164798736572266;1.0296800136566162;0.0;0.0;0.0
1596;0.25278398394584656;-0.32427600026130676;0.8888919949531555;0.33476799726486206;-0.4655520021915436;1.0062559843063354;3.9331250190734863;-10.158750534057617;-20.470624923706055
1598;0.0;0.0;0.0;0.34647998213768005;-0.4577440023422241;0.9974719882011414;0.0;0.0;0.0
1600;0.0;0.0;0.0;0.3542879819869995;-0.46164798736572266;1.0257760286331177;0.0;0.0;0.0
1602;0.0;0.0;0.0;0.33476799726486206;-0.4811680018901825;1.0257760286331177;0.0;0.0;0.0
1605;0.21593999862670898;-0.32793599367141724;0.8988959789276123;0.30353599786758423;-0.4538399875164032;1.0384639501571655;-0.4768750071525574;-1.5487500429153442;-24.810625076293945
1607;0.0;0.0;0.0;0.28011199831962585;-0.4538399875164032;1.0384639501571655;0.0;0.0;0.0
1609;0.0;0.0;0.0;0.23716799914836884;-0.4967840015888214;1.0589599609375;0.0;0.0;0.0
1611;0.0;0.0;0.0;0.2176479995250702;-0.46164798736572266;1.0501760244369507;0.0;0.0;0.0
1613;0.13224799931049347;-0.32891198992729187;0.9301279783248901;0.205935999751091;-0.4655520021915436;1.09116792678833;-4.956874847412109;6.081250190734863;-27.540624618530273
1615;0.0;0.0;0.0;0.2176479995250702;-0.44993600249290466;1.0784800052642822;0.0;0.0;0.0
1617;0.0;0.0;0.0;0.16787199676036835;-0.4538399875164032;1.083359956741333;0.0;0.0;0.0
1619;0.0;0.0;0.0;0.1600639969110489;-0.44993600249290466;1.0823839902877808;0.0;0.0;0.0
1622;0.05026400089263916;-0.31915199756622314;0.9557479619979858;0.15908800065517426;-0.44993600249290466;1.0784800052642822;-9.086874961853027;8.461249351501465;-29.71062469482422
1624;0.0;0.0;0.0;0.1327359974384308;-0.4538399875164032;1.0628639459609985;0.0;0.0;0.0
1626;0.0;0.0;0.0;0.11321599781513214;-0.46164798736572266;1.0784800052642822;0.0;0.0;0.0
1628;0.0;0.0;0.0;0.10540799796581268;-0.4655520021915436;1.0989760160446167;0.0;0.0;0.0
1630;0.0024399999529123306;-0.3274479806423187;0.9552599787712097;0.11321599781513214;-0.4577440023422241;1.1028800010681152;-10.696874618530273;9.511249542236328;-32.16062545776367
1632;0.0;0.0;0.0;0.0936959981918335;-0.44993600249290466;1.0706720352172852;0.0;0.0;0.0
1634;0.0;0.0;0.0;0.07807999849319458;-0.44603198766708374;1.0950720310211182;0.0;0.0;0.0
1636;0.0;0.0;0.0;0.054655998945236206;-0.4577440023422241;1.0823839902877808;0.0;0.0;0.0
1639;-0.037087999284267426;-0.32793599367141724;0.949891984462738;0.07417599856853485;-0.4694559872150421;1.066767930984497;-8.036874771118164;10.421249389648438;-33.21062469482422
1641;0.0;0.0;0.0;0.03903999924659729;-0.4265120029449463;1.0745760202407837;0.0;0.0;0.0
1643;0.0;0.0;0.0;0.031231999397277832;-0.44993600249290466;1.0784800052642822;0.0;0.0;0.0
1645;0.0;0.0;0.0;0.03513599932193756;-0.41870400309562683;1.0784800052642822;0.0;0.0;0.0
1647;-0.08832799643278122;-0.30231598019599915;0.945743978023529;0.007807999849319458;-0.42260798811912537;1.0706720352172852;-3.906874895095825;10.63124942779541;-33.700626373291016
1649;0.0;0.0;0.0;0.0;-0.387472003698349;1.066767930984497;0.0;0.0;0.0
1651;0.0;0.0;0.0;0.0;-0.4147999882698059;1.0706720352172852;0.0;0.0;0.0
1653;0.0;0.0;0.0;-0.003903999924659729;-0.4304159879684448;1.0628639459609985;0.0;0.0;0.0
1656;-0.11785199493169785;-0.2769399881362915;0.9308599829673767;-0.015615999698638916;-0.4147999882698059;1.0628639459609985;-0.4768750071525574;10.63124942779541;-35.59062576293945
1658;0.0;0.0;0.0;-0.019519999623298645;-0.4147999882698059;1.0706720352172852;0.0;0.0;0.0
1660;0.0;0.0;0.0;0.003903999924659729;-0.4147999882698059;1.0784800052642822;0.0;0.0;0.0
1662;0.0;0.0;0.0;0.003903999924659729;-0.4147999882698059;1.0589599609375;0.0;0.0;0.0
1664;-0.1332239955663681;-0.27132800221443176;0.9284200072288513;-0.019519999623298645;-0.41870400309562683;1.0501760244369507;0.7831249833106995;11.821249961853027;-37.34062576293945
1666;0.0;0.0;0.0;-0.058559998869895935;-0.39528000354766846;1.0540800094604492;0.0;0.0;0.0
1668;0.0;0.0;0.0;-0.07417599856853485;-0.3835679888725281;1.0628639459609985;0.0;0.0;0.0
1670;0.0;0.0;0.0;-0.06929600238800049;-0.399183988571167;1.1028800010681152;0.0;0.0;0.0
1673;-0.1786080002784729;-0.2622999846935272;0.9401319622993469;-0.08588799834251404;-0.3757599890232086;1.0706720352172852;-0.9668749570846558;12.241250038146973;-38.46062469482422
1675;0.0;0.0;0.0;-0.08198399841785431;-0.3757599890232086;1.0989760160446167;0.0;0.0;0.0
1677;0.0;0.0;0.0;-0.08100800216197968;-0.3640480041503906;1.09116792678833;0.0;0.0;0.0
1679;0.0;0.0;0.0;-0.10443200170993805;-0.399183988571167;1.1028800010681152;0.0;0.0;0.0
1681;-0.21032799780368805;-0.25278398394584656;0.9618479609489441;-0.08881600201129913;-0.399183988571167;1.115567922592163;-4.746874809265137;12.521249771118164;-38.600624084472656
1683;0.0;0.0;0.0;-0.1239520013332367;-0.3757599890232086;1.0872639417648315;0.0;0.0;0.0
1685;0.0;0.0;0.0;-0.11224000155925751;-0.37966400384902954;1.1028800010681152;0.0;0.0;0.0
1688;0.0;0.0;0.0;-0.17470400035381317;-0.399183988571167;1.1311839818954468;0.0;0.0;0.0
1690;-0.26254400610923767;-0.26278799772262573;0.9801479578018188;-0.20983999967575073;-0.4147999882698059;1.1360639333724976;-8.106874465942383;13.081250190734863;-37.69062423706055
1692;0.0;0.0;0.0;-0.19422399997711182;-0.4382239878177643;1.139967918395996;0.0;0.0;0.0
1694;0.0;0.0;0.0;-0.22155199944972992;-0.4265120029449463;1.1760799884796143;0.0;0.0;0.0
1696;0.0;0.0;0.0;-0.24107199907302856;-0.4030880033969879;1.1594879627227783;0.0;0.0;0.0
1698;-0.34599199891090393;-0.2881639897823334;1.0328519344329834;-0.2176479995250702;-0.4421280026435852;1.1838879585266113;-9.296875;7.831250190734863;-35.94062423706055
1700;0.0;0.0;0.0;-0.23716799914836884;-0.4577440023422241;1.1887680292129517;0.0;0.0;0.0
1702;0.0;0.0;0.0;-0.24107199907302856;-0.4421280026435852;1.1926720142364502;0.0;0.0;0.0
1704;0.0;0.0;0.0;-0.2449759989976883;-0.4265120029449463;1.1926720142364502;0.0;0.0;0.0
1707;-0.3596560060977936;-0.30060797929763794;1.0574959516525269;-0.20983999967575073;-0.44993600249290466;1.1926720142364502;-9.016875267028809;-1.2687500715255737;-34.260623931884766
1709;0.0;0.0;0.0;-0.22155199944972992;-0.42260798811912537;1.1721760034561157;0.0;0.0;0.0
1711;0.0;0.0;0.0;-0.22935999929904938;-0.4421280026435852;1.1887680292129517;0.0;0.0;0.0
1713;0.0;0.0;0.0;-0.23716799914836884;-0.4538399875164032;1.1965759992599487;0.0;0.0;0.0
1715;-0.3501400053501129;-0.32500800490379333;1.054811954498291;-0.24107199907302856;-0.4772639870643616;1.1760799884796143;-6.636875152587891;-10.228750228881836;-33.21062469482422
1717;0.0;0.0;0.0;-0.24887999892234802;-0.5084959864616394;1.1926720142364502;0.0;0.0;0.0
1719;0.0;0.0;0.0;-0.2332639992237091;-0.48897600173950195;1.1965759992599487;0.0;0.0;0.0
1721;0.0;0.0;0.0;-0.22155199944972992;-0.4928799867630005;1.2043839693069458;0.0;0.0;0.0
1724;-0.3618519902229309;-0.36038798093795776;1.0616439580917358;-0.2449759989976883;-0.4967840015888214;1.1926720142364502;-3.0668749809265137;-19.608749389648438;-32.790626525878906
1726;0.0;0.0;0.0;-0.23716799914836884;-0.4928799867630005;1.2131680250167847;0.0;0.0;0.0
1728;0.0;0.0;0.0;-0.2176479995250702;-0.4967840015888214;1.1965759992599487;0.0;0.0;0.0
1730;0.0;0.0;0.0;-0.24107199907302856;-0.5006880164146423;1.1965759992599487;0.0;0.0;0.0
1732;-0.35624000430107117;-0.3760039806365967;1.0740879774093628;-0.22155199944972992;-0.5163040161132812;1.2082879543304443;-0.7568750381469727;-30.248748779296875;-32.6506233215332
1734;0.0;0.0;0.0;-0.2176479995250702;-0.48507198691368103;1.1877919435501099;0.0;0.0;0.0
1736;0.0;0.0;0.0;-0.17080000042915344;-0.5084959864616394;1.1838879585266113;0.0;0.0;0.0
1739;0.0;0.0;0.0;-0.19422399997711182;-0.48507198691368103;1.1594879627227783;0.0;0.0;0.0
1741;-0.31207600235939026;-0.36844000220298767;1.0533479452133179;-0.15908800065517426;-0.5123999714851379;1.1721760034561157;0.013125002384185791;-39.69874954223633;-32.860626220703125
1743;0.0;0.0;0.0;-0.16299200057983398;-0.4694559872150421;1.1682720184326172;0.0;0.0;0.0
1745;0.0;0.0;0.0;-0.15908800065517426;-0.5006880164146423;1.1311839818954468;0.0;0.0;0.0
1747;0.0;0.0;0.0;-0.12785600125789642;-0.4772639870643616;1.1360639333724976;0.0;0.0;0.0
1749;-0.2698639929294586;-0.3533119857311249;1.0145519971847534;-0.15518400073051453;-0.4928799867630005;1.1311839818954468;0.7831249833106995;-42.42875289916992;-33.28062438964844
1751;0.0;0.0;0.0;-0.13176000118255615;-0.4772639870643616;1.1067839860916138;0.0;0.0;0.0
1753;0.0;0.0;0.0;-0.14737600088119507;-0.4928799867630005;1.0706720352172852;0.0;0.0;0.0
1756;0.0;0.0;0.0;-0.13176000118255615;-0.44603198766708374;1.09116792678833;0.0;0.0;0.0
1758;-0.25400400161743164;-0.3386719822883606;0.9747799634933472;-0.13566400110721588;-0.4421280026435852;1.0706720352172852;2.6031250953674316;-36.89875030517578;-34.260623931884766
1760;0.0;0.0;0.0;-0.12785600125789642;-0.4421280026435852;1.066767930984497;0.0;0.0;0.0
1762;0.0;0.0;0.0;-0.15908800065517426;-0.4538399875164032;1.0745760202407837;0.0;0.0;0.0
1764;0.0;0.0;0.0;-0.13176000118255615;-0.44603198766708374;1.0589599609375;0.0;0.0;0.0
1766;-0.2710839807987213;-0.3172000050544739;0.9454999566078186;-0.13176000118255615;-0.44603198766708374;1.066767930984497;5.403125286102295;-27.028749465942383;-34.82062530517578
1768;0.0;0.0;0.0;-0.14347200095653534;-0.44603198766708374;1.0540800094604492;0.0;0.0;0.0
1770;0.0;0.0;0.0;-0.14737600088119507;-0.4147999882698059;1.0540800094604492;0.0;0.0;0.0
1773;0.0;0.0;0.0;-0.15908800065517426;-0.41870400309562683;1.0706720352172852;0.0;0.0;0.0
1775;-0.28377199172973633;-0.2967039942741394;0.9315919876098633;-0.16299200057983398;-0.44603198766708374;1.0784800052642822;7.363125324249268;-15.758749961853027;-33.84062576293945
1777;0.0;0.0;0.0;-0.19422399997711182;-0.4304159879684448;1.0706720352172852;0.0;0.0;0.0
1779;0.0;0.0;0.0;-0.18641600012779236;-0.42260798811912537;1.0462720394134521;0.0;0.0;0.0
1781;0.0;0.0;0.0;-0.21374399960041046;-0.4421280026435852;1.0745760202407837;0.0;0.0;0.0
1783;-0.3164680004119873;-0.2908479869365692;0.932811975479126;-0.19812799990177155;-0.4147999882698059;1.0823839902877808;6.523125171661377;-5.888749599456787;-31.810625076293945
1785;0.0;0.0;0.0;-0.2332639992237091;-0.41870400309562683;1.0579839944839478;0.0;0.0;0.0
1787;0.0;0.0;0.0;-0.2332639992237091;-0.399183988571167;1.0745760202407837;0.0;0.0;0.0
1790;0.0;0.0;0.0;-0.2683999836444855;-0.4030880033969879;1.09116792678833;0.0;0.0;0.0
1792;-0.3728320002555847;-0.29011598229408264;0.9452559947967529;-0.29182398319244385;-0.4030880033969879;1.0823839902877808;3.3731250762939453;-0.2887499928474426;-29.57062530517578
1794;0.0;0.0;0.0;-0.2996319830417633;-0.41870400309562683;1.09116792678833;0.0;0.0;0.0
1796;0.0;0.0;0.0;-0.3113439977169037;-0.42260798811912537;1.1067839860916138;0.0;0.0;0.0
1798;0.0;0.0;0.0;-0.2996319830417633;-0.40699198842048645;1.1194720268249512;0.0;0.0;0.0
1800;-0.42846399545669556;-0.2727919816970825;0.974291980266571;-0.2996319830417633;-0.39528000354766846;1.1116639375686646;-0.8268750309944153;-3.9287500381469727;-28.10062599182129
1802;0.0;0.0;0.0;-0.29572799801826477;-0.37966400384902954;1.1272799968719482;0.0;0.0;0.0
1804;0.0;0.0;0.0;-0.28011199831962585;-0.37966400384902954;1.1067839860916138;0.0;0.0;0.0
1807;0.0;0.0;0.0;-0.26449599862098694;-0.3640480041503906;1.1311839818954468;0.0;0.0;0.0
1809;-0.4155319929122925;-0.25912800431251526;0.97843998670578;-0.2566879987716675;-0.39137598872184753;1.09116792678833;-3.8368749618530273;-12.538750648498535;-27.05062484741211
1811;0.0;0.0;0.0;-0.25278398394584656;-0.40699198842048645;1.0784800052642822;0.0;0.0;0.0
1813;0.0;0.0;0.0;-0.20983999967575073;-0.40699198842048645;1.0823839902877808;0.0;0.0;0.0
1815;0.0;0.0;0.0;-0.20203199982643127;-0.4304159879684448;1.0872639417648315;0.0;0.0;0.0
1817;-0.3630719780921936;-0.2757200002670288;0.9576999545097351;-0.2176479995250702;-0.4265120029449463;1.0950720310211182;-4.116874694824219;-18.55875015258789;-26.21062469482422
1819;0.0;0.0;0.0;-0.22935999929904938;-0.44603198766708374;1.09116792678833;0.0;0.0;0.0
1821;0.0;0.0;0.0;-0.22545599937438965;-0.4108960032463074;1.09116792678833;0.0;0.0;0.0
1824;0.0;0.0;0.0;-0.2176479995250702;-0.39137598872184753;1.083359956741333;0.0;0.0;0.0
1826;-0.3379400074481964;-0.27327999472618103;0.9545279741287231;-0.21374399960041046;-0.39528000354766846;1.1028800010681152;-2.6468749046325684;-20.798749923706055;-25.860624313354492
1828;0.0;0.0;0.0;-0.2176479995250702;-0.39528000354766846;1.115567922592163;0.0;0.0;0.0
1830;0.0;0.0;0.0;-0.19422399997711182;-0.3757599890232086;1.1272799968719482;0.0;0.0;0.0
1832;0.0;0.0;0.0;-0.19422399997711182;-0.3835679888725281;1.1067839860916138;0.0;0.0;0.0
1834;-0.3247639834880829;-0.23765599727630615;0.9828319549560547;-0.21374399960041046;-0.3640480041503906;1.1360639333724976;-2.0868749618530273;-21.498748779296875;-26.910625457763672
1836;0.0;0.0;0.0;-0.1786080002784729;-0.32891198992729187;1.1194720268249512;0.0;0.0;0.0
1838;0.0;0.0;0.0;-0.17470400035381317;-0.34062400460243225;1.1311839818954468;0.0;0.0;0.0
1841;0.0;0.0;0.0;-0.17470400035381317;-0.32500800490379333;1.1516799926757812;0.0;0.0;0.0
1843;-0.3037799894809723;-0.18836799263954163;1.0084519386291504;-0.13566400110721588;-0.2781600058078766;1.1516799926757812;-2.5768749713897705;-22.548749923706055;-28.310625076293945
1845;0.0;0.0;0.0;-0.16299200057983398;-0.2508319914340973;1.1682720184326172;0.0;0.0;0.0
1847;0.0;0.0;0.0;-0.14347200095653534;-0.26254400610923767;1.1633919477462769;0.0;0.0;0.0
1849;0.0;0.0;0.0;-0.17080000042915344;-0.2391199916601181;1.1272799968719482;0.0;0.0;0.0
1851;-0.2769399881362915;-0.12199999392032623;1.0157719850540161;-0.13176000118255615;-0.23521599173545837;1.1272799968719482;-4.256875038146973;-22.268749237060547;-28.030624389648438
1853;0.0;0.0;0.0;-0.16299200057983398;-0.2547360062599182;1.1311839818954468;0.0;0.0;0.0
1855;0.0;0.0;0.0;-0.15908800065517426;-0.23131199181079865;1.139967918395996;0.0;0.0;0.0
1858;0.0;0.0;0.0;-0.1395680010318756;-0.23131199181079865;1.1233760118484497;0.0;0.0;0.0
1860;-0.27132800221443176;-0.09686800092458725;0.9999119639396667;-0.1668960005044937;-0.20788799226284027;1.1477760076522827;-5.796875;-16.948749542236328;-27.610624313354492
1862;0.0;0.0;0.0;-0.20203199982643127;-0.19617599248886108;1.1555839776992798;0.0;0.0;0.0
1864;0.0;0.0;0.0;-0.18641600012779236;-0.1844639927148819;1.1516799926757812;0.0;0.0;0.0
1866;0.0;0.0;0.0;-0.20983999967575073;-0.20398399233818054;1.1643680334091187;0.0;0.0;0.0
1868;-0.30914798378944397;-0.06831999868154526;1.026263952255249;-0.20203199982643127;-0.19227199256420135;1.1594879627227783;-9.506875038146973;-9.5287504196167;-25.440624237060547
1870;0.0;0.0;0.0;-0.20203199982643127;-0.20398399233818054;1.1555839776992798;0.0;0.0;0.0
1872;0.0;0.0;0.0;-0.19812799990177155;-0.19227199256420135;1.1838879585266113;0.0;0.0;0.0
1875;0.0;0.0;0.0;-0.20203199982643127;-0.2000799924135208;1.1887680292129517;0.0;0.0;0.0
1877;-0.3215920031070709;-0.06856399774551392;1.0452959537506104;-0.22545599937438965;-0.19617599248886108;1.1877919435501099;-13.566874504089355;-3.3687500953674316;-24.250625610351562
1879;0.0;0.0;0.0;-0.19812799990177155;-0.16494399309158325;1.1926720142364502;0.0;0.0;0.0
1881;0.0;0.0;0.0;-0.205935999751091;-0.1727519929409027;1.1926720142364502;0.0;0.0;0.0
1883;0.0;0.0;0.0;-0.18251200020313263;-0.13371199369430542;1.2170720100402832;0.0;0.0;0.0
1885;-0.3213479816913605;-0.044652000069618225;1.0574959516525269;-0.1903200000524521;-0.14932799339294434;1.2043839693069458;-13.286874771118164;1.3912500143051147;-21.590625762939453
1887;0.0;0.0;0.0;-0.19422399997711182;-0.13761599361896515;1.1965759992599487;0.0;0.0;0.0
1889;0.0;0.0;0.0;-0.19812799990177155;-0.1298079937696457;1.1799839735031128;0.0;0.0;0.0
1892;0.0;0.0;0.0;-0.205935999751091;-0.14151999354362488;1.1887680292129517;0.0;0.0;0.0
1894;-0.3206160068511963;-0.012443999759852886;1.054811954498291;-0.22545599937438965;-0.13761599361896515;1.1799839735031128;-10.696874618530273;5.521250247955322;-15.990625381469727
1896;0.0;0.0;0.0;-0.21374399960041046;-0.12199999392032623;1.1926720142364502;0.0;0.0;0.0
1898;0.0;0.0;0.0;-0.24107199907302856;-0.16494399309158325;1.1721760034561157;0.0;0.0;0.0
1900;0.0;0.0;0.0;-0.20203199982643127;-0.1454239934682846;1.1760799884796143;0.0;0.0;0.0
1902;-0.34525999426841736;-0.0029279999434947968;1.0509079694747925;-0.260591983795166;-0.10638399422168732;1.2170720100402832;-7.896874904632568;10.211249351501465;-10.390625
1905;0.0;0.0;0.0;-0.2723039984703064;-0.1180959939956665;1.1887680292129517;0.0;0.0;0.0
1906;0.0;0.0;0.0;-0.2449759989976883;-0.20788799226284027;1.1555839776992798;0.0;0.0;0.0
1909;0.0;0.0;0.0;-0.3152479827404022;-0.16884799301624298;1.1926720142364502;0.0;0.0;0.0
1911;-0.39064398407936096;-0.015615999698638916;1.054811954498291;-0.28011199831962585;-0.10247999429702759;1.2043839693069458;-6.916874885559082;12.03125;-6.470624923706055
1913;0.0;0.0;0.0;-0.2332639992237091;-0.06734399497509003;1.2121919393539429;0.0;0.0;0.0
1915;0.0;0.0;0.0;-0.2840159833431244;-0.08295999467372894;1.2248799800872803;0.0;0.0;0.0
1917;0.0;0.0;0.0;-0.3425759971141815;-0.04782399907708168;1.2326879501342773;0.0;0.0;0.0
1919;-0.40991997718811035;0.06295199692249298;1.0945839881896973;-0.29572799801826477;-0.09467199444770813;1.2170720100402832;-5.376874923706055;6.221250057220459;-1.640625
1922;0.0;0.0;0.0;-0.3113439977169037;-0.05563199892640114;1.2121919393539429;0.0;0.0;0.0
1924;0.0;0.0;0.0;-0.33086398243904114;-0.03611199930310249;1.2170720100402832;0.0;0.0;0.0
1926;0.0;0.0;0.0;-0.2683999836444855;-0.05953599885106087;1.1887680292129517;0.0;0.0;0.0
1928;-0.41406798362731934;0.06392800062894821;1.073356032371521;-0.24887999892234802;-0.07124799489974976;1.1643680334091187;-6.566874980926514;-6.09874963760376;2.909374952316284
1930;0.0;0.0;0.0;-0.260591983795166;-0.08295999467372894;1.1643680334091187;0.0;0.0;0.0
1932;0.0;0.0;0.0;-0.1903200000524521;-0.07905599474906921;1.1438720226287842;0.0;0.0;0.0
1934;0.0;0.0;0.0;-0.12004800140857697;-0.07124799489974976;1.1516799926757812;0.0;0.0;0.0
1936;-0.3076840043067932;0.05685199797153473;1.0260199308395386;-0.12785600125789642;-0.04001599922776222;1.1350879669189453;-5.866874694824219;-16.248748779296875;4.239375114440918
1939;0.0;0.0;0.0;-0.08979199826717377;-0.04391999915242195;1.1438720226287842;0.0;0.0;0.0
1940;0.0;0.0;0.0;-0.08588799834251404;-0.05563199892640114;1.1438720226287842;0.0;0.0;0.0
1943;0.0;0.0;0.0;-0.054655998945236206;-0.03611199930310249;1.1438720226287842;0.0;0.0;0.0
1945;-0.20349599421024323;0.0861319974064827;1.020408034324646;-0.03903999924659729;-0.04001599922776222;1.1682720184326172;-5.936874866485596;-20.0987491607666;6.199375152587891
1947;0.0;0.0;0.0;-0.03513599932193756;-0.024399999529123306;1.1516799926757812;0.0;0.0;0.0
1949;0.0;0.0;0.0;-0.011711999773979187;-0.024399999529123306;1.1438720226287842;0.0;0.0;0.0
1951;0.0;0.0;0.0;0.019519999623298645;-0.028303999453783035;1.1350879669189453;0.0;0.0;0.0
1953;-0.1315159946680069;0.10565199702978134;1.0135760307312012;0.011711999773979187;-0.04001599922776222;1.1194720268249512;-10.20687484741211;-19.118749618530273;7.039374828338623
1956;0.0;0.0;0.0;0.05075199902057648;-0.024399999529123306;1.115567922592163;0.0;0.0;0.0
1958;0.0;0.0;0.0;0.054655998945236206;-0.00878399983048439;1.1116639375686646;0.0;0.0;0.0
1960;0.0;0.0;0.0;0.08588799834251404;-0.03611199930310249;1.1028800010681152;0.0;0.0;0.0
1962;-0.04879999905824661;0.10589599609375;0.9769759774208069;0.11321599781513214;-0.032207999378442764;1.09116792678833;-15.876874923706055;-11.698750495910645;7.319375038146973
1964;0.0;0.0;0.0;0.07807999849319458;-0.00878399983048439;1.0823839902877808;0.0;0.0;0.0
1966;0.0;0.0;0.0;0.08198399841785431;-0.00878399983048439;1.0589599609375;0.0;0.0;0.0
1968;0.0;0.0;0.0;0.10931199789047241;-0.004879999905824661;1.0989760160446167;0.0;0.0;0.0
1970;-0.0287919994443655;0.10931199789047241;0.9518439769744873;0.08198399841785431;-0.01659199967980385;1.1106879711151123;-18.676876068115234;1.6712499856948853;8.159375190734863
1972;0.0;0.0;0.0;0.07417599856853485;0.006831999868154526;1.0784800052642822;0.0;0.0;0.0
1975;0.0;0.0;0.0;0.08198399841785431;-0.01268799975514412;1.083359956741333;0.0;0.0;0.0
1977;0.0;0.0;0.0;0.04294399917125702;-0.020495999604463577;1.0784800052642822;0.0;0.0;0.0
1979;-0.05538799986243248;0.11541199684143066;0.9557479619979858;0.04294399917125702;-0.00878399983048439;1.1233760118484497;-18.326875686645508;15.111249923706055;9.4193754196167
1981;0.0;0.0;0.0;0.03903999924659729;0.0029279999434947968;1.083359956741333;0.0;0.0;0.0
1983;0.0;0.0;0.0;0.04684799909591675;0.018543999642133713;1.1116639375686646;0.0;0.0;0.0
1985;0.0;0.0;0.0;-0.003903999924659729;-0.0009759999811649323;1.115567922592163;0.0;0.0;0.0
1987;-0.09589199721813202;0.1332239955663681;0.973315954208374;-0.003903999924659729;0.006831999868154526;1.0989760160446167;-16.50687599182129;22.881250381469727;11.44937515258789
1990;0.0;0.0;0.0;0.011711999773979187;0.014639999717473984;1.115567922592163;0.0;0.0;0.0
1992;0.0;0.0;0.0;0.015615999698638916;0.022447999566793442;1.115567922592163;0.0;0.0;0.0
1994;0.0;0.0;0.0;0.0;0.014639999717473984;1.1067839860916138;0.0;0.0;0.0
1996;-0.11272799968719482;0.1390800029039383;0.9845399856567383;0.007807999849319458;0.006831999868154526;1.1233760118484497;-15.596875190734863;26.731250762939453;13.969374656677246
1998;0.0;0.0;0.0;-0.031231999397277832;-0.00878399983048439;1.1067839860916138;0.0;0.0;0.0
2000;0.0;0.0;0.0;-0.04294399917125702;-0.020495999604463577;1.139967918395996;0.0;0.0;0.0
2002;0.0;0.0;0.0;-0.04684799909591675;-0.004879999905824661;1.1311839818954468;0.0;0.0;0.0
2004;-0.16128399968147278;0.12517200410366058;1.0008879899978638;-0.07807999849319458;-0.032207999378442764;1.1477760076522827;-15.526874542236328;27.99125099182129;17.119375228881836
2007;0.0;0.0;0.0;-0.0936959981918335;-0.004879999905824661;1.1516799926757812;0.0;0.0;0.0
2009;0.0;0.0;0.0;-0.11224000155925751;-0.004879999905824661;1.1760799884796143;0.0;0.0;0.0
2011;0.0;0.0;0.0;-0.10443200170993805;-0.01659199967980385;1.1477760076522827;0.0;0.0;0.0
2013;-0.21227999031543732;0.12517200410366058;1.0296800136566162;-0.08588799834251404;0.0029279999434947968;1.1555839776992798;-15.806875228881836;24.561250686645508;20.4793758392334
2015;0.0;0.0;0.0;-0.11224000155925751;-0.004879999905824661;1.1887680292129517;0.0;0.0;0.0
2017;0.0;0.0;0.0;-0.0663679987192154;-0.024399999529123306;1.1721760034561157;0.0;0.0;0.0
2019;0.0;0.0;0.0;-0.05075199902057648;-0.01268799975514412;1.1721760034561157;0.0;0.0;0.0
2021;-0.19324800372123718;0.12370799481868744;1.0462720394134521;-0.015615999698638916;-0.00878399983048439;1.1555839776992798;-15.806875228881836;17.28125;23.559375762939453
2024;0.0;0.0;0.0;-0.054655998945236206;-0.04001599922776222;1.1643680334091187;0.0;0.0;0.0
2026;0.0;0.0;0.0;-0.015615999698638916;-0.028303999453783035;1.1438720226287842;0.0;0.0;0.0
2028;0.0;0.0;0.0;-0.015615999698638916;-0.04391999915242195;1.1311839818954468;0.0;0.0;0.0
2030;-0.1290760040283203;0.10858000069856644;1.0255320072174072;0.015615999698638916;-0.032207999378442764;1.1438720226287842;-14.616874694824219;11.331250190734863;26.28937530517578
2032;0.0;0.0;0.0;0.003903999924659729;-0.01268799975514412;1.139967918395996;0.0;0.0;0.0
2034;0.0;0.0;0.0;0.011711999773979187;-0.032207999378442764;1.1233760118484497;0.0;0.0;0.0
2036;0.0;0.0;0.0;0.019519999623298645;-0.01659199967980385;1.1194720268249512;0.0;0.0;0.0
2038;-0.10833600163459778;0.11224000155925751;1.0008879899978638;-0.015615999698638916;0.0029279999434947968;1.1360639333724976;-12.166874885559082;8.951250076293945;27.129375457763672
2041;0.0;0.0;0.0;0.0;0.0302559994161129;1.139967918395996;0.0;0.0;0.0
2043;0.0;0.0;0.0;0.011711999773979187;0.04196799919009209;1.1233760118484497;0.0;0.0;0.0
2045;0.0;0.0;0.0;0.019519999623298645;0.03415999934077263;1.115567922592163;0.0;0.0;0.0
2047;-0.10662800073623657;0.15737999975681305;0.9969840049743652;0.019519999623298645;0.049775999039411545;1.1311839818954468;-10.066874504089355;9.021249771118164;26.359375
2049;0.0;0.0;0.0;0.031231999397277832;0.049775999039411545;1.1272799968719482;0.0;0.0;0.0
2051;0.0;0.0;0.0;0.0663679987192154;0.10833600163459778;1.1067839860916138;0.0;0.0;0.0
2053;0.0;0.0;0.0;0.07417599856853485;0.08100800216197968;1.0989760160446167;0.0;0.0;0.0
2055;-0.06612399965524673;0.2100839912891388;0.9813680052757263;0.09759999811649323;0.12004800140857697;1.0989760160446167;-9.086874961853027;9.651249885559082;26.219375610351562
2058;0.0;0.0;0.0;0.09759999811649323;0.12004800140857697;1.0784800052642822;0.0;0.0;0.0
2060;0.0;0.0;0.0;0.10540799796581268;0.10833600163459778;1.0950720310211182;0.0;0.0;0.0
2062;0.0;0.0;0.0;0.11711999773979187;0.11614400148391724;1.0872639417648315;0.0;0.0;0.0
2064;-0.012443999759852886;0.24570798873901367;0.9591639637947083;0.12883199751377106;0.1395680010318756;1.107759952545166;-9.086874961853027;13.011249542236328;27.829374313354492
2066;0.0;0.0;0.0;0.1210239976644516;0.13176000118255615;1.1028800010681152;0.0;0.0;0.0
2068;0.0;0.0;0.0;0.11711999773979187;0.1395680010318756;1.1233760118484497;0.0;0.0;0.0
2070;0.0;0.0;0.0;0.10540799796581268;0.16299200057983398;1.1438720226287842;0.0;0.0;0.0
2072;-0.009271999821066856;0.2740119993686676;0.9840520024299622;0.0936959981918335;0.15908800065517426;1.139967918395996;-11.116874694824219;18.4012508392334;28.739376068115234
2075;0.0;0.0;0.0;0.08198399841785431;0.14737600088119507;1.1477760076522827;0.0;0.0;0.0
2077;0.0;0.0;0.0;0.08588799834251404;0.1512800008058548;1.1272799968719482;0.0;0.0;0.0
2079;0.0;0.0;0.0;0.058559998869895935;0.14737600088119507;1.1311839818954468;0.0;0.0;0.0
2081;-0.03562399744987488;0.28474798798561096;1.0045479536056519;0.07807999849319458;0.15908800065517426;1.1272799968719482;-13.776874542236328;20.291250228881836;28.809375762939453
2083;0.0;0.0;0.0;0.12883199751377106;0.14347200095653534;1.132159948348999;0.0;0.0;0.0
2085;0.0;0.0;0.0;0.09759999811649323;0.16299200057983398;1.1360639333724976;0.0;0.0;0.0
2087;0.0;0.0;0.0;0.11321599781513214;0.14737600088119507;1.1272799968719482;0.0;0.0;0.0
2089;-0.02391199953854084;0.2740119993686676;1.0082080364227295;0.10540799796581268;0.13566400110721588;1.1516799926757812;-15.45687484741211;19.731250762939453;28.739376068115234
2092;0.0;0.0;0.0;0.09759999811649323;0.1239520013332367;1.1477760076522827;0.0;0.0;0.0
2094;0.0;0.0;0.0;0.10540799796581268;0.14347200095653534;1.1516799926757812;0.0;0.0;0.0
2096;0.0;0.0;0.0;0.1210239976644516;0.1512800008058548;1.1594879627227783;0.0;0.0;0.0
2098;-0.0029279999434947968;0.2664479911327362;1.0338280200958252;0.11321599781513214;0.14347200095653534;1.1643680334091187;-16.36687660217285;19.87125015258789;28.94937515258789
2100;0.0;0.0;0.0;0.1327359974384308;0.1395680010318756;1.1965759992599487;0.0;0.0;0.0
2102;0.0;0.0;0.0;0.12883199751377106;0.11224000155925751;1.1643680334091187;0.0;0.0;0.0
2104;0.0;0.0;0.0;0.10150399804115295;0.13566400110721588;1.2004799842834473;0.0;0.0;0.0
2106;0.0026839999482035637;0.2576639950275421;1.052616000175476;0.11321599781513214;0.13176000118255615;1.1926720142364502;-15.666874885559082;20.85125160217285;30.69937515258789
2109;0.0;0.0;0.0;0.11321599781513214;0.13176000118255615;1.1926720142364502;0.0;0.0;0.0
2111;0.0;0.0;0.0;0.14054399728775024;0.13566400110721588;1.2004799842834473;0.0;0.0;0.0
2113;0.0;0.0;0.0;0.14054399728775024;0.1239520013332367;1.1926720142364502;0.0;0.0;0.0
2115;0.007319999858736992;0.2466839998960495;1.0648159980773926;0.13663999736309052;0.12004800140857697;1.2043839693069458;-12.026874542236328;21.551250457763672;32.93937683105469
2117;0.0;0.0;0.0;0.15225599706172943;0.12004800140857697;1.2082879543304443;0.0;0.0;0.0
2119;0.0;0.0;0.0;0.13663999736309052;0.10443200170993805;1.2287839651107788;0.0;0.0;0.0
2121;0.0;0.0;0.0;0.14444799721240997;0.09662400186061859;1.2248799800872803;0.0;0.0;0.0
2123;0.02122800052165985;0.2386319935321808;1.0914119482040405;0.13663999736309052;0.12004800140857697;1.2492799758911133;-7.126874923706055;20.1512508392334;34.05937576293945
2126;0.0;0.0;0.0;0.14054399728775024;0.12785600125789642;1.2414720058441162;0.0;0.0;0.0
2128;0.0;0.0;0.0;0.1483519971370697;0.10443200170993805;1.2570879459381104;0.0;0.0;0.0
2130;0.0;0.0;0.0;0.17080000042915344;0.11614400148391724;1.2609919309616089;0.0;0.0;0.0
2132;0.03562399744987488;0.24863599240779877;1.115567922592163;0.18251200020313263;0.14347200095653534;1.2648959159851074;-2.9968748092651367;15.601249694824219;33.8493766784668
2134;0.0;0.0;0.0;0.15225599706172943;0.14737600088119507;1.2775839567184448;0.0;0.0;0.0
2136;0.0;0.0;0.0;0.18251200020313263;0.1239520013332367;1.2814879417419434;0.0;0.0;0.0
2138;0.0;0.0;0.0;0.16299200057983398;0.12004800140857697;1.2570879459381104;0.0;0.0;0.0
2140;0.058803997933864594;0.2610799968242645;1.1214239597320557;0.18641600012779236;0.13566400110721588;1.2326879501342773;-0.12687501311302185;11.051249504089355;32.729373931884766
2143;0.0;0.0;0.0;0.20983999967575073;0.13566400110721588;1.2453759908676147;0.0;0.0;0.0
2145;0.0;0.0;0.0;0.20203199982643127;0.11614400148391724;1.2531839609146118;0.0;0.0;0.0
2147;0.0;0.0;0.0;0.2176479995250702;0.13566400110721588;1.2414720058441162;0.0;0.0;0.0
2149;0.0802759975194931;0.2635200023651123;1.108247995376587;0.22545599937438965;0.1395680010318756;1.2209759950637817;2.1131250858306885;7.271250247955322;31.959375381469727
2151;0.0;0.0;0.0;0.23716799914836884;0.1395680010318756;1.2287839651107788;0.0;0.0;0.0
2153;0.0;0.0;0.0;0.2449759989976883;0.13566400110721588;1.2170720100402832;0.0;0.0;0.0
2155;0.0;0.0;0.0;0.24107199907302856;0.15518400073051453;1.2082879543304443;0.0;0.0;0.0
2157;0.12541599571704865;0.268887996673584;1.0904359817504883;0.28011199831962585;0.13566400110721588;1.1926720142364502;4.003125190734863;6.921250343322754;31.53937530517578
2160;0.0;0.0;0.0;0.2566879987716675;0.1239520013332367;1.2082879543304443;0.0;0.0;0.0
2162;0.0;0.0;0.0;0.2449759989976883;0.1512800008058548;1.1926720142364502;0.0;0.0;0.0
2164;0.0;0.0;0.0;0.2449759989976883;0.12785600125789642;1.2082879543304443;0.0;0.0;0.0
2166;0.13590799272060394;0.27083998918533325;1.0723799467086792;0.23716799914836884;0.13566400110721588;1.2004799842834473;5.963125228881836;7.761250019073486;32.169376373291016
2168;0.0;0.0;0.0;0.2332639992237091;0.14347200095653534;1.2004799842834473;0.0;0.0;0.0
2170;0.0;0.0;0.0;0.2449759989976883;0.14737600088119507;1.1838879585266113;0.0;0.0;0.0
2172;0.0;0.0;0.0;0.23716799914836884;0.12004800140857697;1.1682720184326172;0.0;0.0;0.0
2174;0.13517600297927856;0.26278799772262573;1.055299997329712;0.25278398394584656;0.12004800140857697;1.1965759992599487;7.293125152587891;8.671249389648438;32.65937423706055
2177;0.0;0.0;0.0;0.27620798349380493;0.12004800140857697;1.1760799884796143;0.0;0.0;0.0
2179;0.0;0.0;0.0;0.27620798349380493;0.12004800140857697;1.1838879585266113;0.0;0.0;0.0
2181;0.0;0.0;0.0;0.29572799801826477;0.08881600201129913;1.1760799884796143;0.0;0.0;0.0
2183;0.16274799406528473;0.2520520091056824;1.0462720394134521;0.31915199756622314;0.11614400148391724;1.1838879585266113;7.223124980926514;10.981249809265137;32.65937423706055
2185;0.0;0.0;0.0;0.29182398319244385;0.12004800140857697;1.1643680334091187;0.0;0.0;0.0
2187;0.0;0.0;0.0;0.2996319830417633;0.10443200170993805;1.1838879585266113;0.0;0.0;0.0
2189;0.0;0.0;0.0;0.29182398319244385;0.10443200170993805;1.1721760034561157;0.0;0.0;0.0
2191;0.18104799091815948;0.23765599727630615;1.04066002368927;0.27620798349380493;0.07710400223731995;1.1721760034561157;6.313125133514404;14.411250114440918;31.889375686645508
2194;0.0;0.0;0.0;0.30743998289108276;0.0849120020866394;1.1438720226287842;0.0;0.0;0.0
2196;0.0;0.0;0.0;0.30353599786758423;0.08881600201129913;1.1516799926757812;0.0;0.0;0.0
2198;0.0;0.0;0.0;0.2840159833431244;0.08881600201129913;1.1555839776992798;0.0;0.0;0.0
2200;0.1681160032749176;0.22618798911571503;1.0301679372787476;0.2840159833431244;0.10443200170993805;1.1516799926757812;6.383125305175781;16.791250228881836;29.999374389648438
2202;0.0;0.0;0.0;0.2840159833431244;0.09272000193595886;1.1682720184326172;0.0;0.0;0.0
2204;0.0;0.0;0.0;0.26449599862098694;0.09662400186061859;1.1477760076522827;0.0;0.0;0.0
2206;0.0;0.0;0.0;0.24887999892234802;0.0849120020866394;1.1477760076522827;0.0;0.0;0.0
2208;0.1554279923439026;0.21398799121379852;1.0157719850540161;0.2840159833431244;0.07320000231266022;1.139967918395996;7.783124923706055;18.33125114440918;27.899375915527344
2211;0.0;0.0;0.0;0.2683999836444855;0.06929600238800049;1.1028800010681152;0.0;0.0;0.0
2213;0.0;0.0;0.0;0.2566879987716675;0.06148799881339073;1.1233760118484497;0.0;0.0;0.0
2215;0.0;0.0;0.0;0.2879199981689453;0.045871999114751816;1.115567922592163;0.0;0.0;0.0
2217;0.15225599706172943;0.1983719915151596;0.9823439717292786;0.26449599862098694;0.053679998964071274;1.115567922592163;9.953125;21.131250381469727;26.42937469482422
2219;0.0;0.0;0.0;0.2879199981689453;0.045871999114751816;1.0872639417648315;0.0;0.0;0.0
2221;0.0;0.0;0.0;0.24107199907302856;0.06148799881339073;1.0989760160446167;0.0;0.0;0.0
2223;0.0;0.0;0.0;0.2332639992237091;-0.04782399907708168;1.066767930984497;0.0;0.0;0.0
2225;0.13249199092388153;0.1361519992351532;0.9625799655914307;0.22935999929904938;-0.028303999453783035;1.0706720352172852;11.773124694824219;25.19124984741211;25.939374923706055
2228;0.0;0.0;0.0;0.1903200000524521;0.12785600125789642;1.1555839776992798;0.0;0.0;0.0
2230;0.0;0.0;0.0;0.21374399960041046;-0.04782399907708168;1.083359956741333;0.0;0.0;0.0
2232;0.0;0.0;0.0;0.20203199982643127;-0.00878399983048439;1.1721760034561157;0.0;0.0;0.0
2234;0.08393599838018417;0.1500599980354309;1.0052800178527832;0.19812799990177155;0.04196799919009209;1.1604639291763306;14.503125190734863;27.92125129699707;24.259374618530273
2236;0.0;0.0;0.0;0.1600639969110489;0.0849120020866394;1.1965759992599487;0.0;0.0;0.0
2238;0.0;0.0;0.0;0.1512800008058548;0.02635199949145317;1.1799839735031128;0.0;0.0;0.0
2240;0.0;0.0;0.0;0.12883199751377106;0.04196799919009209;1.1643680334091187;0.0;0.0;0.0
2242;0.04172400012612343;0.17421600222587585;1.0440759658813477;0.15225599706172943;0.03806399926543236;1.1682720184326172;10.86312484741211;24.701250076293945;26.919374465942383
2245;0.0;0.0;0.0;0.1512800008058548;-0.0009759999811649323;1.1555839776992798;0.0;0.0;0.0
2247;0.0;0.0;0.0;0.15908800065517426;-0.024399999529123306;1.1067839860916138;0.0;0.0;0.0
2249;0.0;0.0;0.0;0.13663999736309052;-0.01268799975514412;1.139967918395996;0.0;0.0;0.0
2251;0.023180000483989716;0.1256600022315979;1.0067440271377563;0.12883199751377106;-0.05172799900174141;1.1067839860916138;7.503125190734863;18.821250915527344;30.279375076293945
2253;0.0;0.0;0.0;0.1600639969110489;-0.05172799900174141;1.1116639375686646;0.0;0.0;0.0
2255;0.0;0.0;0.0;0.15615999698638916;-0.05953599885106087;1.1194720268249512;0.0;0.0;0.0
2257;0.0;0.0;0.0;0.17080000042915344;-0.06734399497509003;1.09116792678833;0.0;0.0;0.0
2260;0.04050400108098984;0.07393199950456619;0.9818559885025024;0.15908800065517426;-0.05563199892640114;1.115567922592163;10.023124694824219;16.231250762939453;30.279375076293945
2262;0.0;0.0;0.0;0.1483519971370697;-0.0634399950504303;1.1272799968719482;0.0;0.0;0.0
2264;0.0;0.0;0.0;0.16396799683570862;-0.07515199482440948;1.1438720226287842;0.0;0.0;0.0
2266;0.0;0.0;0.0;0.13663999736309052;-0.024399999529123306;1.1887680292129517;0.0;0.0;0.0
2268;0.032207999378442764;0.06831999868154526;1.0223599672317505;0.15908800065517426;-0.07124799489974976;1.1594879627227783;13.383125305175781;13.641249656677246;28.669374465942383
2270;0.0;0.0;0.0;0.16787199676036835;-0.04001599922776222;1.1926720142364502;0.0;0.0;0.0
2272;0.0;0.0;0.0;0.1483519971370697;-0.04001599922776222;1.2131680250167847;0.0;0.0;0.0
2274;0.0;0.0;0.0;0.1903200000524521;-0.0634399950504303;1.1760799884796143;0.0;0.0;0.0
2276;0.04416399821639061;0.08515600115060806;1.0531039237976074;0.1903200000524521;-0.01659199967980385;1.1760799884796143;14.223125457763672;4.611250400543213;25.51937484741211
2279;0.0;0.0;0.0;0.18641600012779236;-0.07124799489974976;1.1194720268249512;0.0;0.0;0.0
2281;0.0;0.0;0.0;0.16396799683570862;-0.07515199482440948;1.1594879627227783;0.0;0.0;0.0
2283;0.0;0.0;0.0;0.1903200000524521;-0.05953599885106087;1.1438720226287842;0.0;0.0;0.0
2285;0.07393199950456619;0.06758800148963928;1.0233359336853027;0.205935999751091;-0.032207999378442764;1.1516799926757812;13.803125381469727;-5.258749961853027;22.01937484741211
2287;0.0;0.0;0.0;0.2449759989976883;-0.06734399497509003;1.1194720268249512;0.0;0.0;0.0
2289;0.0;0.0;0.0;0.29182398319244385;-0.05172799900174141;1.0989760160446167;0.0;0.0;0.0
2291;0.0;0.0;0.0;0.2879199981689453;-0.0634399950504303;1.0823839902877808;0.0;0.0;0.0
2294;0.1525000035762787;0.07197999954223633;0.9840520024299622;0.3113439977169037;-0.0634399950504303;1.0950720310211182;11.563125610351562;-9.388750076293945;18.589374542236328
2296;0.0;0.0;0.0;0.33086398243904114;-0.10638399422168732;1.042367935180664;0.0;0.0;0.0
2298;0.0;0.0;0.0;0.3113439977169037;-0.10247999429702759;1.0784800052642822;0.0;0.0;0.0
2300;0.0;0.0;0.0;0.34647998213768005;-0.15323199331760406;1.0501760244369507;0.0;0.0;0.0
2302;0.21911199390888214;0.0226919986307621;0.9320799708366394;0.31915199756622314;-0.11028799414634705;1.0628639459609985;9.323124885559082;-1.6887500286102295;16.349374771118164
2304;0.0;0.0;0.0;0.34647998213768005;-0.12590399384498596;1.0706720352172852;0.0;0.0;0.0
2306;0.0;0.0;0.0;0.30743998289108276;-0.0907679945230484;1.0872639417648315;0.0;0.0;0.0
2308;0.0;0.0;0.0;0.31915199756622314;-0.15323199331760406;1.0550559759140015;0.0;0.0;0.0
2311;0.19105198979377747;0.007807999849319458;0.9413520097732544;0.25278398394584656;-0.1180959939956665;1.0950720310211182;8.903124809265137;10.701250076293945;17.049375534057617
2313;0.0;0.0;0.0;0.24107199907302856;-0.16103999316692352;1.0745760202407837;0.0;0.0;0.0
2315;0.0;0.0;0.0;0.22155199944972992;-0.16884799301624298;1.0706720352172852;0.0;0.0;0.0
2317;0.0;0.0;0.0;0.19422399997711182;-0.0907679945230484;1.1438720226287842;0.0;0.0;0.0
2319;0.12224400043487549;-0.00317199993878603;0.9667279720306396;0.22935999929904938;-0.10247999429702759;1.1067839860916138;9.11312484741211;20.08125114440918;17.189374923706055
2321;0.0;0.0;0.0;0.19812799990177155;-0.19227199256420135;1.1067839860916138;0.0;0.0;0.0
2323;0.0;0.0;0.0;0.15518400073051453;-0.2117919921875;1.083359956741333;0.0;0.0;0.0
2325;0.0;0.0;0.0;0.1668960005044937;-0.19227199256420135;1.0950720310211182;0.0;0.0;0.0
2328;0.0680759996175766;-0.062219999730587006;0.9735599756240845;0.205935999751091;-0.21569599211215973;1.0950720310211182;9.183125495910645;22.181251525878906;16.909374237060547
2330;0.0;0.0;0.0;0.16787199676036835;-0.20398399233818054;1.1233760118484497;0.0;0.0;0.0
2332;0.0;0.0;0.0;0.18641600012779236;-0.2000799924135208;1.1116639375686646;0.0;0.0;0.0
2334;0.0;0.0;0.0;0.205935999751091;-0.20788799226284027;1.1116639375686646;0.0;0.0;0.0
2336;0.05441199988126755;-0.07515199482440948;0.9762439727783203;0.1786080002784729;-0.19227199256420135;1.115567922592163;13.943124771118164;17.911251068115234;16.419374465942383
2338;0.0;0.0;0.0;0.16299200057983398;-0.19617599248886108;1.1194720268249512;0.0;0.0;0.0
2340;0.0;0.0;0.0;0.09759999811649323;-0.1844639927148819;1.1477760076522827;0.0;0.0;0.0
2342;0.0;0.0;0.0;0.09759999811649323;-0.21959999203681946;1.1516799926757812;0.0;0.0;0.0
2345;0.0004879999905824661;-0.07881199568510056;1.0062559843063354;0.08588799834251404;-0.2391199916601181;1.1555839776992798;17.233123779296875;9.37125015258789;17.189374923706055
2347;0.0;0.0;0.0;0.08198399841785431;-0.21959999203681946;1.1477760076522827;0.0;0.0;0.0
2349;0.0;0.0;0.0;0.14444799721240997;-0.2508319914340973;1.1516799926757812;0.0;0.0;0.0
2351;0.0;0.0;0.0;0.14444799721240997;-0.24302399158477783;1.1067839860916138;0.0;0.0;0.0
2353;0.01439599972218275;-0.09979599714279175;1.0069879293441772;0.17470400035381317;-0.2547360062599182;1.0872639417648315;16.11312484741211;-3.298750162124634;15.859375
2355;0.0;0.0;0.0;0.19812799990177155;-0.24302399158477783;1.1116639375686646;0.0;0.0;0.0
2357;0.0;0.0;0.0;0.21374399960041046;-0.2547360062599182;1.115567922592163;0.0;0.0;0.0
2359;0.0;0.0;0.0;0.21374399960041046;-0.28596800565719604;1.115567922592163;0.0;0.0;0.0
2362;0.08344800025224686;-0.12614800035953522;0.9745360016822815;0.25278398394584656;-0.2781600058078766;1.0784800052642822;15.203125;-10.228750228881836;15.01937484741211
2364;0.0;0.0;0.0;0.260591983795166;-0.26254400610923767;1.0950720310211182;0.0;0.0;0.0
2366;0.0;0.0;0.0;0.27620798349380493;-0.27425599098205566;1.0823839902877808;0.0;0.0;0.0
2368;0.0;0.0;0.0;0.30353599786758423;-0.27425599098205566;1.0706720352172852;0.0;0.0;0.0
2370;0.15518400073051453;-0.1420079916715622;0.9533079862594604;0.3269599974155426;-0.26254400610923767;1.0628639459609985;14.29312515258789;-13.798749923706055;14.529375076293945
2372;0.0;0.0;0.0;0.3152479827404022;-0.29767999053001404;1.0706720352172852;0.0;0.0;0.0
2374;0.0;0.0;0.0;0.34647998213768005;-0.2937760055065155;1.0706720352172852;0.0;0.0;0.0
2376;0.0;0.0;0.0;0.30353599786758423;-0.29767999053001404;1.0540800094604492;0.0;0.0;0.0
2379;0.2042279988527298;-0.16372399032115936;0.936959981918335;0.33086398243904114;-0.3172000050544739;1.066767930984497;13.383125305175781;-11.20875072479248;13.339375495910645
2381;0.0;0.0;0.0;0.3113439977169037;-0.3211039900779724;1.066767930984497;0.0;0.0;0.0
2383;0.0;0.0;0.0;0.3152479827404022;-0.29767999053001404;1.0462720394134521;0.0;0.0;0.0
2385;0.0;0.0;0.0;0.3152479827404022;-0.34062400460243225;1.0823839902877808;0.0;0.0;0.0
2387;0.19885998964309692;-0.1878799945116043;0.9332999587059021;0.29182398319244385;-0.3445279896259308;1.066767930984497;13.733124732971191;-7.778749942779541;11.7993745803833
2389;0.0;0.0;0.0;0.29182398319244385;-0.33671998977661133;1.0989760160446167;0.0;0.0;0.0
2391;0.0;0.0;0.0;0.31915199756622314;-0.35624000430107117;1.0706720352172852;0.0;0.0;0.0
2393;0.0;0.0;0.0;0.31915199756622314;-0.32500800490379333;1.0823839902877808;0.0;0.0;0.0
2396;0.19617599248886108;-0.20447199046611786;0.9520879983901978;0.30743998289108276;-0.33671998977661133;1.0540800094604492;13.663125038146973;-9.318750381469727;9.69937515258789
2398;0.0;0.0;0.0;0.30743998289108276;-0.3484320044517517;1.083359956741333;0.0;0.0;0.0
2400;0.0;0.0;0.0;0.2996319830417633;-0.3640480041503906;1.0872639417648315;0.0;0.0;0.0
2402;0.0;0.0;0.0;0.29182398319244385;-0.3757599890232086;1.0989760160446167;0.0;0.0;0.0
