Timestamp(ms);LG-Accel x(g);LG-Accel y(g);LG-Accel z(g);HG-Accel x(g);HG-Accel y(g);HG-Accel z(g);Gyro x(dps);Gyro y(dps);Gyro z(dps)
59;0.0;0.0;0.0;0.4294399917125702;-0.0663679987192154;1.1282559633255005;0.0;0.0;0.0
61;0.0;0.0;0.0;0.4138239920139313;-0.08588799834251404;1.132159948348999;0.0;0.0;0.0
63;0.0;0.0;0.0;0.4060159921646118;-0.07417599856853485;1.1165440082550049;0.0;0.0;0.0
65;0.0;0.0;0.0;0.4138239920139313;-0.11321599781513214;1.124351978302002;0.0;0.0;0.0
67;0.0;0.0;0.0;0.39137598872184753;-0.0936959981918335;1.1204479932785034;0.0;0.0;0.0
70;0.0;0.0;0.0;0.4138239920139313;-0.07905599474906921;1.1302080154418945;0.0;0.0;0.0
72;0.0;0.0;0.0;0.44017598032951355;-0.07905599474906921;1.150704026222229;0.0;0.0;0.0
74;0.0;0.0;0.0;0.42846399545669556;-0.0907679945230484;1.1184959411621094;0.0;0.0;0.0
76;0.3020719885826111;0.04879999905824661;1.0099159479141235;0.45188799500465393;-0.04391999915242195;1.1389919519424438;0.0;0.0;0.0
78;0.0;0.0;0.0;0.4167519807815552;-0.05563199892640114;1.175104022026062;0.0;0.0;0.0
80;0.0;0.0;0.0;0.42846399545669556;-0.07515199482440948;1.1877919435501099;0.0;0.0;0.0
82;0.0;0.0;0.0;0.4753119945526123;-0.05563199892640114;1.1916959285736084;0.0;0.0;0.0
84;0.32500800490379333;0.07954400032758713;1.0482239723205566;0.46750399470329285;-0.05172799900174141;1.207311987876892;0.0;0.0;0.0
87;0.0;0.0;0.0;0.4596959948539734;-0.02147199958562851;1.2160959243774414;0.0;0.0;0.0
89;0.0;0.0;0.0;0.4440799951553345;-0.02147199958562851;1.2404959201812744;0.0;0.0;0.0
91;0.0;0.0;0.0;0.45188799500465393;-0.01756799966096878;1.2200000286102295;0.0;0.0;0.0
93;0.3369639813899994;0.11126399785280228;1.0772600173950195;0.436271995306015;-0.029279999434947968;1.2034080028533936;0.0;0.0;0.0
95;0.0;0.0;0.0;0.40991997718811035;-0.0331839993596077;1.2200000286102295;0.0;0.0;0.0
97;0.0;0.0;0.0;0.39430397748947144;-0.037087999284267426;1.2034080028533936;0.0;0.0;0.0
99;0.0;0.0;0.0;0.38649600744247437;-0.037087999284267426;1.1956000328063965;0.0;0.0;0.0
101;0.28718799352645874;0.10394399613142014;1.0728679895401;0.39430397748947144;-0.029279999434947968;1.1877919435501099;0.0;0.0;0.0
104;0.0;0.0;0.0;0.40113598108291626;-0.05953599885106087;1.2034080028533936;0.0;0.0;0.0
106;0.0;0.0;0.0;0.4138239920139313;-0.05172799900174141;1.1916959285736084;0.0;0.0;0.0
108;0.0;0.0;0.0;0.38649600744247437;-0.0634399950504303;1.1877919435501099;0.0;0.0;0.0
110;0.2781600058078766;0.09613599628210068;1.069451928138733;0.374783992767334;-0.04782399907708168;1.1956000328063965;0.0;0.0;0.0
112;0.0;0.0;0.0;0.38649600744247437;-0.04391999915242195;1.1956000328063965;0.0;0.0;0.0
114;0.0;0.0;0.0;0.3903999924659729;-0.03611199930310249;1.1956000328063965;0.0;0.0;0.0
116;0.0;0.0;0.0;0.3786879777908325;-0.004879999905824661;1.1916959285736084;0.0;0.0;0.0
118;0.2744999825954437;0.11297199875116348;1.0731120109558105;0.3630719780921936;0.010735999792814255;1.2278079986572266;14.070000648498535;18.73812484741211;10.171875
121;0.0;0.0;0.0;0.4050399959087372;0.014639999717473984;1.2278079986572266;0.0;0.0;0.0
123;0.0;0.0;0.0;0.3903999924659729;0.02635199949145317;1.2034080028533936;0.0;0.0;0.0
125;0.0;0.0;0.0;0.4177280068397522;0.03415999934077263;1.2200000286102295;0.0;0.0;0.0
127;0.28645598888397217;0.14786399900913239;1.0789679288864136;0.41284799575805664;0.018543999642133713;1.2112159729003906;16.239999771118164;16.358125686645508;10.171875
129;0.0;0.0;0.0;0.40991997718811035;0.045871999114751816;1.2356159687042236;0.0;0.0;0.0
131;0.0;0.0;0.0;0.4206559956073761;0.03806399926543236;1.2200000286102295;0.0;0.0;0.0
133;0.0;0.0;0.0;0.42846399545669556;0.04196799919009209;1.2278079986572266;0.0;0.0;0.0
136;0.3020719885826111;0.1676279902458191;1.0828720331192017;0.436271995306015;0.02635199949145317;1.2278079986572266;15.050000190734863;14.538125038146973;10.941874504089355
138;0.0;0.0;0.0;0.44017598032951355;0.040991999208927155;1.199504017829895;0.0;0.0;0.0
140;0.0;0.0;0.0;0.45188799500465393;0.040991999208927155;1.223904013633728;0.0;0.0;0.0
142;0.0;0.0;0.0;0.447983980178833;0.0058559998869895935;1.1790080070495605;0.0;0.0;0.0
144;0.3274479806423187;0.16396799683570862;1.069208025932312;0.44017598032951355;0.0058559998869895935;1.1712000370025635;11.970000267028809;13.278124809265137;12.411874771118164
146;0.0;0.0;0.0;0.4596959948539734;0.044895999133586884;1.199504017829895;0.0;0.0;0.0
148;0.0;0.0;0.0;0.49483197927474976;0.01756799966096878;1.1916959285736084;0.0;0.0;0.0
150;0.0;0.0;0.0;0.46750399470329285;0.037087999284267426;1.1956000328063965;0.0;0.0;0.0
152;0.35404399037361145;0.15030398964881897;1.0579839944839478;0.47921597957611084;-0.0058559998869895935;1.1712000370025635;8.960000038146973;12.928125381469727;14.58187484741211
155;0.0;0.0;0.0;0.49483197927474976;-0.013663999736309052;1.1916959285736084;0.0;0.0;0.0
157;0.0;0.0;0.0;0.47921597957611084;0.0058559998869895935;1.1916959285736084;0.0;0.0;0.0
159;0.0;0.0;0.0;0.5065439939498901;0.0058559998869895935;1.207311987876892;0.0;0.0;0.0
161;0.37088000774383545;0.12663599848747253;1.0584720373153687;0.4635999798774719;0.0019519999623298645;1.1956000328063965;6.650000095367432;14.468125343322754;16.33187484741211
163;0.0;0.0;0.0;0.5260639786720276;-0.0331839993596077;1.1956000328063965;0.0;0.0;0.0
165;0.0;0.0;0.0;0.5182560086250305;-0.013663999736309052;1.1868159770965576;0.0;0.0;0.0
167;0.0;0.0;0.0;0.5143519639968872;-0.02147199958562851;1.1916959285736084;0.0;0.0;0.0
169;0.3925960063934326;0.09637999534606934;1.0674999952316284;0.5338720083236694;-0.029279999434947968;1.223904013633728;6.089999675750732;16.98812484741211;17.24187660217285
172;0.0;0.0;0.0;0.5143519639968872;-0.0605119988322258;1.1956000328063965;0.0;0.0;0.0
174;0.0;0.0;0.0;0.5065439939498901;-0.08003199845552444;1.2160959243774414;0.0;0.0;0.0
176;0.0;0.0;0.0;0.5182560086250305;-0.09174399822950363;1.231711983680725;0.0;0.0;0.0
178;0.3933279812335968;0.06270799785852432;1.0828720331192017;0.5104479789733887;-0.09955199807882309;1.2034080028533936;8.329999923706055;19.368125915527344;17.171875
180;0.0;0.0;0.0;0.5416799783706665;-0.0878399983048439;1.2200000286102295;0.0;0.0;0.0
182;0.0;0.0;0.0;0.5104479789733887;-0.09174399822950363;1.2200000286102295;0.0;0.0;0.0
184;0.0;0.0;0.0;0.5143519639968872;-0.08393599838018417;1.2404959201812744;0.0;0.0;0.0
187;0.39015600085258484;0.03635599836707115;1.0940959453582764;0.5026400089263916;-0.115167997777462;1.223904013633728;12.600000381469727;20.2081241607666;15.77187442779541
189;0.0;0.0;0.0;0.48311999440193176;-0.1180959939956665;1.2278079986572266;0.0;0.0;0.0
191;0.0;0.0;0.0;0.4870239794254303;-0.10638399422168732;1.231711983680725;0.0;0.0;0.0
193;0.0;0.0;0.0;0.46750399470329285;-0.0907679945230484;1.2356159687042236;0.0;0.0;0.0
195;0.36673200130462646;0.015371999703347683;1.0989760160446167;0.47921597957611084;-0.12590399384498596;1.231711983680725;17.43000030517578;18.808124542236328;13.391875267028809
197;0.0;0.0;0.0;0.45188799500465393;-0.1180959939956665;1.199504017829895;0.0;0.0;0.0
199;0.0;0.0;0.0;0.42846399545669556;-0.12199999392032623;1.207311987876892;0.0;0.0;0.0
201;0.0;0.0;0.0;0.4635999798774719;-0.11419199407100677;1.1956000328063965;0.0;0.0;0.0
204;0.33671998977661133;0.006587999872863293;1.079211950302124;0.4323679804801941;-0.12199999392032623;1.2034080028533936;22.329999923706055;15.448124885559082;9.751874923706055
206;0.0;0.0;0.0;0.4440799951553345;-0.12590399384498596;1.1877919435501099;0.0;0.0;0.0
208;0.0;0.0;0.0;0.45188799500465393;-0.09857599437236786;1.1633919477462769;0.0;0.0;0.0
210;0.0;0.0;0.0;0.4596959948539734;-0.10247999429702759;1.150704026222229;0.0;0.0;0.0
212;0.3269599974155426;0.01659199967980385;1.0401719808578491;0.4596959948539734;-0.0907679945230484;1.1672959327697754;26.530000686645508;11.598124504089355;5.901875019073486
214;0.0;0.0;0.0;0.46750399470329285;-0.09857599437236786;1.1350879669189453;0.0;0.0;0.0
216;0.0;0.0;0.0;0.447983980178833;-0.08686399459838867;1.1350879669189453;0.0;0.0;0.0
218;0.0;0.0;0.0;0.436271995306015;-0.06734399497509003;1.1058080196380615;0.0;0.0;0.0
221;0.32598400115966797;0.04172400012612343;0.9913719892501831;0.45579198002815247;-0.09467199444770813;1.097999930381775;28.770000457763672;9.078125;3.031874895095825
223;0.0;0.0;0.0;0.44310399889945984;-0.0907679945230484;1.066767930984497;0.0;0.0;0.0
225;0.0;0.0;0.0;0.4470079839229584;-0.05563199892640114;1.0745760202407837;0.0;0.0;0.0
227;0.0;0.0;0.0;0.44310399889945984;-0.0907679945230484;1.0257760286331177;0.0;0.0;0.0
229;0.3235439956188202;0.0605119988322258;0.9281759858131409;0.4509119987487793;-0.07124799489974976;1.0257760286331177;29.68000030517578;9.008125305175781;1.6318750381469727
231;0.0;0.0;0.0;0.4470079839229584;-0.05563199892640114;1.0218719244003296;0.0;0.0;0.0
233;0.0;0.0;0.0;0.43139198422431946;-0.04001599922776222;1.0013760328292847;0.0;0.0;0.0
235;0.0;0.0;0.0;0.45871999859809875;-0.024399999529123306;1.0140639543533325;0.0;0.0;0.0
238;0.3294000029563904;0.08808399736881256;0.8805959820747375;0.45481598377227783;-0.032207999378442764;0.9896639585494995;30.170000076293945;9.148124694824219;2.2618749141693115
240;0.0;0.0;0.0;0.4440799951553345;-0.05172799900174141;0.9720959663391113;0.0;0.0;0.0
242;0.0;0.0;0.0;0.42846399545669556;-0.032207999378442764;0.9759999513626099;0.0;0.0;0.0
244;0.0;0.0;0.0;0.447983980178833;-0.024399999529123306;0.9515999555587769;0.0;0.0;0.0
246;0.32842400670051575;0.09882000088691711;0.8537560105323792;0.4440799951553345;-0.020495999604463577;0.9603840112686157;29.1200008392334;9.848124504089355;3.871875047683716
248;0.0;0.0;0.0;0.4635999798774719;-0.032207999378442764;0.9642879962921143;0.0;0.0;0.0
250;0.0;0.0;0.0;0.47921597957611084;-0.04001599922776222;0.9564799666404724;0.0;0.0;0.0
252;0.0;0.0;0.0;0.4714079797267914;-0.04782399907708168;0.9320799708366394;0.0;0.0;0.0
255;0.3398919999599457;0.08930400013923645;0.827892005443573;0.4753119945526123;-0.07515199482440948;0.9564799666404724;26.739999771118164;11.948124885559082;6.251875400543213
257;0.0;0.0;0.0;0.4870239794254303;-0.05953599885106087;0.9437919855117798;0.0;0.0;0.0
259;0.0;0.0;0.0;0.46750399470329285;-0.0634399950504303;0.9437919855117798;0.0;0.0;0.0
261;0.0;0.0;0.0;0.4753119945526123;-0.032207999378442764;0.9476959705352783;0.0;0.0;0.0
263;0.35233598947525024;0.07515199482440948;0.815447986125946;0.46750399470329285;-0.05953599885106087;0.9359839558601379;24.220001220703125;14.8881254196167;9.821874618530273
265;0.0;0.0;0.0;0.5104479789733887;-0.05563199892640114;0.9603840112686157;0.0;0.0;0.0
267;0.0;0.0;0.0;0.47921597957611084;-0.05563199892640114;0.9359839558601379;0.0;0.0;0.0
269;0.0;0.0;0.0;0.47921597957611084;-0.06734399497509003;0.9720959663391113;0.0;0.0;0.0
272;0.3630719780921936;0.05807200074195862;0.8232559561729431;0.47921597957611084;-0.0634399950504303;0.9808799624443054;20.579999923706055;17.408124923706055;14.651874542236328
274;0.0;0.0;0.0;0.4870239794254303;-0.10345599800348282;0.9476959705352783;0.0;0.0;0.0
276;0.0;0.0;0.0;0.47921597957611084;-0.09564799815416336;0.9720959663391113;0.0;0.0;0.0
278;0.0;0.0;0.0;0.5065439939498901;-0.13859200477600098;0.9720959663391113;0.0;0.0;0.0
280;0.3647799789905548;0.01878799870610237;0.8361879587173462;0.4714079797267914;-0.15811198949813843;0.9847840070724487;15.75;20.6981258392334;19.13187599182129
282;0.0;0.0;0.0;0.46750399470329285;-0.16201600432395935;0.9808799624443054;0.0;0.0;0.0
284;0.0;0.0;0.0;0.48311999440193176;-0.13078400492668152;0.9886879920959473;0.0;0.0;0.0
286;0.0;0.0;0.0;0.47921597957611084;-0.1815359890460968;0.9925919771194458;0.0;0.0;0.0
289;0.35526400804519653;-0.033427998423576355;0.8552199602127075;0.45188799500465393;-0.17372798919677734;0.9847840070724487;12.039999961853027;23.14812469482422;22.63187599182129
291;0.0;0.0;0.0;0.46750399470329285;-0.22740799188613892;0.9847840070724487;0.0;0.0;0.0
293;0.0;0.0;0.0;0.48311999440193176;-0.23521599173545837;0.9964959621429443;0.0;0.0;0.0
295;0.0;0.0;0.0;0.447983980178833;-0.24692799150943756;1.0091840028762817;0.0;0.0;0.0
297;0.34404000639915466;-0.10735999792814255;0.8676639795303345;0.4596959948539734;-0.27425599098205566;0.9847840070724487;9.100000381469727;23.91812515258789;23.681875228881836
299;0.0;0.0;0.0;0.4635999798774719;-0.29767999053001404;0.9759999513626099;0.0;0.0;0.0
301;0.0;0.0;0.0;0.48311999440193176;-0.2781600058078766;0.9808799624443054;0.0;0.0;0.0
303;0.0;0.0;0.0;0.4596959948539734;-0.32891198992729187;0.9720959663391113;0.0;0.0;0.0
306;0.3501400053501129;-0.18104799091815948;0.8425319790840149;0.4753119945526123;-0.32891198992729187;0.9359839558601379;11.0600004196167;24.268125534057617;24.031875610351562
308;0.0;0.0;0.0;0.4870239794254303;-0.3328160047531128;0.9808799624443054;0.0;0.0;0.0
310;0.0;0.0;0.0;0.4596959948539734;-0.32500800490379333;0.9799039959907532;0.0;0.0;0.0
312;0.0;0.0;0.0;0.4870239794254303;-0.3328160047531128;0.9799039959907532;0.0;0.0;0.0
314;0.358924001455307;-0.19300399720668793;0.8408240079879761;0.47921597957611084;-0.29767999053001404;0.9964959621429443;16.170000076293945;25.388124465942383;24.941875457763672
316;0.0;0.0;0.0;0.48311999440193176;-0.33671998977661133;1.0003999471664429;0.0;0.0;0.0
318;0.0;0.0;0.0;0.4909279942512512;-0.3445279896259308;1.0130879878997803;0.0;0.0;0.0
320;0.0;0.0;0.0;0.46750399470329285;-0.3172000050544739;1.0091840028762817;0.0;0.0;0.0
323;0.36575600504875183;-0.1856839954853058;0.87254399061203;0.5026400089263916;-0.32891198992729187;1.0169919729232788;19.31999969482422;26.298124313354492;26.13187599182129
325;0.0;0.0;0.0;0.49483197927474976;-0.3416000008583069;1.0413919687271118;0.0;0.0;0.0
327;0.0;0.0;0.0;0.4753119945526123;-0.2908479869365692;1.0696959495544434;0.0;0.0;0.0
329;0.0;0.0;0.0;0.48311999440193176;-0.3455039858818054;1.0374879837036133;0.0;0.0;0.0
331;0.35526400804519653;-0.1954440027475357;0.9086560010910034;0.4440799951553345;-0.3181760013103485;1.0247999429702759;18.55000114440918;27.278125762939453;27.251874923706055
333;0.0;0.0;0.0;0.447983980178833;-0.36502400040626526;1.0814080238342285;0.0;0.0;0.0
335;0.0;0.0;0.0;0.45188799500465393;-0.3533119857311249;1.0618879795074463;0.0;0.0;0.0
337;0.0;0.0;0.0;0.42846399545669556;-0.38844799995422363;1.0618879795074463;0.0;0.0;0.0
340;0.32500800490379333;-0.2269199937582016;0.9315919876098633;0.447983980178833;-0.3689279854297638;1.0657919645309448;14.0;26.438125610351562;27.531875610351562
342;0.0;0.0;0.0;0.4440799951553345;-0.42260798811912537;1.0208959579467773;0.0;0.0;0.0
344;0.0;0.0;0.0;0.42455998063087463;-0.4030880033969879;1.0287039279937744;0.0;0.0;0.0
346;0.0;0.0;0.0;0.41284799575805664;-0.42260798811912537;1.0169919729232788;0.0;0.0;0.0
348;0.3111000061035156;-0.2715719938278198;0.9081679582595825;0.44017598032951355;-0.42260798811912537;1.0335839986801147;9.380000114440918;24.478124618530273;26.691875457763672
350;0.0;0.0;0.0;0.44017598032951355;-0.4421280026435852;1.0208959579467773;0.0;0.0;0.0
352;0.0;0.0;0.0;0.40991997718811035;-0.46164798736572266;1.0169919729232788;0.0;0.0;0.0
354;0.0;0.0;0.0;0.42455998063087463;-0.44603198766708374;0.9642879962921143;0.0;0.0;0.0
357;0.30451199412345886;-0.3096359968185425;0.871567964553833;0.4206559956073761;-0.4538399875164032;0.9886879920959473;6.089999675750732;23.638124465942383;25.99187660217285
359;0.0;0.0;0.0;0.38649600744247437;-0.4577440023422241;0.9720959663391113;0.0;0.0;0.0
361;0.0;0.0;0.0;0.39430397748947144;-0.4694559872150421;0.9437919855117798;0.0;0.0;0.0
363;0.0;0.0;0.0;0.4021120071411133;-0.4655520021915436;0.9886879920959473;0.0;0.0;0.0
365;0.2840159833431244;-0.3257399797439575;0.8457039594650269;0.41284799575805664;-0.4577440023422241;0.9720959663391113;3.7100000381469727;26.50812530517578;24.521875381469727
367;0.0;0.0;0.0;0.39820799231529236;-0.4382239878177643;0.9759999513626099;0.0;0.0;0.0
369;0.0;0.0;0.0;0.35916799306869507;-0.4538399875164032;0.9808799624443054;0.0;0.0;0.0
372;0.0;0.0;0.0;0.38259199261665344;-0.4538399875164032;0.9720959663391113;0.0;0.0;0.0
374;0.26278799772262573;-0.321835994720459;0.8488759994506836;0.38649600744247437;-0.44993600249290466;1.0091840028762817;2.1700000762939453;30.498125076293945;24.801876068115234
376;0.0;0.0;0.0;0.3513599932193756;-0.45871999859809875;0.9925919771194458;0.0;0.0;0.0
378;0.0;0.0;0.0;0.34355199337005615;-0.45871999859809875;1.0169919729232788;0.0;0.0;0.0
380;0.0;0.0;0.0;0.3513599932193756;-0.4352959990501404;0.9964959621429443;0.0;0.0;0.0
382;0.21911199390888214;-0.32085999846458435;0.8818159699440002;0.29280000925064087;-0.44310399889945984;1.0374879837036133;0.21000000834465027;31.96812629699707;25.85187530517578
384;0.0;0.0;0.0;0.27718400955200195;-0.47043198347091675;1.0657919645309448;0.0;0.0;0.0
386;0.0;0.0;0.0;0.2693759799003601;-0.49775999784469604;1.0657919645309448;0.0;0.0;0.0
389;0.0;0.0;0.0;0.24595199525356293;-0.47433599829673767;1.073599934577942;0.0;0.0;0.0
391;0.15445199608802795;-0.33842799067497253;0.9418399930000305;0.2576639950275421;-0.4899519979953766;1.1184959411621094;-2.450000047683716;31.548124313354492;26.76187515258789
393;0.0;0.0;0.0;0.230335995554924;-0.4928799867630005;1.1106879711151123;0.0;0.0;0.0
395;0.0;0.0;0.0;0.19129599630832672;-0.48897600173950195;1.1106879711151123;0.0;0.0;0.0
397;0.0;0.0;0.0;0.19910399615764618;-0.4928799867630005;1.126304030418396;0.0;0.0;0.0
399;0.08979199826717377;-0.3623400032520294;0.9903959631919861;0.187391996383667;-0.5045920014381409;1.1350879669189453;-6.160000324249268;28.328125;26.97187614440918
401;0.0;0.0;0.0;0.18348799645900726;-0.4967840015888214;1.1302080154418945;0.0;0.0;0.0
403;0.0;0.0;0.0;0.187391996383667;-0.5123999714851379;1.134112000465393;0.0;0.0;0.0
406;0.0;0.0;0.0;0.17177599668502808;-0.5084959864616394;1.1546080112457275;0.0;0.0;0.0
408;0.054899998009204865;-0.37722399830818176;1.0187000036239624;0.16787199676036835;-0.5045920014381409;1.1389919519424438;-9.380000114440918;22.728124618530273;26.691875457763672
410;0.0;0.0;0.0;0.16396799683570862;-0.5241119861602783;1.1389919519424438;0.0;0.0;0.0
412;0.0;0.0;0.0;0.1327359974384308;-0.5202080011367798;1.1672959327697754;0.0;0.0;0.0
414;0.0;0.0;0.0;0.1210239976644516;-0.5241119861602783;1.158511996269226;0.0;0.0;0.0
416;0.024887999519705772;-0.3984519839286804;1.0247999429702759;0.12492799758911133;-0.5163040161132812;1.1633919477462769;-11.130000114440918;16.638124465942383;25.15187644958496
418;0.0;0.0;0.0;0.1327359974384308;-0.5475360155105591;1.1712000370025635;0.0;0.0;0.0
420;0.0;0.0;0.0;0.14054399728775024;-0.5475360155105591;1.158511996269226;0.0;0.0;0.0
423;0.0;0.0;0.0;0.13663999736309052;-0.5358240008354187;1.146799921989441;0.0;0.0;0.0
425;0.01268799975514412;-0.41284799575805664;1.0194319486618042;0.1327359974384308;-0.5475360155105591;1.126304030418396;-10.569999694824219;9.708125114440918;20.671875
427;0.0;0.0;0.0;0.15225599706172943;-0.5592479705810547;1.1389919519424438;0.0;0.0;0.0
429;0.0;0.0;0.0;0.12492799758911133;-0.5397279858589172;1.1184959411621094;0.0;0.0;0.0
431;0.0;0.0;0.0;0.1327359974384308;-0.5280159711837769;1.126304030418396;0.0;0.0;0.0
433;0.013419999741017818;-0.411871999502182;0.9962520003318787;0.1483519971370697;-0.5241119861602783;1.1184959411621094;-8.399999618530273;4.318124771118164;15.141875267028809
435;0.0;0.0;0.0;0.15225599706172943;-0.5084959864616394;1.0901919603347778;0.0;0.0;0.0
437;0.0;0.0;0.0;0.12883199751377106;-0.5163040161132812;1.0862879753112793;0.0;0.0;0.0
440;0.0;0.0;0.0;0.0936959981918335;-0.5123999714851379;1.101904034614563;0.0;0.0;0.0
442;0.00317199993878603;-0.3840560019016266;0.9708759784698486;0.11321599781513214;-0.4928799867630005;1.0862879753112793;-7.0;0.6081249713897705;11.3618745803833
444;0.0;0.0;0.0;0.11711999773979187;-0.5006880164146423;1.0940959453582764;0.0;0.0;0.0
446;0.0;0.0;0.0;0.05172799900174141;-0.4811680018901825;1.0775039196014404;0.0;0.0;0.0
448;0.0;0.0;0.0;0.06734399497509003;-0.5006880164146423;1.0940959453582764;0.0;0.0;0.0
450;-0.03562399744987488;-0.36038798093795776;0.9662399888038635;0.08686399459838867;-0.5045920014381409;1.1058080196380615;-8.329999923706055;-0.09187500178813934;9.751874923706055
452;0.0;0.0;0.0;0.032207999378442764;-0.4772639870643616;1.126304030418396;0.0;0.0;0.0
454;0.0;0.0;0.0;0.032207999378442764;-0.4811680018901825;1.0940959453582764;0.0;0.0;0.0
457;0.0;0.0;0.0;0.024399999529123306;-0.4655520021915436;1.097999930381775;0.0;0.0;0.0
459;-0.08540000021457672;-0.33550000190734863;0.9652639627456665;-0.010735999792814255;-0.4694559872150421;1.0814080238342285;-10.710000038146973;-0.721875011920929;10.241874694824219
461;0.0;0.0;0.0;-0.03806399926543236;-0.4694559872150421;1.1058080196380615;0.0;0.0;0.0
463;0.0;0.0;0.0;-0.10833600163459778;-0.47336000204086304;1.0901919603347778;0.0;0.0;0.0
465;0.0;0.0;0.0;-0.10833600163459778;-0.46164798736572266;1.122399926185608;0.0;0.0;0.0
467;-0.19300399720668793;-0.3416000008583069;0.9681919813156128;-0.13176000118255615;-0.4538399875164032;1.0940959453582764;-13.019999504089355;-0.6518750190734863;7.301875114440918
469;0.0;0.0;0.0;-0.1698240041732788;-0.4811680018901825;1.10971200466156;0.0;0.0;0.0
471;0.0;0.0;0.0;-0.20495998859405518;-0.48507198691368103;1.1058080196380615;0.0;0.0;0.0
474;0.0;0.0;0.0;-0.2088640034198761;-0.4928799867630005;1.1184959411621094;0.0;0.0;0.0
476;-0.30402398109436035;-0.354775995016098;0.9967399835586548;-0.22448000311851501;-0.4928799867630005;1.1302080154418945;-14.420000076293945;-0.9318750500679016;-1.0981249809265137
478;0.0;0.0;0.0;-0.2518079876899719;-0.47336000204086304;1.1546080112457275;0.0;0.0;0.0
480;0.0;0.0;0.0;-0.2752319872379303;-0.4655520021915436;1.158511996269226;0.0;0.0;0.0
482;0.0;0.0;0.0;-0.26742398738861084;-0.44603198766708374;1.1672959327697754;0.0;0.0;0.0
484;-0.3845439851284027;-0.32964399456977844;1.0299240350723267;-0.24399998784065247;-0.40699198842048645;1.182911992073059;-14.420000076293945;0.46812498569488525;-12.648125648498535
486;0.0;0.0;0.0;-0.2752319872379303;-0.39528000354766846;1.1916959285736084;0.0;0.0;0.0
488;0.0;0.0;0.0;-0.25571200251579285;-0.40699198842048645;1.207311987876892;0.0;0.0;0.0
491;0.0;0.0;0.0;-0.21667200326919556;-0.3718560039997101;1.1624159812927246;0.0;0.0;0.0
493;-0.3794199824333191;-0.26327598094940186;1.0479799509048462;-0.2518079876899719;-0.36795198917388916;1.182911992073059;-13.789999961853027;-1.071874976158142;-22.16812515258789
495;0.0;0.0;0.0;-0.236191987991333;-0.3211039900779724;1.207311987876892;0.0;0.0;0.0
497;0.0;0.0;0.0;-0.20495998859405518;-0.32500800490379333;1.207311987876892;0.0;0.0;0.0
499;0.0;0.0;0.0;-0.19324800372123718;-0.27035200595855713;1.2160959243774414;0.0;0.0;0.0
501;-0.3352559804916382;-0.18055999279022217;1.0716480016708374;-0.18934398889541626;-0.28596800565719604;1.223904013633728;-12.949999809265137;-5.621875286102295;-27.2081241607666
504;0.0;0.0;0.0;-0.15030398964881897;-0.2664479911327362;1.2151199579238892;0.0;0.0;0.0
505;0.0;0.0;0.0;-0.1815359890460968;-0.25863999128341675;1.2404959201812744;0.0;0.0;0.0
508;0.0;0.0;0.0;-0.19324800372123718;-0.24302399158477783;1.2356159687042236;0.0;0.0;0.0
510;-0.30621999502182007;-0.13078400492668152;1.0948280096054077;-0.20105600357055664;-0.2547360062599182;1.2404959201812744;-13.229999542236328;-10.521875381469727;-27.34812355041504
512;0.0;0.0;0.0;-0.18544000387191772;-0.26742398738861084;1.2200000286102295;0.0;0.0;0.0
514;0.0;0.0;0.0;-0.17763200402259827;-0.22838398814201355;1.2278079986572266;0.0;0.0;0.0
516;0.0;0.0;0.0;-0.19324800372123718;-0.2596159875392914;1.223904013633728;0.0;0.0;0.0
518;-0.3130519986152649;-0.1210239976644516;1.0948280096054077;-0.23228800296783447;-0.2791360020637512;1.2160959243774414;-15.329999923706055;-13.391875267028809;-26.43812370300293
520;0.0;0.0;0.0;-0.17372798919677734;-0.25571200251579285;1.2160959243774414;0.0;0.0;0.0
522;0.0;0.0;0.0;-0.17372798919677734;-0.28303998708724976;1.207311987876892;0.0;0.0;0.0
525;0.0;0.0;0.0;-0.16591998934745789;-0.2752319872379303;1.1916959285736084;0.0;0.0;0.0
527;-0.31158798933029175;-0.1424959897994995;1.0731120109558105;-0.19324800372123718;-0.2791360020637512;1.199504017829895;-17.709999084472656;-16.33187484741211;-25.59812355041504
529;0.0;0.0;0.0;-0.22448000311851501;-0.27035200595855713;1.146799921989441;0.0;0.0;0.0
531;0.0;0.0;0.0;-0.20105600357055664;-0.25863999128341675;1.146799921989441;0.0;0.0;0.0
533;0.0;0.0;0.0;-0.19715198874473572;-0.26254400610923767;1.150704026222229;0.0;0.0;0.0
535;-0.3084160089492798;-0.13810399174690247;1.034559965133667;-0.20495998859405518;-0.28596800565719604;1.146799921989441;-18.34000015258789;-19.411874771118164;-23.84812355041504
538;0.0;0.0;0.0;-0.17763200402259827;-0.2547360062599182;1.1428959369659424;0.0;0.0;0.0
540;0.0;0.0;0.0;-0.17763200402259827;-0.25863999128341675;1.146799921989441;0.0;0.0;0.0
542;0.0;0.0;0.0;-0.17372798919677734;-0.2508319914340973;1.1184959411621094;0.0;0.0;0.0
544;-0.2991439998149872;-0.12517200410366058;1.0104039907455444;-0.16201600432395935;-0.2547360062599182;1.126304030418396;-17.639999389648438;-21.301876068115234;-22.16812515258789
546;0.0;0.0;0.0;-0.14347200095653534;-0.25863999128341675;1.1184959411621094;0.0;0.0;0.0
548;0.0;0.0;0.0;-0.1815359890460968;-0.23521599173545837;1.122399926185608;0.0;0.0;0.0
550;0.0;0.0;0.0;-0.15811198949813843;-0.23131199181079865;1.097999930381775;0.0;0.0;0.0
552;-0.2925559878349304;-0.11541199684143066;0.9938119649887085;-0.1815359890460968;-0.2820639908313751;1.101904034614563;-15.889999389648438;-21.301876068115234;-21.11812400817871
555;0.0;0.0;0.0;-0.19715198874473572;-0.22740799188613892;1.101904034614563;0.0;0.0;0.0
557;0.0;0.0;0.0;-0.1698240041732788;-0.22740799188613892;1.1106879711151123;0.0;0.0;0.0
559;0.0;0.0;0.0;-0.1698240041732788;-0.26254400610923767;1.1058080196380615;0.0;0.0;0.0
561;-0.2971920073032379;-0.10540799796581268;0.977463960647583;-0.20105600357055664;-0.23131199181079865;1.10971200466156;-13.579999923706055;-20.88187599182129;-21.9581241607666
563;0.0;0.0;0.0;-0.16201600432395935;-0.2391199916601181;1.1058080196380615;0.0;0.0;0.0
565;0.0;0.0;0.0;-0.1698240041732788;-0.2117919921875;1.0901919603347778;0.0;0.0;0.0
567;0.0;0.0;0.0;-0.17763200402259827;-0.21959999203681946;1.0940959453582764;0.0;0.0;0.0
569;-0.301827996969223;-0.0907679945230484;0.9694119691848755;-0.1815359890460968;-0.21569599211215973;1.0862879753112793;-11.829999923706055;-20.811874389648438;-22.588125228881836
572;0.0;0.0;0.0;-0.17763200402259827;-0.20788799226284027;1.097999930381775;0.0;0.0;0.0
574;0.0;0.0;0.0;-0.18544000387191772;-0.2117919921875;1.101904034614563;0.0;0.0;0.0
576;0.0;0.0;0.0;-0.17372798919677734;-0.2235039919614792;1.097999930381775;0.0;0.0;0.0
578;-0.30524399876594543;-0.07539600133895874;0.9608719944953918;-0.19324800372123718;-0.18836799263954163;1.0814080238342285;-10.84999942779541;-20.74187469482422;-23.14812469482422
580;0.0;0.0;0.0;-0.17763200402259827;-0.20788799226284027;1.0901919603347778;0.0;0.0;0.0
582;0.0;0.0;0.0;-0.1815359890460968;-0.2000799924135208;1.0696959495544434;0.0;0.0;0.0
584;0.0;0.0;0.0;-0.17763200402259827;-0.20788799226284027;1.0696959495544434;0.0;0.0;0.0
586;-0.30914798378944397;-0.06612399965524673;0.9430599808692932;-0.1815359890460968;-0.19227199256420135;1.0775039196014404;-10.359999656677246;-20.321874618530273;-22.798124313354492
589;0.0;0.0;0.0;-0.20495998859405518;-0.20398399233818054;1.0696959495544434;0.0;0.0;0.0
591;0.0;0.0;0.0;-0.1698240041732788;-0.17665599286556244;1.1106879711151123;0.0;0.0;0.0
593;0.0;0.0;0.0;-0.16201600432395935;-0.19227199256420135;1.0862879753112793;0.0;0.0;0.0
595;-0.2869440019130707;-0.06295199692249298;0.9586759805679321;-0.1395680010318756;-0.18836799263954163;1.10971200466156;-11.059999465942383;-18.85187530517578;-21.888124465942383
597;0.0;0.0;0.0;-0.16201600432395935;-0.21569599211215973;1.101904034614563;0.0;0.0;0.0
599;0.0;0.0;0.0;-0.16201600432395935;-0.2117919921875;1.1428959369659424;0.0;0.0;0.0
601;0.0;0.0;0.0;-0.14737600088119507;-0.20398399233818054;1.1428959369659424;0.0;0.0;0.0
603;-0.2718159854412079;-0.06075599789619446;0.9974719882011414;-0.15811198949813843;-0.20398399233818054;1.1633919477462769;-12.880000114440918;-15.561875343322754;-19.578125
606;0.0;0.0;0.0;-0.1239520013332367;-0.21959999203681946;1.1633919477462769;0.0;0.0;0.0
608;0.0;0.0;0.0;-0.17763200402259827;-0.20788799226284027;1.150704026222229;0.0;0.0;0.0
610;0.0;0.0;0.0;-0.16201600432395935;-0.21569599211215973;1.1546080112457275;0.0;0.0;0.0
612;-0.28474798798561096;-0.07637199759483337;1.0172359943389893;-0.19324800372123718;-0.20788799226284027;1.1633919477462769;-14.34999942779541;-13.951874732971191;-17.75812530517578
614;0.0;0.0;0.0;-0.16591998934745789;-0.19617599248886108;1.146799921989441;0.0;0.0;0.0
616;0.0;0.0;0.0;-0.17372798919677734;-0.2235039919614792;1.1428959369659424;0.0;0.0;0.0
618;0.0;0.0;0.0;-0.1698240041732788;-0.20788799226284027;1.1546080112457275;0.0;0.0;0.0
620;-0.3030479848384857;-0.062463998794555664;1.0299240350723267;-0.19324800372123718;-0.17665599286556244;1.158511996269226;-15.119999885559082;-14.58187484741211;-16.91812515258789
623;0.0;0.0;0.0;-0.20495998859405518;-0.16103999316692352;1.199504017829895;0.0;0.0;0.0
625;0.0;0.0;0.0;-0.19715198874473572;-0.14932799339294434;1.146799921989441;0.0;0.0;0.0
627;0.0;0.0;0.0;-0.17763200402259827;-0.16103999316692352;1.1790080070495605;0.0;0.0;0.0
629;-0.3020719885826111;-0.028060000389814377;1.0318759679794312;-0.17372798919677734;-0.16103999316692352;1.1546080112457275;-15.679999351501465;-16.33187484741211;-15.72812557220459
631;0.0;0.0;0.0;-0.15811198949813843;-0.12199999392032623;1.1389919519424438;0.0;0.0;0.0
633;0.0;0.0;0.0;-0.17763200402259827;-0.13761599361896515;1.1672959327697754;0.0;0.0;0.0
635;0.0;0.0;0.0;-0.1698240041732788;-0.10247999429702759;1.1546080112457275;0.0;0.0;0.0
637;-0.2869440019130707;0.0017079999670386314;1.0294359922409058;-0.13176000118255615;-0.1454239934682846;1.1712000370025635;-15.469999313354492;-16.751874923706055;-14.468125343322754
640;0.0;0.0;0.0;-0.1668960005044937;-0.12199999392032623;1.158511996269226;0.0;0.0;0.0
642;0.0;0.0;0.0;-0.12785600125789642;-0.11419199407100677;1.150704026222229;0.0;0.0;0.0
644;0.0;0.0;0.0;-0.09662400186061859;-0.1298079937696457;1.146799921989441;0.0;0.0;0.0
646;-0.2547360062599182;0.010735999792814255;1.0211399793624878;-0.13176000118255615;-0.10638399422168732;1.1428959369659424;-14.420000076293945;-16.5418758392334;-13.698124885559082
648;0.0;0.0;0.0;-0.09272000193595886;-0.10247999429702759;1.1428959369659424;0.0;0.0;0.0
650;0.0;0.0;0.0;-0.06929600238800049;-0.11419199407100677;1.1145919561386108;0.0;0.0;0.0
652;0.0;0.0;0.0;-0.09272000193595886;-0.11028799414634705;1.1389919519424438;0.0;0.0;0.0
654;-0.2117919921875;0.00951599981635809;1.0130879878997803;-0.09272000193595886;-0.12590399384498596;1.146799921989441;-12.670000076293945;-15.9818754196167;-12.298125267028809
657;0.0;0.0;0.0;-0.06929600238800049;-0.13371199369430542;1.1302080154418945;0.0;0.0;0.0
659;0.0;0.0;0.0;-0.08100800216197968;-0.1298079937696457;1.1302080154418945;0.0;0.0;0.0
661;0.0;0.0;0.0;-0.057583998888731;-0.14932799339294434;1.1389919519424438;0.0;0.0;0.0
663;-0.17836399376392365;0.0007319999858736992;1.0013760328292847;-0.049775999039411545;-0.1454239934682846;1.126304030418396;-11.059999465942383;-13.671875;-11.248125076293945
665;0.0;0.0;0.0;-0.054655998945236206;-0.14932799339294434;1.115567922592163;0.0;0.0;0.0
667;0.0;0.0;0.0;-0.027327999472618103;-0.1298079937696457;1.1194720268249512;0.0;0.0;0.0
669;0.0;0.0;0.0;-0.027327999472618103;-0.1571359932422638;1.1067839860916138;0.0;0.0;0.0
671;-0.16445599496364594;-0.006099999882280827;0.9759999513626099;-0.023423999547958374;-0.12199999392032623;1.0823839902877808;-8.889999389648438;-9.82187557220459;-11.31812572479248
674;0.0;0.0;0.0;-0.04294399917125702;-0.14151999354362488;1.0745760202407837;0.0;0.0;0.0
676;0.0;0.0;0.0;-0.023423999547958374;-0.14932799339294434;1.1067839860916138;0.0;0.0;0.0
678;0.0;0.0;0.0;-0.05075199902057648;-0.1298079937696457;1.0628639459609985;0.0;0.0;0.0
680;-0.16835999488830566;-0.00878399983048439;0.9550159573554993;-0.062463998794555664;-0.1298079937696457;1.09116792678833;-5.880000114440918;-5.971875190734863;-12.22812557220459
682;0.0;0.0;0.0;-0.06539200246334076;-0.13371199369430542;1.073599934577942;0.0;0.0;0.0
684;0.0;0.0;0.0;-0.06148799881339073;-0.10638399422168732;1.0696959495544434;0.0;0.0;0.0
686;0.0;0.0;0.0;-0.06539200246334076;-0.10247999429702759;1.0696959495544434;0.0;0.0;0.0
688;-0.1722639948129654;0.024643998593091965;0.9476959705352783;-0.02635199949145317;-0.08686399459838867;1.073599934577942;-3.2899999618530273;-3.241875171661377;-12.298125267028809
691;0.0;0.0;0.0;-0.045871999114751816;-0.08295999467372894;1.1058080196380615;0.0;0.0;0.0
693;0.0;0.0;0.0;-0.045871999114751816;-0.04391999915242195;1.0823839902877808;0.0;0.0;0.0
695;0.0;0.0;0.0;-0.049775999039411545;-0.04001599922776222;1.1106879711151123;0.0;0.0;0.0
697;-0.16103999316692352;0.07637199759483337;0.9642879962921143;-0.03415999934077263;-0.032207999378442764;1.0901919603347778;-2.799999952316284;-1.2818750143051147;-10.47812557220459
699;0.0;0.0;0.0;-0.03903999924659729;-0.032207999378442764;1.1116639375686646;0.0;0.0;0.0
701;0.0;0.0;0.0;-0.04294399917125702;-0.04391999915242195;1.1028800010681152;0.0;0.0;0.0
703;0.0;0.0;0.0;-0.027327999472618103;-0.01268799975514412;1.1233760118484497;0.0;0.0;0.0
705;-0.16665199398994446;0.10516399890184402;0.9842959642410278;-0.03903999924659729;-0.024399999529123306;1.1116639375686646;-4.410000324249268;0.6781249642372131;-7.118124961853027
708;0.0;0.0;0.0;-0.04294399917125702;-0.020495999604463577;1.1028800010681152;0.0;0.0;0.0
710;0.0;0.0;0.0;-0.03903999924659729;-0.00878399983048439;1.1272799968719482;0.0;0.0;0.0
712;0.0;0.0;0.0;-0.04294399917125702;-0.03611199930310249;1.1438720226287842;0.0;0.0;0.0
714;-0.1571359932422638;0.10858000069856644;0.9864919781684875;-0.023423999547958374;-0.024399999529123306;1.1116639375686646;-4.760000228881836;1.3081250190734863;-3.338124990463257
716;0.0;0.0;0.0;-0.003903999924659729;-0.01268799975514412;1.1350879669189453;0.0;0.0;0.0
718;0.0;0.0;0.0;-0.03903999924659729;-0.0634399950504303;1.1116639375686646;0.0;0.0;0.0
720;0.0;0.0;0.0;-0.03903999924659729;-0.03611199930310249;1.1350879669189453;0.0;0.0;0.0
722;-0.14640000462532043;0.1012599989771843;0.9947879910469055;-0.062463998794555664;-0.020495999604463577;1.1360639333724976;-3.0799999237060547;0.7481250166893005;1.6318750381469727
725;0.0;0.0;0.0;-0.027327999472618103;-0.032207999378442764;1.1350879669189453;0.0;0.0;0.0
727;0.0;0.0;0.0;-0.019519999623298645;-0.05953599885106087;1.1194720268249512;0.0;0.0;0.0
729;0.0;0.0;0.0;-0.007807999849319458;-0.05563199892640114;1.1555839776992798;0.0;0.0;0.0
731;-0.13298000395298004;0.09125600010156631;1.007964015007019;0.015615999698638916;-0.0634399950504303;1.1516799926757812;-1.7500001192092896;-1.0018750429153442;6.811875343322754
733;0.0;0.0;0.0;-0.0029279999434947968;-0.04782399907708168;1.1790080070495605;0.0;0.0;0.0
735;0.0;0.0;0.0;-0.0029279999434947968;-0.04391999915242195;1.146799921989441;0.0;0.0;0.0
737;0.0;0.0;0.0;0.028303999453783035;-0.04391999915242195;1.1712000370025635;0.0;0.0;0.0
739;-0.10687199980020523;0.08100800216197968;1.0257760286331177;0.03611199930310249;-0.05953599885106087;1.1546080112457275;-2.0299999713897705;-2.4018750190734863;10.661874771118164
742;0.0;0.0;0.0;0.03611199930310249;-0.04001599922776222;1.1712000370025635;0.0;0.0;0.0
744;0.0;0.0;0.0;0.07124799489974976;-0.04391999915242195;1.150704026222229;0.0;0.0;0.0
746;0.0;0.0;0.0;0.07515199482440948;-0.08686399459838867;1.158511996269226;0.0;0.0;0.0
748;-0.06612399965524673;0.06734399497509003;1.0250439643859863;0.07905599474906921;-0.07515199482440948;1.1428959369659424;-3.919999837875366;-3.871875047683716;12.27187442779541
750;0.0;0.0;0.0;0.07417599856853485;-0.07515199482440948;1.1555839776992798;0.0;0.0;0.0
752;0.0;0.0;0.0;0.08588799834251404;-0.07515199482440948;1.1477760076522827;0.0;0.0;0.0
754;0.0;0.0;0.0;0.08588799834251404;-0.06734399497509003;1.1272799968719482;0.0;0.0;0.0
756;-0.04025999829173088;0.0558759979903698;1.0152839422225952;0.07027199864387512;-0.05563199892640114;1.1272799968719482;-4.830000400543213;-4.921875;11.501874923706055
759;0.0;0.0;0.0;0.09759999811649323;-0.07515199482440948;1.1350879669189453;0.0;0.0;0.0
761;0.0;0.0;0.0;0.12883199751377106;-0.07905599474906921;1.115567922592163;0.0;0.0;0.0
763;0.0;0.0;0.0;0.15225599706172943;-0.08686399459838867;1.1194720268249512;0.0;0.0;0.0
765;0.008295999839901924;0.04806799814105034;0.9911279678344727;0.15615999698638916;-0.05953599885106087;1.1116639375686646;-3.919999837875366;-6.181875228881836;9.541874885559082
767;0.0;0.0;0.0;0.16396799683570862;-0.09857599437236786;1.09116792678833;0.0;0.0;0.0
769;0.0;0.0;0.0;0.19812799990177155;-0.07124799489974976;1.1194720268249512;0.0;0.0;0.0
771;0.0;0.0;0.0;0.20983999967575073;-0.10247999429702759;1.1116639375686646;0.0;0.0;0.0
773;0.06734399497509003;0.04123599827289581;0.9759999513626099;0.20203199982643127;-0.07515199482440948;1.115567922592163;-1.9600000381469727;-4.851875305175781;8.001874923706055
776;0.0;0.0;0.0;0.2176479995250702;-0.08686399459838867;1.1067839860916138;0.0;0.0;0.0
778;0.0;0.0;0.0;0.22155199944972992;-0.08686399459838867;1.0989760160446167;0.0;0.0;0.0
780;0.0;0.0;0.0;0.18641600012779236;-0.05953599885106087;1.1067839860916138;0.0;0.0;0.0
782;0.08271599560976028;0.053679998964071274;0.9735599756240845;0.2176479995250702;-0.08295999467372894;1.1028800010681152;0.699999988079071;-1.421875;7.79187536239624
784;0.0;0.0;0.0;0.22643199563026428;-0.08295999467372894;1.1106879711151123;0.0;0.0;0.0
786;0.0;0.0;0.0;0.22252799570560455;-0.04391999915242195;1.097999930381775;0.0;0.0;0.0
788;0.0;0.0;0.0;0.187391996383667;-0.05563199892640114;1.0940959453582764;0.0;0.0;0.0
790;0.09491600096225739;0.06173199787735939;0.9711199998855591;0.23814399540424347;-0.09467199444770813;1.1184959411621094;3.009999990463257;1.5881251096725464;6.881875038146973
793;0.0;0.0;0.0;0.21862399578094482;-0.03611199930310249;1.1058080196380615;0.0;0.0;0.0
795;0.0;0.0;0.0;0.2147199958562851;-0.032207999378442764;1.150704026222229;0.0;0.0;0.0
797;0.0;0.0;0.0;0.19129599630832672;0.006831999868154526;1.1350879669189453;0.0;0.0;0.0
799;0.07905599474906921;0.09198799729347229;0.9928359985351562;0.19519999623298645;-0.04001599922776222;1.146799921989441;5.319999694824219;3.758124828338623;6.111875057220459
801;0.0;0.0;0.0;0.20983999967575073;-0.00878399983048439;1.1194720268249512;0.0;0.0;0.0
803;0.0;0.0;0.0;0.20203199982643127;0.014639999717473984;1.1516799926757812;0.0;0.0;0.0
805;0.0;0.0;0.0;0.20983999967575073;0.022447999566793442;1.1477760076522827;0.0;0.0;0.0
807;0.09101200103759766;0.13224799931049347;1.0108920335769653;0.20983999967575073;0.0029279999434947968;1.1477760076522827;5.599999904632568;3.0581250190734863;5.761875152587891
810;0.0;0.0;0.0;0.1903200000524521;0.014639999717473984;1.1516799926757812;0.0;0.0;0.0
812;0.0;0.0;0.0;0.21374399960041046;0.0029279999434947968;1.1799839735031128;0.0;0.0;0.0
814;0.0;0.0;0.0;0.20983999967575073;0.018543999642133713;1.1721760034561157;0.0;0.0;0.0
816;0.1041879951953888;0.1395680010318756;1.0389519929885864;0.260591983795166;-0.004879999905824661;1.1643680334091187;2.5199999809265137;2.008124828338623;4.991875171661377
818;0.0;0.0;0.0;0.26449599862098694;0.018543999642133713;1.1643680334091187;0.0;0.0;0.0
820;0.0;0.0;0.0;0.3152479827404022;0.010735999792814255;1.1760799884796143;0.0;0.0;0.0
822;0.0;0.0;0.0;0.31915199756622314;0.0302559994161129;1.1760799884796143;0.0;0.0;0.0
824;0.16567599773406982;0.14640000462532043;1.034559965133667;0.2840159833431244;0.02635199949145317;1.1760799884796143;-0.14000000059604645;-0.9318750500679016;7.371875286102295
827;0.0;0.0;0.0;0.2723039984703064;0.02635199949145317;1.1555839776992798;0.0;0.0;0.0
829;0.0;0.0;0.0;0.3269599974155426;0.03415999934077263;1.1350879669189453;0.0;0.0;0.0
831;0.0;0.0;0.0;0.3386719822883606;0.006831999868154526;1.1477760076522827;0.0;0.0;0.0
833;0.1925159990787506;0.14688800275325775;1.034559965133667;0.31915199756622314;0.014639999717473984;1.1477760076522827;-1.4700000286102295;-2.4718751907348633;11.291874885559082
835;0.0;0.0;0.0;0.3240320086479187;-0.004879999905824661;1.175104022026062;0.0;0.0;0.0
837;0.0;0.0;0.0;0.31622397899627686;0.02635199949145317;1.1712000370025635;0.0;0.0;0.0
839;0.0;0.0;0.0;0.28889599442481995;-0.020495999604463577;1.1633919477462769;0.0;0.0;0.0
841;0.19056399166584015;0.13517600297927856;1.0257760286331177;0.3357439935207367;-0.03611199930310249;1.126304030418396;-1.4000000953674316;-2.681874990463257;14.371874809265137
844;0.0;0.0;0.0;0.3123199939727783;-0.01659199967980385;1.1633919477462769;0.0;0.0;0.0
846;0.0;0.0;0.0;0.31622397899627686;0.006831999868154526;1.1389919519424438;0.0;0.0;0.0
848;0.0;0.0;0.0;0.35526400804519653;0.006831999868154526;1.097999930381775;0.0;0.0;0.0
850;0.20813199877738953;0.11711999773979187;0.9972279667854309;0.3357439935207367;-0.024399999529123306;1.097999930381775;0.21000000834465027;-1.771875023841858;15.351874351501465
852;0.0;0.0;0.0;0.3240320086479187;-0.04001599922776222;1.0901919603347778;0.0;0.0;0.0
854;0.0;0.0;0.0;0.32793599367141724;0.0029279999434947968;1.0862879753112793;0.0;0.0;0.0
856;0.0;0.0;0.0;0.3669759929180145;-0.03611199930310249;1.0901919603347778;0.0;0.0;0.0
858;0.22203999757766724;0.1088239997625351;0.9657520055770874;0.3357439935207367;-0.032207999378442764;1.0775039196014404;3.080000162124634;1.5881251096725464;15.631875038146973
861;0.0;0.0;0.0;0.32793599367141724;-0.00878399983048439;1.073599934577942;0.0;0.0;0.0
863;0.0;0.0;0.0;0.38259199261665344;-0.032207999378442764;1.0657919645309448;0.0;0.0;0.0
865;0.0;0.0;0.0;0.39820799231529236;-0.01268799975514412;1.0618879795074463;0.0;0.0;0.0
867;0.25058799982070923;0.11101999878883362;0.944767951965332;0.4167519807815552;0.006831999868154526;1.0657919645309448;6.71999979019165;7.258124828338623;15.141875267028809
869;0.0;0.0;0.0;0.4323679804801941;-0.00878399983048439;1.0862879753112793;0.0;0.0;0.0
871;0.0;0.0;0.0;0.4138239920139313;0.0029279999434947968;1.0579839944839478;0.0;0.0;0.0
873;0.0;0.0;0.0;0.45188799500465393;0.006831999868154526;1.0775039196014404;0.0;0.0;0.0
875;0.31280800700187683;0.12443999946117401;0.9559919834136963;0.47921597957611084;-0.01268799975514412;1.1058080196380615;10.780000686645508;16.14812469482422;15.071874618530273
878;0.0;0.0;0.0;0.45579198002815247;0.0029279999434947968;1.1145919561386108;0.0;0.0;0.0
880;0.0;0.0;0.0;0.4596959948539734;0.010735999792814255;1.122399926185608;0.0;0.0;0.0
882;0.0;0.0;0.0;0.436271995306015;-0.00878399983048439;1.1633919477462769;0.0;0.0;0.0
884;0.32549598813056946;0.14298400282859802;0.9999119639396667;0.44017598032951355;-0.00878399983048439;1.1546080112457275;14.280000686645508;26.928125381469727;15.911874771118164
886;0.0;0.0;0.0;0.42455998063087463;-0.0009759999811649323;1.1633919477462769;0.0;0.0;0.0
888;0.0;0.0;0.0;0.4177280068397522;0.02635199949145317;1.182911992073059;0.0;0.0;0.0
890;0.0;0.0;0.0;0.3240320086479187;0.0302559994161129;1.1877919435501099;0.0;0.0;0.0
892;0.2769399881362915;0.1512800008058548;1.0440759658813477;0.4089439809322357;-0.04001599922776222;1.182911992073059;15.890000343322754;34.27812576293945;14.8618745803833
895;0.0;0.0;0.0;0.3357439935207367;0.04196799919009209;1.2278079986572266;0.0;0.0;0.0
897;0.0;0.0;0.0;0.35526400804519653;0.03415999934077263;1.2112159729003906;0.0;0.0;0.0
899;0.0;0.0;0.0;0.41284799575805664;0.006831999868154526;1.1956000328063965;0.0;0.0;0.0
901;0.2537599802017212;0.14298400282859802;1.0731120109558105;0.4167519807815552;0.014639999717473984;1.2121919393539429;17.360000610351562;35.048126220703125;12.131875038146973
903;0.0;0.0;0.0;0.42455998063087463;0.0302559994161129;1.2160959243774414;0.0;0.0;0.0
905;0.0;0.0;0.0;0.4635999798774719;0.057583998888731;1.231711983680725;0.0;0.0;0.0
907;0.0;0.0;0.0;0.447983980178833;0.014639999717473984;1.2444000244140625;0.0;0.0;0.0
909;0.3247639834880829;0.15786799788475037;1.0928759574890137;0.4596959948539734;0.06148799881339073;1.2278079986572266;19.18000030517578;31.75812530517578;12.481874465942383
912;0.0;0.0;0.0;0.47921597957611084;0.006831999868154526;1.256111979484558;0.0;0.0;0.0
914;0.0;0.0;0.0;0.44017598032951355;0.057583998888731;1.256111979484558;0.0;0.0;0.0
916;0.0;0.0;0.0;0.4167519807815552;0.0302559994161129;1.248304009437561;0.0;0.0;0.0
918;0.32037198543548584;0.1768999993801117;1.1084920167922974;0.4206559956073761;0.049775999039411545;1.2356159687042236;18.829999923706055;29.028125762939453;15.631875038146973
920;0.0;0.0;0.0;0.4206559956073761;0.057583998888731;1.2404959201812744;0.0;0.0;0.0
922;0.0;0.0;0.0;0.4138239920139313;0.049775999039411545;1.256111979484558;0.0;0.0;0.0
924;0.0;0.0;0.0;0.4206559956073761;0.053679998964071274;1.2278079986572266;0.0;0.0;0.0
927;0.29523998498916626;0.18397599458694458;1.10971200466156;0.38259199261665344;0.022447999566793442;1.2160959243774414;16.65999984741211;25.528125762939453;17.38187599182129
929;0.0;0.0;0.0;0.34355199337005615;0.02635199949145317;1.2160959243774414;0.0;0.0;0.0
931;0.0;0.0;0.0;0.38649600744247437;0.053679998964071274;1.223904013633728;0.0;0.0;0.0
933;0.0;0.0;0.0;0.37088000774383545;0.053679998964071274;1.2121919393539429;0.0;0.0;0.0
935;0.26327598094940186;0.1634799987077713;1.0860439538955688;0.38259199261665344;0.03806399926543236;1.199504017829895;14.070000648498535;22.868125915527344;16.681875228881836
937;0.0;0.0;0.0;0.3669759929180145;0.0302559994161129;1.1790080070495605;0.0;0.0;0.0
939;0.0;0.0;0.0;0.3630719780921936;0.04196799919009209;1.1672959327697754;0.0;0.0;0.0
941;0.0;0.0;0.0;0.42455998063087463;0.0302559994161129;1.182911992073059;0.0;0.0;0.0
944;0.2752319872379303;0.15493999421596527;1.0501760244369507;0.3786879777908325;0.022447999566793442;1.1428959369659424;12.950000762939453;20.768125534057617;15.421875
946;0.0;0.0;0.0;0.38259199261665344;0.0029279999434947968;1.146799921989441;0.0;0.0;0.0
948;0.0;0.0;0.0;0.35526400804519653;0.018543999642133713;1.1790080070495605;0.0;0.0;0.0
950;0.0;0.0;0.0;0.3513599932193756;0.022447999566793442;1.158511996269226;0.0;0.0;0.0
952;0.25034400820732117;0.1605519950389862;1.0321199893951416;0.3513599932193756;0.03415999934077263;1.1633919477462769;12.320000648498535;20.6981258392334;12.971875190734863
954;0.0;0.0;0.0;0.3630719780921936;0.07320000231266022;1.158511996269226;0.0;0.0;0.0
956;0.0;0.0;0.0;0.31622397899627686;0.049775999039411545;1.1428959369659424;0.0;0.0;0.0
958;0.0;0.0;0.0;0.3513599932193756;0.022447999566793442;1.1672959327697754;0.0;0.0;0.0
961;0.21911199390888214;0.17543599009513855;1.0357799530029297;0.3123199939727783;0.022447999566793442;1.1633919477462769;11.690000534057617;23.358125686645508;7.721875190734863
963;0.0;0.0;0.0;0.31622397899627686;-0.020495999604463577;1.158511996269226;0.0;0.0;0.0
965;0.0;0.0;0.0;0.3396480083465576;-0.0009759999811649323;1.134112000465393;0.0;0.0;0.0
967;0.0;0.0;0.0;0.3357439935207367;0.010735999792814255;1.1546080112457275;0.0;0.0;0.0
969;0.21106000244617462;0.14761999249458313;1.026263952255249;0.32793599367141724;0.006831999868154526;1.1428959369659424;11.34000015258789;27.278125762939453;-0.048124998807907104
971;0.0;0.0;0.0;0.3903999924659729;0.018543999642133713;1.150704026222229;0.0;0.0;0.0
973;0.0;0.0;0.0;0.3513599932193756;0.02635199949145317;1.158511996269226;0.0;0.0;0.0
975;0.0;0.0;0.0;0.4323679804801941;0.014639999717473984;1.150704026222229;0.0;0.0;0.0
978;0.27791598439216614;0.14469200372695923;1.0167479515075684;0.4596959948539734;0.014639999717473984;1.1546080112457275;12.880000114440918;25.9481258392334;-4.248124599456787
980;0.0;0.0;0.0;0.41284799575805664;0.0302559994161129;1.1712000370025635;0.0;0.0;0.0
982;0.0;0.0;0.0;0.3903999924659729;0.022447999566793442;1.1546080112457275;0.0;0.0;0.0
984;0.0;0.0;0.0;0.436271995306015;0.014639999717473984;1.1546080112457275;0.0;0.0;0.0
986;0.2991439998149872;0.14469200372695923;1.0348039865493774;0.44017598032951355;0.0029279999434947968;1.146799921989441;13.09000015258789;24.548124313354492;-3.968125104904175
988;0.0;0.0;0.0;0.45481598377227783;0.006831999868154526;1.1594879627227783;0.0;0.0;0.0
990;0.0;0.0;0.0;0.5172799825668335;-0.00878399983048439;1.1721760034561157;0.0;0.0;0.0
992;0.0;0.0;0.0;0.4899519979953766;-0.04001599922776222;1.1438720226287842;0.0;0.0;0.0
995;0.3530679941177368;0.1076039969921112;1.0243120193481445;0.4626239836215973;-0.04782399907708168;1.1477760076522827;12.950000762939453;23.638124465942383;-1.518125057220459
997;0.0;0.0;0.0;0.48604798316955566;-0.05172799900174141;1.1721760034561157;0.0;0.0;0.0
999;0.0;0.0;0.0;0.5016639828681946;-0.04001599922776222;1.1311839818954468;0.0;0.0;0.0
1001;0.0;0.0;0.0;0.536799967288971;-0.08295999467372894;1.1555839776992798;0.0;0.0;0.0
1003;0.3891800045967102;0.07344400137662888;1.02675199508667;0.5250880122184753;-0.09467199444770813;1.1594879627227783;13.930000305175781;23.91812515258789;2.9618749618530273
1005;0.0;0.0;0.0;0.5651040077209473;-0.07905599474906921;1.146799921989441;0.0;0.0;0.0
1007;0.0;0.0;0.0;0.5924319624900818;-0.10247999429702759;1.150704026222229;0.0;0.0;0.0
1009;0.0;0.0;0.0;0.5807200074195862;-0.10638399422168732;1.175104022026062;0.0;0.0;0.0
1012;0.4614039957523346;0.0378200002014637;1.0330959558486938;0.5885279774665833;-0.1298079937696457;1.158511996269226;15.75;23.14812469482422;9.681875228881836
1014;0.0;0.0;0.0;0.5924319624900818;-0.10638399422168732;1.1877919435501099;0.0;0.0;0.0
1016;0.0;0.0;0.0;0.5572959780693054;-0.11419199407100677;1.175104022026062;0.0;0.0;0.0
1018;0.0;0.0;0.0;0.5885279774665833;-0.19227199256420135;1.1633919477462769;0.0;0.0;0.0
1020;0.472383975982666;-0.0017079999670386314;1.0404160022735596;0.5963360071182251;-0.1454239934682846;1.1790080070495605;18.059999465942383;22.658124923706055;16.681875228881836
1022;0.0;0.0;0.0;0.536799967288971;-0.16103999316692352;1.1438720226287842;0.0;0.0;0.0
1024;0.0;0.0;0.0;0.5094720125198364;-0.12590399384498596;1.1233760118484497;0.0;0.0;0.0
1026;0.0;0.0;0.0;0.4899519979953766;-0.12590399384498596;1.1438720226287842;0.0;0.0;0.0
1029;0.39771997928619385;-0.014639999717473984;1.0094280242919922;0.4782399833202362;-0.13371199369430542;1.1438720226287842;21.559999465942383;23.428125381469727;17.801876068115234
1031;0.0;0.0;0.0;0.47433599829673767;-0.1298079937696457;1.1360639333724976;0.0;0.0;0.0
1033;0.0;0.0;0.0;0.48214399814605713;-0.11028799414634705;1.1233760118484497;0.0;0.0;0.0
1035;0.0;0.0;0.0;0.4665279984474182;-0.1298079937696457;1.1194720268249512;0.0;0.0;0.0
1037;0.35867998003959656;0.012199999764561653;1.0028399229049683;0.5172799825668335;-0.11419199407100677;1.1350879669189453;26.25;23.218124389648438;11.851874351501465
1039;0.0;0.0;0.0;0.49483197927474976;-0.0907679945230484;1.1145919561386108;0.0;0.0;0.0
1041;0.0;0.0;0.0;0.522159993648529;-0.10247999429702759;1.1106879711151123;0.0;0.0;0.0
1043;0.0;0.0;0.0;0.4909279942512512;-0.09857599437236786;1.101904034614563;0.0;0.0;0.0
1046;0.37624800205230713;0.03245199844241142;0.9933239817619324;0.48311999440193176;-0.09467199444770813;1.122399926185608;29.96000099182129;22.16812515258789;6.95187520980835
1048;0.0;0.0;0.0;0.5104479789733887;-0.0907679945230484;1.097999930381775;0.0;0.0;0.0
1050;0.0;0.0;0.0;0.4987359941005707;-0.07515199482440948;1.1058080196380615;0.0;0.0;0.0
1052;0.0;0.0;0.0;0.5026400089263916;-0.06734399497509003;1.101904034614563;0.0;0.0;0.0
1054;0.37624800205230713;0.06270799785852432;0.9767319560050964;0.48311999440193176;-0.04782399907708168;1.0940959453582764;32.060001373291016;21.678125381469727;4.361875057220459
1056;0.0;0.0;0.0;0.4753119945526123;-0.04001599922776222;1.0823839902877808;0.0;0.0;0.0
1058;0.0;0.0;0.0;0.48311999440193176;-0.04001599922776222;1.0775039196014404;0.0;0.0;0.0
1060;0.0;0.0;0.0;0.4596959948539734;-0.07124799489974976;1.0862879753112793;0.0;0.0;0.0
1063;0.36038798093795776;0.08466799557209015;0.9552599787712097;0.49483197927474976;-0.0634399950504303;1.0491999387741089;32.83000183105469;21.25812530517578;3.5918750762939453
1065;0.0;0.0;0.0;0.48311999440193176;-0.024399999529123306;1.0657919645309448;0.0;0.0;0.0
1067;0.0;0.0;0.0;0.45579198002815247;-0.04782399907708168;1.0696959495544434;0.0;0.0;0.0
1069;0.0;0.0;0.0;0.45188799500465393;-0.05563199892640114;1.0531039237976074;0.0;0.0;0.0
1071;0.3379400074481964;0.08417999744415283;0.9291520118713379;0.42455998063087463;-0.07124799489974976;1.0618879795074463;32.689998626708984;20.6981258392334;3.871875047683716
1073;0.0;0.0;0.0;0.4391999840736389;-0.05563199892640114;1.0872639417648315;0.0;0.0;0.0
1075;0.0;0.0;0.0;0.4274879992008209;-0.04001599922776222;1.0462720394134521;0.0;0.0;0.0
1077;0.0;0.0;0.0;0.44310399889945984;-0.03611199930310249;1.0579839944839478;0.0;0.0;0.0
1080;0.3184199929237366;0.08344800025224686;0.9198799729347229;0.4274879992008209;-0.04391999915242195;1.0501760244369507;30.8700008392334;19.858125686645508;4.851875305175781
1082;0.0;0.0;0.0;0.411871999502182;-0.04001599922776222;1.0628639459609985;0.0;0.0;0.0
1084;0.0;0.0;0.0;0.41967999935150146;-0.04001599922776222;1.0706720352172852;0.0;0.0;0.0
1086;0.0;0.0;0.0;0.4470079839229584;-0.04782399907708168;1.066767930984497;0.0;0.0;0.0
1088;0.3001199960708618;0.08540000021457672;0.9250040054321289;0.423583984375;-0.05953599885106087;1.042367935180664;26.46000099182129;18.038124084472656;6.181875228881836
1090;0.0;0.0;0.0;0.42846399545669556;-0.05953599885106087;1.0531039237976074;0.0;0.0;0.0
1092;0.0;0.0;0.0;0.4206559956073761;-0.0634399950504303;1.0452959537506104;0.0;0.0;0.0
1094;0.0;0.0;0.0;0.42455998063087463;-0.0634399950504303;1.0374879837036133;0.0;0.0;0.0
1097;0.3003639876842499;0.06758800148963928;0.9164639711380005;0.42846399545669556;-0.08295999467372894;1.0413919687271118;20.579999923706055;15.868124961853027;7.511875152587891
1099;0.0;0.0;0.0;0.42455998063087463;-0.0907679945230484;1.0413919687271118;0.0;0.0;0.0
1101;0.0;0.0;0.0;0.42455998063087463;-0.09857599437236786;1.0374879837036133;0.0;0.0;0.0
1103;0.0;0.0;0.0;0.436271995306015;-0.0907679945230484;1.0208959579467773;0.0;0.0;0.0
1105;0.3042680025100708;0.038307998329401016;0.9049959778785706;0.436271995306015;-0.08686399459838867;1.0531039237976074;14.630000114440918;14.8881254196167;8.211874961853027
1107;0.0;0.0;0.0;0.40113598108291626;-0.08686399459838867;1.0374879837036133;0.0;0.0;0.0
1109;0.0;0.0;0.0;0.4060159921646118;-0.14151999354362488;1.0247999429702759;0.0;0.0;0.0
1112;0.0;0.0;0.0;0.42163199186325073;-0.13761599361896515;1.0657919645309448;0.0;0.0;0.0
1114;0.29865598678588867;0.010491999797523022;0.90938800573349;0.4440799951553345;-0.12590399384498596;1.0452959537506104;9.59000015258789;14.678125381469727;8.141874313354492
1116;0.0;0.0;0.0;0.4060159921646118;-0.11419199407100677;1.0657919645309448;0.0;0.0;0.0
1118;0.0;0.0;0.0;0.4167519807815552;-0.1727519929409027;1.0335839986801147;0.0;0.0;0.0
1120;0.0;0.0;0.0;0.4177280068397522;-0.1727519929409027;1.0452959537506104;0.0;0.0;0.0
1122;0.2954840064048767;-0.009027999825775623;0.9267119765281677;0.3903999924659729;-0.1298079937696457;1.0901919603347778;5.739999771118164;14.958125114440918;7.79187536239624
1124;0.0;0.0;0.0;0.4060159921646118;-0.1571359932422638;1.0657919645309448;0.0;0.0;0.0
1126;0.0;0.0;0.0;0.42455998063087463;-0.1727519929409027;1.101904034614563;0.0;0.0;0.0
1128;0.0;0.0;0.0;0.3513599932193756;-0.16494399309158325;1.0775039196014404;0.0;0.0;0.0
1131;0.2757200002670288;-0.0378200002014637;0.9515999555587769;0.3669759929180145;-0.17665599286556244;1.0814080238342285;3.2900002002716064;14.958125114440918;6.811875343322754
1133;0.0;0.0;0.0;0.38649600744247437;-0.1844639927148819;1.0901919603347778;0.0;0.0;0.0
1135;0.0;0.0;0.0;0.4050399959087372;-0.2000799924135208;1.0901919603347778;0.0;0.0;0.0
1137;0.0;0.0;0.0;0.35526400804519653;-0.20788799226284027;1.0696959495544434;0.0;0.0;0.0
1139;0.2513200044631958;-0.06295199692249298;0.9616039991378784;0.3513599932193756;-0.22740799188613892;1.0814080238342285;2.0299999713897705;13.348125457763672;5.131875038146973
1141;0.0;0.0;0.0;0.35526400804519653;-0.24692799150943756;1.0862879753112793;0.0;0.0;0.0
1143;0.0;0.0;0.0;0.33183997869491577;-0.25863999128341675;1.073599934577942;0.0;0.0;0.0
1146;0.0;0.0;0.0;0.3240320086479187;-0.25863999128341675;1.073599934577942;0.0;0.0;0.0
1148;0.2210640013217926;-0.12419600039720535;0.9418399930000305;0.3669759929180145;-0.2898719906806946;1.0287039279937744;2.7300000190734863;10.968125343322754;3.3818750381469727
1150;0.0;0.0;0.0;0.34355199337005615;-0.3054879903793335;1.0335839986801147;0.0;0.0;0.0
1152;0.0;0.0;0.0;0.33183997869491577;-0.27035200595855713;1.0452959537506104;0.0;0.0;0.0
1154;0.0;0.0;0.0;0.3396480083465576;-0.3054879903793335;1.0287039279937744;0.0;0.0;0.0
1156;0.21740399301052094;-0.15689200162887573;0.9079239964485168;0.3513599932193756;-0.27425599098205566;1.0208959579467773;7.699999809265137;8.23812484741211;2.8918750286102295
1158;0.0;0.0;0.0;0.3669759929180145;-0.2781600058078766;1.0579839944839478;0.0;0.0;0.0
1160;0.0;0.0;0.0;0.3669759929180145;-0.28596800565719604;1.0335839986801147;0.0;0.0;0.0
1163;0.0;0.0;0.0;0.37088000774383545;-0.28596800565719604;1.0491999387741089;0.0;0.0;0.0
1165;0.23179998993873596;-0.15201199054718018;0.9091439843177795;0.3474559783935547;-0.3172000050544739;1.0247999429702759;12.180000305175781;8.16812515258789;2.7518749237060547
1167;0.0;0.0;0.0;0.33183997869491577;-0.2781600058078766;1.0326080322265625;0.0;0.0;0.0
1169;0.0;0.0;0.0;0.3240320086479187;-0.2235039919614792;1.0657919645309448;0.0;0.0;0.0
1171;0.0;0.0;0.0;0.3357439935207367;-0.2937760055065155;1.0247999429702759;0.0;0.0;0.0
1173;0.21130399405956268;-0.13590799272060394;0.9115839600563049;0.3201279938220978;-0.2820639908313751;1.0287039279937744;13.300000190734863;11.878125190734863;2.3318750858306885
1175;0.0;0.0;0.0;0.26156800985336304;-0.27425599098205566;1.0531039237976074;0.0;0.0;0.0
1177;0.0;0.0;0.0;0.2654719948768616;-0.27425599098205566;1.0657919645309448;0.0;0.0;0.0
1180;0.0;0.0;0.0;0.27327999472618103;-0.2898719906806946;1.0491999387741089;0.0;0.0;0.0
1182;0.15493999421596527;-0.13419999182224274;0.9264679551124573;0.24985599517822266;-0.3093920052051544;1.0657919645309448;11.550000190734863;15.728124618530273;1.771875023841858
1184;0.0;0.0;0.0;0.2420479953289032;-0.2898719906806946;1.0657919645309448;0.0;0.0;0.0
1186;0.0;0.0;0.0;0.2147199958562851;-0.2664479911327362;1.0862879753112793;0.0;0.0;0.0
1188;0.0;0.0;0.0;0.19129599630832672;-0.3054879903793335;1.073599934577942;0.0;0.0;0.0
1190;0.0924759954214096;-0.15908800065517426;0.9440360069274902;0.187391996383667;-0.30158400535583496;1.0901919603347778;8.119999885559082;17.338125228881836;1.7018749713897705
1192;0.0;0.0;0.0;0.19129599630832672;-0.2937760055065155;1.0814080238342285;0.0;0.0;0.0
1194;0.0;0.0;0.0;0.17958399653434753;-0.3054879903793335;1.1106879711151123;0.0;0.0;0.0
1197;0.0;0.0;0.0;0.19519999623298645;-0.30158400535583496;1.1058080196380615;0.0;0.0;0.0
1199;0.06197600066661835;-0.16445599496364594;0.9596520066261292;0.17177599668502808;-0.31329599022865295;1.101904034614563;3.990000009536743;14.468125343322754;2.681874990463257
1201;0.0;0.0;0.0;0.16787199676036835;-0.2898719906806946;1.0940959453582764;0.0;0.0;0.0
1203;0.0;0.0;0.0;0.17177599668502808;-0.2664479911327362;1.122399926185608;0.0;0.0;0.0
1205;0.0;0.0;0.0;0.1600639969110489;-0.3172000050544739;1.097999930381775;0.0;0.0;0.0
1207;0.044652000069618225;-0.1676279902458191;0.9694119691848755;0.14054399728775024;-0.3054879903793335;1.1106879711151123;-1.1200000047683716;11.878125190734863;3.171875
1209;0.0;0.0;0.0;0.187391996383667;-0.2937760055065155;1.101904034614563;0.0;0.0;0.0
1211;0.0;0.0;0.0;0.17177599668502808;-0.33671998977661133;1.073599934577942;0.0;0.0;0.0
1214;0.0;0.0;0.0;0.16787199676036835;-0.31329599022865295;1.0814080238342285;0.0;0.0;0.0
1216;0.05148399993777275;-0.17494799196720123;0.9669719934463501;0.17958399653434753;-0.2937760055065155;1.0814080238342285;-5.600000381469727;11.3881254196167;4.7118754386901855
1218;0.0;0.0;0.0;0.13663999736309052;-0.2820639908313751;1.0940959453582764;0.0;0.0;0.0
1220;0.0;0.0;0.0;0.1483519971370697;-0.31329599022865295;1.101904034614563;0.0;0.0;0.0
1222;0.0;0.0;0.0;0.1756799966096878;-0.32500800490379333;1.0901919603347778;0.0;0.0;0.0
1224;0.0348920002579689;-0.18812400102615356;0.9759999513626099;0.15225599706172943;-0.35624000430107117;1.1302080154418945;-8.1899995803833;12.508125305175781;5.621875286102295
1226;0.0;0.0;0.0;0.1600639969110489;-0.3484320044517517;1.1194720268249512;0.0;0.0;0.0
1228;0.0;0.0;0.0;0.12883199751377106;-0.36795198917388916;1.1438720226287842;0.0;0.0;0.0
1231;0.0;0.0;0.0;0.12883199751377106;-0.3835679888725281;1.1272799968719482;0.0;0.0;0.0
1233;0.03879600018262863;-0.22667600214481354;1.0045479536056519;0.17470400035381317;-0.387472003698349;1.1516799926757812;-9.309999465942383;13.208125114440918;6.531875133514404
1235;0.0;0.0;0.0;0.1668960005044937;-0.3601439893245697;1.1477760076522827;0.0;0.0;0.0
1237;0.0;0.0;0.0;0.15518400073051453;-0.3757599890232086;1.1516799926757812;0.0;0.0;0.0
1239;0.0;0.0;0.0;0.12883199751377106;-0.4147999882698059;1.1438720226287842;0.0;0.0;0.0
1241;0.025619998574256897;-0.25522398948669434;1.028216004371643;0.12883199751377106;-0.4108960032463074;1.1477760076522827;-9.239999771118164;11.808124542236328;8.77187442779541
1243;0.0;0.0;0.0;0.11321599781513214;-0.4304159879684448;1.150704026222229;0.0;0.0;0.0
1245;0.0;0.0;0.0;0.11711999773979187;-0.40699198842048645;1.158511996269226;0.0;0.0;0.0
1248;0.0;0.0;0.0;0.07905599474906921;-0.42260798811912537;1.1546080112457275;0.0;0.0;0.0
1250;0.007075999863445759;-0.28352800011634827;1.0272400379180908;0.10931199789047241;-0.43432000279426575;1.158511996269226;-7.769999980926514;9.008125305175781;10.591875076293945
1252;0.0;0.0;0.0;0.11321599781513214;-0.4655520021915436;1.146799921989441;0.0;0.0;0.0
1254;0.0;0.0;0.0;0.07124799489974976;-0.4694559872150421;1.1633919477462769;0.0;0.0;0.0
1256;0.0;0.0;0.0;0.10150399804115295;-0.4967840015888214;1.1712000370025635;0.0;0.0;0.0
1258;-0.04025999829173088;-0.3357439935207367;1.0272400379180908;0.03611199930310249;-0.4928799867630005;1.1546080112457275;-5.25;7.678124904632568;10.731874465942383
1260;0.0;0.0;0.0;0.04001599922776222;-0.5084959864616394;1.1712000370025635;0.0;0.0;0.0
1262;0.0;0.0;0.0;0.028303999453783035;-0.5123999714851379;1.1389919519424438;0.0;0.0;0.0
1265;0.0;0.0;0.0;0.01659199967980385;-0.5045920014381409;1.175104022026062;0.0;0.0;0.0
1267;-0.08832799643278122;-0.37258797883987427;1.0326080322265625;0.020495999604463577;-0.5163040161132812;1.1672959327697754;-2.7300000190734863;6.278124809265137;9.33187484741211
1269;0.0;0.0;0.0;0.00878399983048439;-0.5280159711837769;1.1633919477462769;0.0;0.0;0.0
1271;0.0;0.0;0.0;-0.014639999717473984;-0.5045920014381409;1.150704026222229;0.0;0.0;0.0
1273;0.0;0.0;0.0;-0.022447999566793442;-0.5475360155105591;1.146799921989441;0.0;0.0;0.0
1275;-0.13005200028419495;-0.38893598318099976;1.030411958694458;-0.02635199949145317;-0.5045920014381409;1.175104022026062;-1.1200000047683716;4.388124942779541;5.831875324249268
1277;0.0;0.0;0.0;-0.04196799919009209;-0.5006880164146423;1.146799921989441;0.0;0.0;0.0
1279;0.0;0.0;0.0;-0.014639999717473984;-0.5397279858589172;1.1428959369659424;0.0;0.0;0.0
1282;0.0;0.0;0.0;-0.053679998964071274;-0.5123999714851379;1.1546080112457275;0.0;0.0;0.0
1284;-0.15689200162887573;-0.3908880054950714;1.0274839401245117;-0.06539200246334076;-0.5202080011367798;1.182911992073059;-0.3499999940395355;2.008124828338623;0.6518750190734863
1286;0.0;0.0;0.0;-0.0302559994161129;-0.5163040161132812;1.150704026222229;0.0;0.0;0.0
1288;0.0;0.0;0.0;-0.06148799881339073;-0.5123999714851379;1.1672959327697754;0.0;0.0;0.0
1290;0.0;0.0;0.0;-0.06539200246334076;-0.5202080011367798;1.1672959327697754;0.0;0.0;0.0
1292;-0.18373200297355652;-0.37502798438072205;1.0396839380264282;-0.10443200170993805;-0.5084959864616394;1.175104022026062;-1.540000081062317;-0.7918750047683716;-4.808125019073486
1295;0.0;0.0;0.0;-0.08881600201129913;-0.4811680018901825;1.1956000328063965;0.0;0.0;0.0
1296;0.0;0.0;0.0;-0.09272000193595886;-0.48897600173950195;1.2121919393539429;0.0;0.0;0.0
1299;0.0;0.0;0.0;-0.10052800178527832;-0.4694559872150421;1.223904013633728;0.0;0.0;0.0
1301;-0.2222839891910553;-0.3542879819869995;1.0701839923858643;-0.12004800140857697;-0.4694559872150421;1.223904013633728;-4.62000036239624;-3.9418749809265137;-8.098125457763672
1303;0.0;0.0;0.0;-0.1239520013332367;-0.48507198691368103;1.2200000286102295;0.0;0.0;0.0
1305;0.0;0.0;0.0;-0.12785600125789642;-0.48897600173950195;1.2444000244140625;0.0;0.0;0.0
1307;0.0;0.0;0.0;-0.14347200095653534;-0.4577440023422241;1.2648959159851074;0.0;0.0;0.0
1309;-0.2518079876899719;-0.3352559804916382;1.1150799989700317;-0.1395680010318756;-0.4538399875164032;1.2688000202178955;-9.239999771118164;-8.631875038146973;-10.618124961853027
1311;0.0;0.0;0.0;-0.1239520013332367;-0.4655520021915436;1.2805119752883911;0.0;0.0;0.0
1313;0.0;0.0;0.0;-0.15811198949813843;-0.4811680018901825;1.2639199495315552;0.0;0.0;0.0
1316;0.0;0.0;0.0;-0.12785600125789642;-0.4694559872150421;1.2600159645080566;0.0;0.0;0.0
1318;-0.25229600071907043;-0.33183997869491577;1.1336239576339722;-0.11614400148391724;-0.4811680018901825;1.256111979484558;-14.769999504089355;-15.351875305175781;-13.278125762939453
1320;0.0;0.0;0.0;-0.11224000155925751;-0.4694559872150421;1.2522079944610596;0.0;0.0;0.0
1322;0.0;0.0;0.0;-0.10443200170993805;-0.4811680018901825;1.248304009437561;0.0;0.0;0.0
1324;0.0;0.0;0.0;-0.11224000155925751;-0.4967840015888214;1.2404959201812744;0.0;0.0;0.0
1326;-0.22765199840068817;-0.34989598393440247;1.1143479347229004;-0.0849120020866394;-0.48897600173950195;1.2112159729003906;-19.389999389648438;-20.951875686645508;-16.00812530517578
1329;0.0;0.0;0.0;-0.08881600201129913;-0.4928799867630005;1.2278079986572266;0.0;0.0;0.0
1331;0.0;0.0;0.0;-0.10833600163459778;-0.5045920014381409;1.2600159645080566;0.0;0.0;0.0
1333;0.0;0.0;0.0;-0.10833600163459778;-0.5358240008354187;1.2200000286102295;0.0;0.0;0.0
1335;-0.21569599211215973;-0.3806400001049042;1.0914119482040405;-0.10052800178527832;-0.5163040161132812;1.1956000328063965;-21.979999542236328;-23.681875228881836;-18.248125076293945
1337;0.0;0.0;0.0;-0.11614400148391724;-0.5475360155105591;1.199504017829895;0.0;0.0;0.0
1339;0.0;0.0;0.0;-0.09662400186061859;-0.5475360155105591;1.1916959285736084;0.0;0.0;0.0
1341;0.0;0.0;0.0;-0.10052800178527832;-0.5397279858589172;1.1877919435501099;0.0;0.0;0.0
1343;-0.2227720022201538;-0.40748000144958496;1.0562759637832642;-0.07710400223731995;-0.5358240008354187;1.1633919477462769;-21.90999984741211;-24.311874389648438;-21.9581241607666
1346;0.0;0.0;0.0;-0.09662400186061859;-0.5592479705810547;1.1428959369659424;0.0;0.0;0.0
1348;0.0;0.0;0.0;-0.10052800178527832;-0.5397279858589172;1.1302080154418945;0.0;0.0;0.0
1350;0.0;0.0;0.0;-0.10443200170993805;-0.5397279858589172;1.126304030418396;0.0;0.0;0.0
1352;-0.21593999862670898;-0.4101639986038208;1.0067440271377563;-0.06148799881339073;-0.5280159711837769;1.1145919561386108;-18.479999542236328;-24.38187599182129;-26.158124923706055
1354;0.0;0.0;0.0;-0.07710400223731995;-0.5163040161132812;1.1145919561386108;0.0;0.0;0.0
1356;0.0;0.0;0.0;-0.06539200246334076;-0.5280159711837769;1.101904034614563;0.0;0.0;0.0
1358;0.0;0.0;0.0;-0.09662400186061859;-0.5202080011367798;1.126304030418396;0.0;0.0;0.0
1360;-0.19300399720668793;-0.3835679888725281;0.9821000099182129;-0.10443200170993805;-0.4928799867630005;1.0901919603347778;-13.510000228881836;-22.071874618530273;-29.378124237060547
1363;0.0;0.0;0.0;-0.0849120020866394;-0.46164798736572266;1.1145919561386108;0.0;0.0;0.0
1365;0.0;0.0;0.0;-0.06148799881339073;-0.48507198691368103;1.126304030418396;0.0;0.0;0.0
1367;0.0;0.0;0.0;-0.12004800140857697;-0.4694559872150421;1.1145919561386108;0.0;0.0;0.0
1369;-0.2100839912891388;-0.3559959828853607;0.9891759753227234;-0.11224000155925751;-0.48897600173950195;1.1302080154418945;-9.239999771118164;-17.10187530517578;-32.038124084472656
1371;0.0;0.0;0.0;-0.1239520013332367;-0.4577440023422241;1.1302080154418945;0.0;0.0;0.0
1373;0.0;0.0;0.0;-0.1512800008058548;-0.47336000204086304;1.1389919519424438;0.0;0.0;0.0
1375;0.0;0.0;0.0;-0.16201600432395935;-0.4772639870643616;1.1428959369659424;0.0;0.0;0.0
1377;-0.2613239884376526;-0.3315959870815277;1.010159969329834;-0.17763200402259827;-0.44603198766708374;1.1546080112457275;-6.230000019073486;-15.001874923706055;-34.27812576293945
1380;0.0;0.0;0.0;-0.2088640034198761;-0.44993600249290466;1.1546080112457275;0.0;0.0;0.0
1382;0.0;0.0;0.0;-0.18934398889541626;-0.44603198766708374;1.1389919519424438;0.0;0.0;0.0
1384;0.0;0.0;0.0;-0.22838398814201355;-0.41870400309562683;1.158511996269226;0.0;0.0;0.0
1386;-0.3211039900779724;-0.3106119930744171;1.0287039279937744;-0.236191987991333;-0.43432000279426575;1.158511996269226;-4.480000019073486;-18.08187484741211;-36.23812484741211
1388;0.0;0.0;0.0;-0.2088640034198761;-0.40699198842048645;1.1956000328063965;0.0;0.0;0.0
1390;0.0;0.0;0.0;-0.24399998784065247;-0.387472003698349;1.1916959285736084;0.0;0.0;0.0
1392;0.0;0.0;0.0;-0.2479040026664734;-0.37966400384902954;1.1956000328063965;0.0;0.0;0.0
1394;-0.34696799516677856;-0.2676680088043213;1.0545679330825806;-0.24009600281715393;-0.3718560039997101;1.1633919477462769;-5.039999961853027;-24.10187530517578;-37.00812530517578
1396;0.0;0.0;0.0;-0.23716799914836884;-0.3601439893245697;1.1965759992599487;0.0;0.0;0.0
1399;0.0;0.0;0.0;-0.23716799914836884;-0.3640480041503906;1.1838879585266113;0.0;0.0;0.0
1401;0.0;0.0;0.0;-0.2332639992237091;-0.32891198992729187;1.1760799884796143;0.0;0.0;0.0
1403;-0.3518480062484741;-0.22301599383354187;1.0528600215911865;-0.205935999751091;-0.3328160047531128;1.1799839735031128;-8.469999313354492;-28.7918758392334;-38.68812561035156
1405;0.0;0.0;0.0;-0.22155199944972992;-0.3211039900779724;1.1799839735031128;0.0;0.0;0.0
1407;0.0;0.0;0.0;-0.24887999892234802;-0.3172000050544739;1.1555839776992798;0.0;0.0;0.0
1409;0.0;0.0;0.0;-0.22545599937438965;-0.31329599022865295;1.1360639333724976;0.0;0.0;0.0
1411;-0.334524005651474;-0.19690799713134766;1.0335839986801147;-0.20203199982643127;-0.32500800490379333;1.1555839776992798;-12.460000038146973;-32.08187484741211;-40.64812469482422
1414;0.0;0.0;0.0;-0.2205759882926941;-0.3211039900779724;1.1428959369659424;0.0;0.0;0.0
1416;0.0;0.0;0.0;-0.20495998859405518;-0.2898719906806946;1.1633919477462769;0.0;0.0;0.0
1418;0.0;0.0;0.0;-0.20105600357055664;-0.30158400535583496;1.134112000465393;0.0;0.0;0.0
1420;-0.3257399797439575;-0.1722639948129654;1.0147960186004639;-0.2088640034198761;-0.28596800565719604;1.1302080154418945;-15.75;-34.1818733215332;-41.34812545776367
1422;0.0;0.0;0.0;-0.20495998859405518;-0.27425599098205566;1.1428959369659424;0.0;0.0;0.0
1424;0.0;0.0;0.0;-0.17372798919677734;-0.2664479911327362;1.101904034614563;0.0;0.0;0.0
1426;0.0;0.0;0.0;-0.17763200402259827;-0.2664479911327362;1.1389919519424438;0.0;0.0;0.0
1428;-0.3123199939727783;-0.1466439962387085;0.9962520003318787;-0.1698240041732788;-0.2781600058078766;1.101904034614563;-18.40999984741211;-36.2818717956543;-41.0681266784668
1431;0.0;0.0;0.0;-0.14347200095653534;-0.2547360062599182;1.1145919561386108;0.0;0.0;0.0
1433;0.0;0.0;0.0;-0.18934398889541626;-0.24692799150943756;1.134112000465393;0.0;0.0;0.0
1435;0.0;0.0;0.0;-0.16591998934745789;-0.25863999128341675;1.1184959411621094;0.0;0.0;0.0
1437;-0.2925559878349304;-0.12370799481868744;0.9838079810142517;-0.19715198874473572;-0.2235039919614792;1.101904034614563;-20.719999313354492;-37.89187240600586;-39.73812484741211
1439;0.0;0.0;0.0;-0.1542080044746399;-0.26254400610923767;1.0901919603347778;0.0;0.0;0.0
1441;0.0;0.0;0.0;-0.17372798919677734;-0.22740799188613892;1.1058080196380615;0.0;0.0;0.0
1443;0.0;0.0;0.0;-0.1424959897994995;-0.2391199916601181;1.1058080196380615;0.0;0.0;0.0
1445;-0.27889198064804077;-0.11101999878883362;0.9674599766731262;-0.16201600432395935;-0.24692799150943756;1.0657919645309448;-22.610000610351562;-37.05187225341797;-38.75812530517578
1448;0.0;0.0;0.0;-0.17470400035381317;-0.23131199181079865;1.0745760202407837;0.0;0.0;0.0
1450;0.0;0.0;0.0;-0.1512800008058548;-0.22740799188613892;1.083359956741333;0.0;0.0;0.0
1452;0.0;0.0;0.0;-0.1512800008058548;-0.23521599173545837;1.0706720352172852;0.0;0.0;0.0
1454;-0.2735239863395691;-0.10833600163459778;0.9428159594535828;-0.1395680010318756;-0.2508319914340973;1.034559965133667;-23.44999885559082;-34.81187438964844;-38.40812683105469
1456;0.0;0.0;0.0;-0.16299200057983398;-0.25863999128341675;1.0384639501571655;0.0;0.0;0.0
1458;0.0;0.0;0.0;-0.1786080002784729;-0.22740799188613892;1.0501760244369507;0.0;0.0;0.0
1460;0.0;0.0;0.0;-0.12785600125789642;-0.26254400610923767;1.017967939376831;0.0;0.0;0.0
1462;-0.2683999836444855;-0.12004800140857697;0.9069479703903198;-0.13176000118255615;-0.27035200595855713;1.0296800136566162;-23.729999542236328;-32.361873626708984;-38.75812530517578
1465;0.0;0.0;0.0;-0.11614400148391724;-0.2820639908313751;1.0287039279937744;0.0;0.0;0.0
1467;0.0;0.0;0.0;-0.13566400110721588;-0.27425599098205566;1.0052800178527832;0.0;0.0;0.0
1469;0.0;0.0;0.0;-0.10443200170993805;-0.26254400610923767;1.0247999429702759;0.0;0.0;0.0
1471;-0.24765999615192413;-0.14469200372695923;0.891819953918457;-0.09272000193595886;-0.2937760055065155;1.0052800178527832;-23.799999237060547;-28.51187515258789;-39.17812728881836
1473;0.0;0.0;0.0;-0.13176000118255615;-0.2937760055065155;1.0374879837036133;0.0;0.0;0.0
1475;0.0;0.0;0.0;-0.12004800140857697;-0.28596800565719604;1.0335839986801147;0.0;0.0;0.0
1477;0.0;0.0;0.0;-0.13078400492668152;-0.28596800565719604;1.0491999387741089;0.0;0.0;0.0
1479;-0.2432679980993271;-0.1449359953403473;0.9047519564628601;-0.10443200170993805;-0.24302399158477783;1.0287039279937744;-23.44999885559082;-23.051876068115234;-39.3181266784668
1482;0.0;0.0;0.0;-0.10443200170993805;-0.25863999128341675;1.042367935180664;0.0;0.0;0.0
1484;0.0;0.0;0.0;-0.1239520013332367;-0.20398399233818054;1.0706720352172852;0.0;0.0;0.0
1486;0.0;0.0;0.0;-0.10443200170993805;-0.23521599173545837;1.0745760202407837;0.0;0.0;0.0
1488;-0.2286279946565628;-0.1105320006608963;0.9335439801216125;-0.10443200170993805;-0.23521599173545837;1.09116792678833;-22.399999618530273;-18.85187530517578;-39.17812728881836
1490;0.0;0.0;0.0;-0.08979199826717377;-0.2235039919614792;1.0745760202407837;0.0;0.0;0.0
1492;0.0;0.0;0.0;-0.10052800178527832;-0.2235039919614792;1.0745760202407837;0.0;0.0;0.0
1494;0.0;0.0;0.0;-0.10443200170993805;-0.2117919921875;1.115567922592163;0.0;0.0;0.0
1496;-0.22252799570560455;-0.08051999658346176;0.9684360027313232;-0.10443200170993805;-0.20398399233818054;1.1438720226287842;-20.860000610351562;-16.33187484741211;-38.26812744140625
1499;0.0;0.0;0.0;-0.10443200170993805;-0.2235039919614792;1.1302080154418945;0.0;0.0;0.0
1501;0.0;0.0;0.0;-0.12785600125789642;-0.20398399233818054;1.1389919519424438;0.0;0.0;0.0
1503;0.0;0.0;0.0;-0.15518400073051453;-0.17665599286556244;1.1633919477462769;0.0;0.0;0.0
1505;-0.2554679811000824;-0.07222399860620499;1.0218719244003296;-0.15030398964881897;-0.2000799924135208;1.1956000328063965;-20.020000457763672;-16.121875762939453;-36.58812713623047
1507;0.0;0.0;0.0;-0.1395680010318756;-0.2000799924135208;1.1956000328063965;0.0;0.0;0.0
1509;0.0;0.0;0.0;-0.14737600088119507;-0.2000799924135208;1.2112159729003906;0.0;0.0;0.0
1511;0.0;0.0;0.0;-0.18934398889541626;-0.19227199256420135;1.1956000328063965;0.0;0.0;0.0
1513;-0.2793799936771393;-0.06465999782085419;1.066767930984497;-0.15030398964881897;-0.1844639927148819;1.207311987876892;-19.8799991607666;-19.201875686645508;-36.16812515258789
1516;0.0;0.0;0.0;-0.14347200095653534;-0.18836799263954163;1.207311987876892;0.0;0.0;0.0
1518;0.0;0.0;0.0;-0.1239520013332367;-0.19227199256420135;1.2034080028533936;0.0;0.0;0.0
1520;0.0;0.0;0.0;-0.14347200095653534;-0.20788799226284027;1.1868159770965576;0.0;0.0;0.0
1522;-0.2659600079059601;-0.05929199978709221;1.0635960102081299;-0.1424959897994995;-0.18055999279022217;1.1672959327697754;-19.8799991607666;-23.191875457763672;-37.00812530517578
1524;0.0;0.0;0.0;-0.1512800008058548;-0.18055999279022217;1.1712000370025635;0.0;0.0;0.0
1526;0.0;0.0;0.0;-0.12785600125789642;-0.2000799924135208;1.1428959369659424;0.0;0.0;0.0
1528;0.0;0.0;0.0;-0.12785600125789642;-0.18055999279022217;1.1428959369659424;0.0;0.0;0.0
1530;-0.2542479932308197;-0.04782399907708168;1.0228480100631714;-0.12785600125789642;-0.1844639927148819;1.126304030418396;-18.690000534057617;-27.181875228881836;-37.00812530517578
1533;0.0;0.0;0.0;-0.14737600088119507;-0.1727519929409027;1.1145919561386108;0.0;0.0;0.0
1535;0.0;0.0;0.0;-0.13176000118255615;-0.15323199331760406;1.101904034614563;0.0;0.0;0.0
1537;0.0;0.0;0.0;-0.12004800140857697;-0.16494399309158325;1.0901919603347778;0.0;0.0;0.0
1539;-0.24277999997138977;-0.02659599855542183;0.9691680073738098;-0.10833600163459778;-0.14932799339294434;1.0452959537506104;-16.100000381469727;-31.031875610351562;-36.44812774658203
1541;0.0;0.0;0.0;-0.11224000155925751;-0.12590399384498596;1.0618879795074463;0.0;0.0;0.0
1543;0.0;0.0;0.0;-0.11614400148391724;-0.1454239934682846;1.0335839986801147;0.0;0.0;0.0
1545;0.0;0.0;0.0;-0.11224000155925751;-0.13761599361896515;1.0208959579467773;0.0;0.0;0.0
1547;-0.22838398814201355;-0.0058559998869895935;0.9149999618530273;-0.10052800178527832;-0.13371199369430542;1.0130879878997803;-13.929999351501465;-34.111873626708984;-36.51812744140625
1550;0.0;0.0;0.0;-0.0936959981918335;-0.13761599361896515;1.0218719244003296;0.0;0.0;0.0
1552;0.0;0.0;0.0;-0.10443200170993805;-0.12199999392032623;0.9974719882011414;0.0;0.0;0.0
1554;0.0;0.0;0.0;-0.10833600163459778;-0.11419199407100677;0.9691680073738098;0.0;0.0;0.0
1556;-0.21252399682998657;0.011467999778687954;0.8613199591636658;-0.07417599856853485;-0.11419199407100677;0.9818559885025024;-14.279999732971191;-35.51187515258789;-36.868125915527344
1558;0.0;0.0;0.0;-0.07417599856853485;-0.10247999429702759;0.9652639627456665;0.0;0.0;0.0
1560;0.0;0.0;0.0;-0.07027199864387512;-0.11419199407100677;0.936959981918335;0.0;0.0;0.0
1562;0.0;0.0;0.0;-0.04684799909591675;-0.05563199892640114;0.961359977722168;0.0;0.0;0.0
1564;-0.1786080002784729;0.04879999905824661;0.8220359683036804;-0.031231999397277832;-0.05953599885106087;0.920367956161499;-16.65999984741211;-33.83187484741211;-37.00812530517578
1567;0.0;0.0;0.0;-0.011711999773979187;-0.05172799900174141;0.944767951965332;0.0;0.0;0.0
1569;0.0;0.0;0.0;0.027327999472618103;-0.01659199967980385;0.936959981918335;0.0;0.0;0.0
1571;0.0;0.0;0.0;0.03513599932193756;-0.032207999378442764;0.944767951965332;0.0;0.0;0.0
1573;-0.11760799586772919;0.09174399822950363;0.8132519721984863;0.011711999773979187;-0.0009759999811649323;0.9574559926986694;-20.719999313354492;-27.88187599182129;-36.09812545776367
1575;0.0;0.0;0.0;0.031231999397277832;-0.0009759999811649323;0.9574559926986694;0.0;0.0;0.0
1577;0.0;0.0;0.0;0.019519999623298645;0.0302559994161129;0.9652639627456665;0.0;0.0;0.0
1579;0.0;0.0;0.0;0.04684799909591675;-0.004879999905824661;0.9691680073738098;0.0;0.0;0.0
1581;-0.08051999658346176;0.14761999249458313;0.8315519690513611;0.03903999924659729;0.03415999934077263;0.9652639627456665;-24.639999389648438;-18.921875;-32.10812759399414
1584;0.0;0.0;0.0;0.07417599856853485;0.06539200246334076;1.0257760286331177;0.0;0.0;0.0
1586;0.0;0.0;0.0;0.054655998945236206;0.08881600201129913;1.017967939376831;0.0;0.0;0.0
1588;0.0;0.0;0.0;0.05075199902057648;-0.0009759999811649323;1.0257760286331177;0.0;0.0;0.0
1590;-0.07124799489974976;0.18397599458694458;0.8779119849205017;0.03903999924659729;0.06539200246334076;1.0296800136566162;-27.93000030517578;-8.351875305175781;-26.788124084472656
1592;0.0;0.0;0.0;0.023423999547958374;0.0302559994161129;1.0384639501571655;0.0;0.0;0.0
1594;0.0;0.0;0.0;0.023423999547958374;0.06148799881339073;1.0384639501571655;0.0;0.0;0.0
1596;0.0;0.0;0.0;0.04684799909591675;0.03415999934077263;1.042367935180664;0.0;0.0;0.0
1598;-0.08808399736881256;0.1710439920425415;0.90938800573349;0.023423999547958374;0.0029279999434947968;1.042367935180664;-28.700000762939453;1.0981251001358032;-21.468124389648438
1601;0.0;0.0;0.0;-0.003903999924659729;0.006831999868154526;1.0384639501571655;0.0;0.0;0.0
1603;0.0;0.0;0.0;0.015615999698638916;0.014639999717473984;1.042367935180664;0.0;0.0;0.0
1605;0.0;0.0;0.0;-0.003903999924659729;0.006831999868154526;1.0872639417648315;0.0;0.0;0.0
1607;-0.12126799672842026;0.1454239934682846;0.9276880025863647;-0.023423999547958374;-0.01268799975514412;1.0462720394134521;-24.850000381469727;5.998125076293945;-17.338125228881836
1609;0.0;0.0;0.0;-0.023423999547958374;0.014639999717473984;1.0540800094604492;0.0;0.0;0.0
1611;0.0;0.0;0.0;-0.011711999773979187;0.02635199949145317;1.09116792678833;0.0;0.0;0.0
1613;0.0;0.0;0.0;-0.031231999397277832;-0.01659199967980385;1.0823839902877808;0.0;0.0;0.0
1615;-0.1500599980354309;0.1361519992351532;0.9401319622993469;-0.027327999472618103;0.0029279999434947968;1.0950720310211182;-18.619998931884766;5.718124866485596;-13.908124923706055
1618;0.0;0.0;0.0;-0.04684799909591675;0.014639999717473984;1.0784800052642822;0.0;0.0;0.0
1620;0.0;0.0;0.0;-0.015615999698638916;0.0302559994161129;1.0872639417648315;0.0;0.0;0.0
1622;0.0;0.0;0.0;0.011711999773979187;0.049775999039411545;1.1116639375686646;0.0;0.0;0.0
1624;-0.12834399938583374;0.16884799301624298;0.9557479619979858;0.027327999472618103;0.049775999039411545;1.0989760160446167;-13.789999961853027;2.4281249046325684;-10.408124923706055
1626;0.0;0.0;0.0;0.027327999472618103;0.053679998964071274;1.0950720310211182;0.0;0.0;0.0
1628;0.0;0.0;0.0;0.027327999472618103;0.06148799881339073;1.1116639375686646;0.0;0.0;0.0
1630;0.0;0.0;0.0;0.031231999397277832;0.08100800216197968;1.1067839860916138;0.0;0.0;0.0
1632;-0.08588799834251404;0.20569199323654175;0.9650200009346008;0.04684799909591675;0.10052800178527832;1.0823839902877808;-10.639999389648438;0.7481250166893005;-6.768125057220459
1635;0.0;0.0;0.0;0.023423999547958374;0.07710400223731995;1.09116792678833;0.0;0.0;0.0
1637;0.0;0.0;0.0;0.062463998794555664;0.07710400223731995;1.0823839902877808;0.0;0.0;0.0
1639;0.0;0.0;0.0;0.07807999849319458;0.12004800140857697;1.1233760118484497;0.0;0.0;0.0
1641;-0.06880799680948257;0.2239919900894165;0.9652639627456665;0.07807999849319458;0.08881600201129913;1.0989760160446167;-8.469999313354492;1.3781250715255737;-2.778125047683716
1643;0.0;0.0;0.0;0.054655998945236206;0.10833600163459778;1.1116639375686646;0.0;0.0;0.0
1645;0.0;0.0;0.0;0.05075199902057648;0.13176000118255615;1.1028800010681152;0.0;0.0;0.0
1647;0.0;0.0;0.0;0.011711999773979187;0.1512800008058548;1.1272799968719482;0.0;0.0;0.0
1649;-0.07954400032758713;0.2518079876899719;0.9691680073738098;0.03903999924659729;0.1512800008058548;1.1067839860916138;-6.860000133514404;1.4481250047683716;2.2618749141693115
1652;0.0;0.0;0.0;0.019519999623298645;0.15908800065517426;1.0989760160446167;0.0;0.0;0.0
1654;0.0;0.0;0.0;0.027327999472618103;0.16299200057983398;1.139967918395996;0.0;0.0;0.0
1656;0.0;0.0;0.0;0.04684799909591675;0.1903200000524521;1.1194720268249512;0.0;0.0;0.0
1658;-0.09003599733114243;0.2920680046081543;0.9928359985351562;0.04684799909591675;0.18251200020313263;1.139967918395996;-7.350000381469727;0.18812499940395355;6.251875400543213
1660;0.0;0.0;0.0;0.03513599932193756;0.19422399997711182;1.1350879669189453;0.0;0.0;0.0
1662;0.0;0.0;0.0;0.07417599856853485;0.18641600012779236;1.1438720226287842;0.0;0.0;0.0
1664;0.0;0.0;0.0;0.08588799834251404;0.17470400035381317;1.1438720226287842;0.0;0.0;0.0
1666;-0.05904799699783325;0.3001199960708618;1.00381600856781;0.05075199902057648;0.17470400035381317;1.1272799968719482;-10.149999618530273;-0.5818750262260437;9.681875228881836
1669;0.0;0.0;0.0;0.07905599474906921;0.16299200057983398;1.126304030418396;0.0;0.0;0.0
1671;0.0;0.0;0.0;0.07515199482440948;0.16299200057983398;1.122399926185608;0.0;0.0;0.0
1673;0.0;0.0;0.0;0.0634399950504303;0.1239520013332367;1.0940959453582764;0.0;0.0;0.0
1675;-0.053679998964071274;0.281576007604599;0.9879559874534607;0.05172799900174141;0.12785600125789642;1.1145919561386108;-12.25;-0.37187498807907104;14.231874465942383
1677;0.0;0.0;0.0;0.0907679945230484;0.13566400110721588;1.122399926185608;0.0;0.0;0.0
1679;0.0;0.0;0.0;0.08295999467372894;0.1395680010318756;1.1184959411621094;0.0;0.0;0.0
1681;0.0;0.0;0.0;0.07515199482440948;0.10052800178527832;1.1302080154418945;0.0;0.0;0.0
1684;-0.03294000029563904;0.260591983795166;0.9882000088691711;0.10931199789047241;0.10443200170993805;1.1106879711151123;-13.15999984741211;1.4481250047683716;18.431875228881836
1686;0.0;0.0;0.0;0.0936959981918335;0.13176000118255615;1.1311839818954468;0.0;0.0;0.0
1688;0.0;0.0;0.0;0.12492799758911133;0.08881600201129913;1.1067839860916138;0.0;0.0;0.0
1690;0.0;0.0;0.0;0.10931199789047241;0.09272000193595886;1.1067839860916138;0.0;0.0;0.0
1692;-0.00634399987757206;0.24473199248313904;0.9906399846076965;0.11711999773979187;0.11224000155925751;1.1116639375686646;-11.40999984741211;5.368124961853027;22.981876373291016
1694;0.0;0.0;0.0;0.10540799796581268;0.09272000193595886;1.1233760118484497;0.0;0.0;0.0
1696;0.0;0.0;0.0;0.10931199789047241;0.08100800216197968;1.1194720268249512;0.0;0.0;0.0
1698;0.0;0.0;0.0;0.14054399728775024;0.06148799881339073;1.115567922592163;0.0;0.0;0.0
1700;0.005123999901115894;0.21716000139713287;0.9852719902992249;0.12883199751377106;0.0849120020866394;1.1067839860916138;-7.070000171661377;10.198124885559082;26.97187614440918
1703;0.0;0.0;0.0;0.1327359974384308;0.07710400223731995;1.1145919561386108;0.0;0.0;0.0
1705;0.0;0.0;0.0;0.12883199751377106;0.06929600238800049;1.1145919561386108;0.0;0.0;0.0
1707;0.0;0.0;0.0;0.16396799683570862;0.07320000231266022;1.1389919519424438;0.0;0.0;0.0
1709;0.030743999406695366;0.1983719915151596;0.9930799603462219;0.17958399653434753;0.06929600238800049;1.126304030418396;-1.540000081062317;14.678125381469727;30.821876525878906
1711;0.0;0.0;0.0;0.17177599668502808;0.08881600201129913;1.146799921989441;0.0;0.0;0.0
1713;0.0;0.0;0.0;0.19519999623298645;0.08100800216197968;1.182911992073059;0.0;0.0;0.0
1715;0.0;0.0;0.0;0.230335995554924;0.09272000193595886;1.199504017829895;0.0;0.0;0.0
1718;0.07149200141429901;0.21837998926639557;1.0411479473114014;0.1756799966096878;0.11614400148391724;1.207311987876892;2.7300000190734863;19.298124313354492;36.421875
1720;0.0;0.0;0.0;0.17177599668502808;0.11224000155925751;1.223904013633728;0.0;0.0;0.0
1722;0.0;0.0;0.0;0.19129599630832672;0.09662400186061859;1.2404959201812744;0.0;0.0;0.0
1724;0.0;0.0;0.0;0.20691199600696564;0.11224000155925751;1.231711983680725;0.0;0.0;0.0
1726;0.0680759996175766;0.2256999909877777;1.0987319946289062;0.18348799645900726;0.07320000231266022;1.2600159645080566;4.549999713897705;23.98812484741211;41.671875
1728;0.0;0.0;0.0;0.17177599668502808;0.08881600201129913;1.2356159687042236;0.0;0.0;0.0
1730;0.0;0.0;0.0;0.17958399653434753;0.07710400223731995;1.2395199537277222;0.0;0.0;0.0
1732;0.0;0.0;0.0;0.1483519971370697;0.045871999114751816;1.248304009437561;0.0;0.0;0.0
1735;0.05172799900174141;0.18836799263954163;1.1167880296707153;0.16396799683570862;0.02635199949145317;1.2278079986572266;6.230000019073486;26.088125228881836;45.03187561035156
1737;0.0;0.0;0.0;0.1668960005044937;0.04196799919009209;1.2414720058441162;0.0;0.0;0.0
1739;0.0;0.0;0.0;0.1668960005044937;0.03415999934077263;1.2492799758911133;0.0;0.0;0.0
1741;0.0;0.0;0.0;0.1786080002784729;0.04196799919009209;1.2609919309616089;0.0;0.0;0.0
1743;0.05660799890756607;0.16396799683570862;1.1121519804000854;0.1903200000524521;0.03806399926543236;1.2658720016479492;8.890000343322754;25.178125381469727;46.4318733215332
1745;0.0;0.0;0.0;0.19812799990177155;0.03415999934077263;1.2492799758911133;0.0;0.0;0.0
1747;0.0;0.0;0.0;0.19812799990177155;0.02635199949145317;1.2531839609146118;0.0;0.0;0.0
1749;0.0;0.0;0.0;0.18251200020313263;0.03806399926543236;1.2414720058441162;0.0;0.0;0.0
1752;0.07539600133895874;0.1647000014781952;1.1126400232315063;0.19422399997711182;0.0302559994161129;1.2365919351577759;11.270000457763672;24.1981258392334;47.41187286376953
1754;0.0;0.0;0.0;0.19519999623298645;0.06148799881339073;1.2444000244140625;0.0;0.0;0.0
1756;0.0;0.0;0.0;0.22643199563026428;0.03415999934077263;1.223904013633728;0.0;0.0;0.0
1758;0.0;0.0;0.0;0.24595199525356293;0.022447999566793442;1.223904013633728;0.0;0.0;0.0
1760;0.09345199912786484;0.1768999993801117;1.111907958984375;0.21862399578094482;0.07320000231266022;1.2200000286102295;12.320000648498535;23.358125686645508;47.76187515258789
1762;0.0;0.0;0.0;0.21081599593162537;0.049775999039411545;1.2160959243774414;0.0;0.0;0.0
1764;0.0;0.0;0.0;0.21862399578094482;0.053679998964071274;1.223904013633728;0.0;0.0;0.0
1766;0.0;0.0;0.0;0.24985599517822266;0.049775999039411545;1.2444000244140625;0.0;0.0;0.0
1769;0.10369999706745148;0.18714798986911774;1.097267985343933;0.23423999547958374;0.04196799919009209;1.223904013633728;12.320000648498535;23.218124389648438;47.69187545776367
1771;0.0;0.0;0.0;0.20983999967575073;0.04196799919009209;1.2248799800872803;0.0;0.0;0.0
1773;0.0;0.0;0.0;0.25278398394584656;0.045871999114751816;1.1965759992599487;0.0;0.0;0.0
1775;0.0;0.0;0.0;0.25278398394584656;0.053679998964071274;1.1965759992599487;0.0;0.0;0.0
1777;0.1256600022315979;0.1698240041732788;1.0767719745635986;0.24107199907302856;0.022447999566793442;1.1799839735031128;13.020000457763672;23.568124771118164;47.271873474121094
1779;0.0;0.0;0.0;0.26449599862098694;0.03415999934077263;1.1760799884796143;0.0;0.0;0.0
1781;0.0;0.0;0.0;0.2723039984703064;0.02635199949145317;1.1682720184326172;0.0;0.0;0.0
1783;0.0;0.0;0.0;0.25278398394584656;0.022447999566793442;1.1643680334091187;0.0;0.0;0.0
1786;0.13346800208091736;0.152988001704216;1.0401719808578491;0.22545599937438965;0.018543999642133713;1.1555839776992798;15.610000610351562;24.75812530517578;47.90187454223633
1788;0.0;0.0;0.0;0.24985599517822266;0.018543999642133713;1.1633919477462769;0.0;0.0;0.0
1790;0.0;0.0;0.0;0.24985599517822266;0.03415999934077263;1.146799921989441;0.0;0.0;0.0
1792;0.0;0.0;0.0;0.2537599802017212;0.0029279999434947968;1.150704026222229;0.0;0.0;0.0
1794;0.13468798995018005;0.15176799893379211;1.0128439664840698;0.27718400955200195;0.014639999717473984;1.122399926185608;19.040000915527344;25.66812515258789;48.32187271118164
1796;0.0;0.0;0.0;0.27718400955200195;0.02635199949145317;1.1184959411621094;0.0;0.0;0.0
1798;0.0;0.0;0.0;0.2810879945755005;0.022447999566793442;1.1302080154418945;0.0;0.0;0.0
1800;0.0;0.0;0.0;0.27327999472618103;0.0302559994161129;1.146799921989441;0.0;0.0;0.0
1803;0.14615599811077118;0.14859600365161896;1.0074759721755981;0.2693759799003601;0.022447999566793442;1.1546080112457275;21.559999465942383;26.718124389648438;48.881874084472656
1805;0.0;0.0;0.0;0.27718400955200195;0.010735999792814255;1.134112000465393;0.0;0.0;0.0
1807;0.0;0.0;0.0;0.2576639950275421;0.0302559994161129;1.1546080112457275;0.0;0.0;0.0
1809;0.0;0.0;0.0;0.26156800985336304;0.0302559994161129;1.1546080112457275;0.0;0.0;0.0
1811;0.15567199885845184;0.14688800275325775;1.0160160064697266;0.27718400955200195;0.018543999642133713;1.1546080112457275;22.1200008392334;27.6981258392334;50.00187301635742
1813;0.0;0.0;0.0;0.2967039942741394;0.018543999642133713;1.1546080112457275;0.0;0.0;0.0
1815;0.0;0.0;0.0;0.23423999547958374;0.02635199949145317;1.1546080112457275;0.0;0.0;0.0
1817;0.0;0.0;0.0;0.27327999472618103;-0.004879999905824661;1.1712000370025635;0.0;0.0;0.0
1820;0.15103599429130554;0.1495719999074936;1.0291919708251953;0.2420479953289032;0.02635199949145317;1.1633919477462769;20.649999618530273;27.558124542236328;52.521873474121094
1822;0.0;0.0;0.0;0.23814399540424347;0.03806399926543236;1.1790080070495605;0.0;0.0;0.0
1824;0.0;0.0;0.0;0.30060797929763794;0.02635199949145317;1.1916959285736084;0.0;0.0;0.0
1826;0.0;0.0;0.0;0.2810879945755005;0.0302559994161129;1.182911992073059;0.0;0.0;0.0
1828;0.1495719999074936;0.152988001704216;1.052616000175476;0.28889599442481995;0.02635199949145317;1.2034080028533936;17.220001220703125;26.298124313354492;55.041873931884766
1830;0.0;0.0;0.0;0.27718400955200195;-0.00878399983048439;1.2200000286102295;0.0;0.0;0.0
1832;0.0;0.0;0.0;0.3084160089492798;0.02635199949145317;1.2121919393539429;0.0;0.0;0.0
1834;0.0;0.0;0.0;0.2810879945755005;0.0029279999434947968;1.2200000286102295;0.0;0.0;0.0
1837;0.17006799578666687;0.14103199541568756;1.0782359838485718;0.30060797929763794;-0.01268799975514412;1.2112159729003906;12.390000343322754;24.75812530517578;58.40187454223633
1839;0.0;0.0;0.0;0.3152479827404022;-0.028303999453783035;1.2248799800872803;0.0;0.0;0.0
1841;0.0;0.0;0.0;0.3230559825897217;-0.04001599922776222;1.2082879543304443;0.0;0.0;0.0
1843;0.0;0.0;0.0;0.33086398243904114;-0.024399999529123306;1.2170720100402832;0.0;0.0;0.0
1845;0.20569199323654175;0.10247999429702759;1.0923880338668823;0.37380799651145935;-0.06734399497509003;1.2492799758911133;7.559999942779541;24.338125228881836;59.66187286376953
1847;0.0;0.0;0.0;0.37380799651145935;-0.09467199444770813;1.2365919351577759;0.0;0.0;0.0
1849;0.0;0.0;0.0;0.3425759971141815;-0.08686399459838867;1.2326879501342773;0.0;0.0;0.0
1851;0.0;0.0;0.0;0.4079679846763611;-0.11419199407100677;1.2609919309616089;0.0;0.0;0.0
1854;0.24985599517822266;0.03660000115633011;1.1072720289230347;0.3972319960594177;-0.12199999392032623;1.2531839609146118;5.039999961853027;25.318124771118164;59.87187576293945
1856;0.0;0.0;0.0;0.38551998138427734;-0.14932799339294434;1.2287839651107788;0.0;0.0;0.0
1858;0.0;0.0;0.0;0.3699039816856384;-0.15323199331760406;1.2326879501342773;0.0;0.0;0.0
1860;0.0;0.0;0.0;0.3816159963607788;-0.16494399309158325;1.2248799800872803;0.0;0.0;0.0
1862;0.2752319872379303;-0.02903600037097931;1.1070280075073242;0.41967999935150146;-0.17665599286556244;1.2209759950637817;5.739999771118164;26.64812469482422;57.771873474121094
1864;0.0;0.0;0.0;0.4352959990501404;-0.19617599248886108;1.2375680208206177;0.0;0.0;0.0
1866;0.0;0.0;0.0;0.47433599829673767;-0.21569599211215973;1.2365919351577759;0.0;0.0;0.0
1868;0.0;0.0;0.0;0.4665279984474182;-0.20398399233818054;1.2414720058441162;0.0;0.0;0.0
1871;0.34135597944259644;-0.07368800044059753;1.099463939666748;0.48214399814605713;-0.22740799188613892;1.2170720100402832;9.520000457763672;26.858125686645508;54.201873779296875
1873;0.0;0.0;0.0;0.522159993648529;-0.2000799924135208;1.2034080028533936;0.0;0.0;0.0
1875;0.0;0.0;0.0;0.49483197927474976;-0.2391199916601181;1.231711983680725;0.0;0.0;0.0
1877;0.0;0.0;0.0;0.537775993347168;-0.23131199181079865;1.223904013633728;0.0;0.0;0.0
1879;0.3916199803352356;-0.09516000002622604;1.0987319946289062;0.5338720083236694;-0.23521599173545837;1.231711983680725;14.700000762939453;26.858125686645508;50.421875
1881;0.0;0.0;0.0;0.5533919930458069;-0.21959999203681946;1.2404959201812744;0.0;0.0;0.0
1883;0.0;0.0;0.0;0.5572959780693054;-0.23521599173545837;1.248304009437561;0.0;0.0;0.0
1885;0.0;0.0;0.0;0.5533919930458069;-0.23131199181079865;1.2404959201812744;0.0;0.0;0.0
1888;0.43773600459098816;-0.09637999534606934;1.1172759532928467;0.545583963394165;-0.21959999203681946;1.2844159603118896;20.09000015258789;27.6981258392334;46.08187484741211
1890;0.0;0.0;0.0;0.5250880122184753;-0.22740799188613892;1.2814879417419434;0.0;0.0;0.0
1892;0.0;0.0;0.0;0.5407040119171143;-0.23521599173545837;1.2941759824752808;0.0;0.0;0.0
1894;0.0;0.0;0.0;0.5602239966392517;-0.21959999203681946;1.28929603099823;0.0;0.0;0.0
1896;0.4370039999485016;-0.0907679945230484;1.152899980545044;0.5719360113143921;-0.2235039919614792;1.285391926765442;23.030000686645508;28.9581241607666;41.041873931884766
1898;0.0;0.0;0.0;0.5524159669876099;-0.20788799226284027;1.2736799716949463;0.0;0.0;0.0
1900;0.0;0.0;0.0;0.5680319666862488;-0.20398399233818054;1.2814879417419434;0.0;0.0;0.0
1903;0.0;0.0;0.0;0.5836479663848877;-0.20398399233818054;1.2658720016479492;0.0;0.0;0.0
1905;0.45530399680137634;-0.08003199845552444;1.1504600048065186;0.5524159669876099;-0.1844639927148819;1.2736799716949463;24.780000686645508;25.318124771118164;35.58187484741211
1907;0.0;0.0;0.0;0.6031680107116699;-0.19227199256420135;1.2531839609146118;0.0;0.0;0.0
1909;0.0;0.0;0.0;0.5797439813613892;-0.19227199256420135;1.2697759866714478;0.0;0.0;0.0
1911;0.0;0.0;0.0;0.5836479663848877;-0.20398399233818054;1.2453759908676147;0.0;0.0;0.0
1913;0.4711639881134033;-0.05807200074195862;1.1343560218811035;0.587552011013031;-0.17665599286556244;1.2414720058441162;25.34000015258789;20.838125228881836;30.821876525878906
1915;0.0;0.0;0.0;0.5680319666862488;-0.19617599248886108;1.2287839651107788;0.0;0.0;0.0
1917;0.0;0.0;0.0;0.5602239966392517;-0.18836799263954163;1.2082879543304443;0.0;0.0;0.0
1920;0.0;0.0;0.0;0.5446079969406128;-0.17665599286556244;1.1965759992599487;0.0;0.0;0.0
1922;0.4409079849720001;-0.04391999915242195;1.0897040367126465;0.5446079969406128;-0.16103999316692352;1.2043839693069458;24.780000686645508;19.368125915527344;24.941875457763672
1924;0.0;0.0;0.0;0.513375997543335;-0.16494399309158325;1.2043839693069458;0.0;0.0;0.0
1926;0.0;0.0;0.0;0.5407040119171143;-0.1727519929409027;1.1682720184326172;0.0;0.0;0.0
1928;0.0;0.0;0.0;0.5485119819641113;-0.13761599361896515;1.1965759992599487;0.0;0.0;0.0
1930;0.4272439777851105;-0.019276000559329987;1.059448003768921;0.5485119819641113;-0.16103999316692352;1.1760799884796143;24.43000030517578;18.248125076293945;18.431875228881836
1932;0.0;0.0;0.0;0.5563200116157532;-0.1298079937696457;1.1682720184326172;0.0;0.0;0.0
1934;0.0;0.0;0.0;0.5563200116157532;-0.11419199407100677;1.1682720184326172;0.0;0.0;0.0
1937;0.0;0.0;0.0;0.513375997543335;-0.12590399384498596;1.1721760034561157;0.0;0.0;0.0
1939;0.4172399938106537;0.0058559998869895935;1.0291919708251953;0.5094720125198364;-0.10638399422168732;1.1272799968719482;24.149999618530273;17.268125534057617;14.091875076293945
1941;0.0;0.0;0.0;0.5104479789733887;-0.13761599361896515;1.1302080154418945;0.0;0.0;0.0
1943;0.0;0.0;0.0;0.537775993347168;-0.11419199407100677;1.1106879711151123;0.0;0.0;0.0
1945;0.0;0.0;0.0;0.5260639786720276;-0.11028799414634705;1.101904034614563;0.0;0.0;0.0
1947;0.4030880033969879;0.01659199967980385;0.9855159521102905;0.522159993648529;-0.12590399384498596;1.1145919561386108;23.450000762939453;17.478124618530273;11.01187515258789
1949;0.0;0.0;0.0;0.5065439939498901;-0.11028799414634705;1.0814080238342285;0.0;0.0;0.0
1951;0.0;0.0;0.0;0.5143519639968872;-0.10638399422168732;1.0775039196014404;0.0;0.0;0.0
1954;0.0;0.0;0.0;0.49483197927474976;-0.1180959939956665;1.0775039196014404;0.0;0.0;0.0
1956;0.3869839906692505;0.030988000333309174;0.9508680105209351;0.49483197927474976;-0.09467199444770813;1.0775039196014404;22.96000099182129;19.018125534057617;9.191874504089355
1958;0.0;0.0;0.0;0.46750399470329285;-0.1180959939956665;1.0618879795074463;0.0;0.0;0.0
1960;0.0;0.0;0.0;0.4753119945526123;-0.08295999467372894;1.0940959453582764;0.0;0.0;0.0
1962;0.0;0.0;0.0;0.46750399470329285;-0.09467199444770813;1.0814080238342285;0.0;0.0;0.0
1964;0.34477198123931885;0.04636000096797943;0.9406200051307678;0.436271995306015;-0.0907679945230484;1.0491999387741089;22.1200008392334;21.39812469482422;8.701874732971191
1966;0.0;0.0;0.0;0.45188799500465393;-0.10247999429702759;1.0491999387741089;0.0;0.0;0.0
1968;0.0;0.0;0.0;0.4596959948539734;-0.10247999429702759;1.0287039279937744;0.0;0.0;0.0
1971;0.0;0.0;0.0;0.4596959948539734;-0.09467199444770813;1.0491999387741089;0.0;0.0;0.0
1973;0.3230559825897217;0.03806399926543236;0.925491988658905;0.447983980178833;-0.10638399422168732;1.0247999429702759;22.190000534057617;23.428125381469727;9.051875114440918
1975;0.0;0.0;0.0;0.4323679804801941;-0.13371199369430542;1.0247999429702759;0.0;0.0;0.0
1977;0.0;0.0;0.0;0.45188799500465393;-0.11028799414634705;1.0374879837036133;0.0;0.0;0.0
1979;0.0;0.0;0.0;0.4635999798774719;-0.11419199407100677;1.0287039279937744;0.0;0.0;0.0
1981;0.3206160068511963;0.01878799870610237;0.9162200093269348;0.45579198002815247;-0.12199999392032623;1.0452959537506104;23.80000114440918;25.388124465942383;10.031874656677246
1983;0.0;0.0;0.0;0.447983980178833;-0.12199999392032623;1.0208959579467773;0.0;0.0;0.0
1985;0.0;0.0;0.0;0.436271995306015;-0.14151999354362488;1.0618879795074463;0.0;0.0;0.0
1988;0.0;0.0;0.0;0.4206559956073761;-0.13371199369430542;1.0413919687271118;0.0;0.0;0.0
1990;0.31793197989463806;0.007075999863445759;0.9181720018386841;0.3972319960594177;-0.12199999392032623;1.0618879795074463;25.899999618530273;26.718124389648438;11.571874618530273
1992;0.0;0.0;0.0;0.4352959990501404;-0.12199999392032623;1.0462720394134521;0.0;0.0;0.0
1994;0.0;0.0;0.0;0.4050399959087372;-0.15323199331760406;1.0745760202407837;0.0;0.0;0.0
1996;0.0;0.0;0.0;0.41284799575805664;-0.1454239934682846;1.066767930984497;0.0;0.0;0.0
1998;0.28938400745391846;-0.020739998668432236;0.9357399940490723;0.35819199681282043;-0.17665599286556244;1.0706720352172852;27.93000030517578;27.628124237060547;12.971875190734863
2000;0.0;0.0;0.0;0.3962559998035431;-0.2000799924135208;1.0384639501571655;0.0;0.0;0.0
2002;0.0;0.0;0.0;0.37380799651145935;-0.21959999203681946;1.0823839902877808;0.0;0.0;0.0
2005;0.0;0.0;0.0;0.3777119815349579;-0.21959999203681946;1.0823839902877808;0.0;0.0;0.0
2007;0.26205599308013916;-0.06685599684715271;0.9469639658927917;0.3699039816856384;-0.20788799226284027;1.0706720352172852;29.81999969482422;27.768125534057617;12.411874771118164
2009;0.0;0.0;0.0;0.36209598183631897;-0.23521599173545837;1.0872639417648315;0.0;0.0;0.0
2011;0.0;0.0;0.0;0.3933279812335968;-0.20788799226284027;1.1028800010681152;0.0;0.0;0.0
2013;0.0;0.0;0.0;0.3816159963607788;-0.21959999203681946;1.1028800010681152;0.0;0.0;0.0
2015;0.253028005361557;-0.09808799624443054;0.9564799666404724;0.35819199681282043;-0.25863999128341675;1.0872639417648315;32.060001373291016;26.928125381469727;10.241874694824219
2017;0.0;0.0;0.0;0.38942399621009827;-0.25863999128341675;1.1067839860916138;0.0;0.0;0.0
2019;0.0;0.0;0.0;0.37380799651145935;-0.21959999203681946;1.115567922592163;0.0;0.0;0.0
2022;0.0;0.0;0.0;0.35819199681282043;-0.2235039919614792;1.083359956741333;0.0;0.0;0.0
2024;0.2454639971256256;-0.11736399680376053;0.9640439748764038;0.3699039816856384;-0.2664479911327362;1.0784800052642822;34.22999954223633;24.688125610351562;7.721875190734863
2026;0.0;0.0;0.0;0.35526400804519653;-0.2508319914340973;1.1184959411621094;0.0;0.0;0.0
2028;0.0;0.0;0.0;0.32793599367141724;-0.24302399158477783;1.1106879711151123;0.0;0.0;0.0
2030;0.0;0.0;0.0;0.3396480083465576;-0.2664479911327362;1.1184959411621094;0.0;0.0;0.0
2032;0.23204399645328522;-0.12224400043487549;0.9769759774208069;0.3474559783935547;-0.2391199916601181;1.1302080154418945;35.279998779296875;22.028125762939453;4.851875305175781
2034;0.0;0.0;0.0;0.3630719780921936;-0.25863999128341675;1.126304030418396;0.0;0.0;0.0
2036;0.0;0.0;0.0;0.37088000774383545;-0.23131199181079865;1.146799921989441;0.0;0.0;0.0
2039;0.0;0.0;0.0;0.3786879777908325;-0.2547360062599182;1.134112000465393;0.0;0.0;0.0
2041;0.23887600004673004;-0.10833600163459778;0.9928359985351562;0.3630719780921936;-0.27425599098205566;1.1145919561386108;33.18000030517578;19.298124313354492;2.121875047683716
2043;0.0;0.0;0.0;0.38942399621009827;-0.24692799150943756;1.1194720268249512;0.0;0.0;0.0
2045;0.0;0.0;0.0;0.3230559825897217;-0.26254400610923767;1.1194720268249512;0.0;0.0;0.0
2047;0.0;0.0;0.0;0.34647998213768005;-0.2508319914340973;1.1194720268249512;0.0;0.0;0.0
2049;0.22203999757766724;-0.1239520013332367;0.9818559885025024;0.3230559825897217;-0.2898719906806946;1.0989760160446167;29.68000030517578;17.408124923706055;-0.328125
2052;0.0;0.0;0.0;0.3113439977169037;-0.2508319914340973;1.0989760160446167;0.0;0.0;0.0
2053;0.0;0.0;0.0;0.3269599974155426;-0.2664479911327362;1.083359956741333;0.0;0.0;0.0
2056;0.0;0.0;0.0;0.30353599786758423;-0.2937760055065155;1.0745760202407837;0.0;0.0;0.0
2058;0.18836799263954163;-0.1407880038022995;0.9635559916496277;0.2996319830417633;-0.2898719906806946;1.09116792678833;28.700000762939453;13.558124542236328;-1.4481250047683716
2060;0.0;0.0;0.0;0.2879199981689453;-0.26254400610923767;1.0989760160446167;0.0;0.0;0.0
2062;0.0;0.0;0.0;0.29572799801826477;-0.24302399158477783;1.1067839860916138;0.0;0.0;0.0
2064;0.0;0.0;0.0;0.2840159833431244;-0.27425599098205566;1.0784800052642822;0.0;0.0;0.0
2066;0.16079600155353546;-0.13639599084854126;0.9616039991378784;0.26449599862098694;-0.2664479911327362;1.115567922592163;28.700000762939453;8.728124618530273;-3.128124952316284
2068;0.0;0.0;0.0;0.2683999836444855;-0.27425599098205566;1.1067839860916138;0.0;0.0;0.0
2070;0.0;0.0;0.0;0.24887999892234802;-0.25863999128341675;1.1194720268249512;0.0;0.0;0.0
2073;0.0;0.0;0.0;0.2566879987716675;-0.2937760055065155;1.1106879711151123;0.0;0.0;0.0
2075;0.14322799444198608;-0.1320039927959442;0.9723399877548218;0.260591983795166;-0.2664479911327362;1.0989760160446167;26.040000915527344;4.668125152587891;-6.418124675750732
2077;0.0;0.0;0.0;0.2654719948768616;-0.2547360062599182;1.101904034614563;0.0;0.0;0.0
2079;0.0;0.0;0.0;0.24985599517822266;-0.2781600058078766;1.1058080196380615;0.0;0.0;0.0
2081;0.0;0.0;0.0;0.24985599517822266;-0.2547360062599182;1.1058080196380615;0.0;0.0;0.0
2083;0.12834399938583374;-0.13932399451732635;0.9696559906005859;0.23814399540424347;-0.28596800565719604;1.10971200466156;21.350000381469727;1.7981250286102295;-9.498125076293945
2085;0.0;0.0;0.0;0.22252799570560455;-0.2547360062599182;1.097999930381775;0.0;0.0;0.0
2088;0.0;0.0;0.0;0.230335995554924;-0.26254400610923767;1.097999930381775;0.0;0.0;0.0
2090;0.0;0.0;0.0;0.2030079960823059;-0.2664479911327362;1.0901919603347778;0.0;0.0;0.0
2092;0.1000399962067604;-0.12809999287128448;0.9616039991378784;0.2030079960823059;-0.2508319914340973;1.097999930381775;16.100000381469727;-1.3518749475479126;-10.058125495910645
2094;0.0;0.0;0.0;0.20983999967575073;-0.25863999128341675;1.0784800052642822;0.0;0.0;0.0
2096;0.0;0.0;0.0;0.22155199944972992;-0.24692799150943756;1.0784800052642822;0.0;0.0;0.0
2098;0.0;0.0;0.0;0.18251200020313263;-0.25863999128341675;1.0706720352172852;0.0;0.0;0.0
2100;0.08515600115060806;-0.12175599485635757;0.9425719976425171;0.19422399997711182;-0.25863999128341675;1.0745760202407837;10.15000057220459;-3.73187518119812;-9.428125381469727
2102;0.0;0.0;0.0;0.18251200020313263;-0.26254400610923767;1.0540800094604492;0.0;0.0;0.0
2105;0.0;0.0;0.0;0.20983999967575073;-0.2664479911327362;1.0462720394134521;0.0;0.0;0.0
2107;0.0;0.0;0.0;0.23716799914836884;-0.2898719906806946;1.0062559843063354;0.0;0.0;0.0
2109;0.09027999639511108;-0.14054399728775024;0.9088999629020691;0.22935999929904938;-0.29767999053001404;1.0052800178527832;5.109999656677246;-2.3318750858306885;-8.23812484741211
2111;0.0;0.0;0.0;0.22155199944972992;-0.2781600058078766;1.017967939376831;0.0;0.0;0.0
2113;0.0;0.0;0.0;0.1903200000524521;-0.2937760055065155;1.010159969329834;0.0;0.0;0.0
2115;0.0;0.0;0.0;0.20983999967575073;-0.3093920052051544;0.9974719882011414;0.0;0.0;0.0
2117;0.09662400186061859;-0.16787199676036835;0.8783999681472778;0.20983999967575073;-0.29767999053001404;0.985759973526001;3.430000066757202;3.128124952316284;-6.348124980926514
2120;0.0;0.0;0.0;0.1903200000524521;-0.3601439893245697;1.010159969329834;0.0;0.0;0.0
2122;0.0;0.0;0.0;0.15908800065517426;-0.3484320044517517;1.017967939376831;0.0;0.0;0.0
2124;0.0;0.0;0.0;0.18251200020313263;-0.3445279896259308;1.0013760328292847;0.0;0.0;0.0
2126;0.06588000059127808;-0.19812799990177155;0.8752279877662659;0.17470400035381317;-0.3484320044517517;1.0013760328292847;5.039999961853027;9.008125305175781;-2.8481249809265137
2128;0.0;0.0;0.0;0.1600639969110489;-0.35624000430107117;1.010159969329834;0.0;0.0;0.0
2130;0.0;0.0;0.0;0.14444799721240997;-0.40699198842048645;1.010159969329834;0.0;0.0;0.0
2132;0.0;0.0;0.0;0.16299200057983398;-0.387472003698349;1.0140639543533325;0.0;0.0;0.0
2134;0.035868000239133835;-0.23594799637794495;0.8801079988479614;0.14054399728775024;-0.39528000354766846;1.010159969329834;8.610000610351562;13.48812484741211;-0.8881250619888306
2137;0.0;0.0;0.0;0.13663999736309052;-0.39137598872184753;1.0296800136566162;0.0;0.0;0.0
2139;0.0;0.0;0.0;0.10931199789047241;-0.4147999882698059;1.0140639543533325;0.0;0.0;0.0
2141;0.0;0.0;0.0;0.14054399728775024;-0.4421280026435852;1.010159969329834;0.0;0.0;0.0
2143;0.022447999566793442;-0.28938400745391846;0.8837679624557495;0.1327359974384308;-0.4421280026435852;1.0257760286331177;13.440000534057617;16.848125457763672;-0.18812499940395355
2145;0.0;0.0;0.0;0.15615999698638916;-0.4421280026435852;1.0531039237976074;0.0;0.0;0.0
2147;0.0;0.0;0.0;0.13663999736309052;-0.44603198766708374;1.0130879878997803;0.0;0.0;0.0
2149;0.0;0.0;0.0;0.15225599706172943;-0.4655520021915436;1.0491999387741089;0.0;0.0;0.0
2151;0.02391199953854084;-0.3140279948711395;0.9057279825210571;0.14054399728775024;-0.4577440023422241;1.0696959495544434;17.71000099182129;18.878124237060547;1.421875
2153;0.0;0.0;0.0;0.1327359974384308;-0.4655520021915436;1.0814080238342285;0.0;0.0;0.0
2156;0.0;0.0;0.0;0.11711999773979187;-0.47336000204086304;1.0823839902877808;0.0;0.0;0.0
2158;0.0;0.0;0.0;0.0907679945230484;-0.5045920014381409;1.0862879753112793;0.0;0.0;0.0
2160;-0.008295999839901924;-0.3398919999599457;0.9433040022850037;0.10540799796581268;-0.48507198691368103;1.0823839902877808;18.479999542236328;19.438125610351562;2.8218750953674316
2162;0.0;0.0;0.0;0.08588799834251404;-0.4928799867630005;1.0784800052642822;0.0;0.0;0.0
2164;0.0;0.0;0.0;0.062463998794555664;-0.5084959864616394;1.1028800010681152;0.0;0.0;0.0
2166;0.0;0.0;0.0;0.054655998945236206;-0.5397279858589172;1.115567922592163;0.0;0.0;0.0
2168;-0.057583998888731;-0.3757599890232086;0.9745360016822815;0.04684799909591675;-0.5553439855575562;1.1272799968719482;14.84000015258789;18.108125686645508;2.611875057220459
2171;0.0;0.0;0.0;0.023423999547958374;-0.5397279858589172;1.1272799968719482;0.0;0.0;0.0
2173;0.0;0.0;0.0;0.023423999547958374;-0.5592479705810547;1.1194720268249512;0.0;0.0;0.0
2175;0.0;0.0;0.0;0.003903999924659729;-0.5553439855575562;1.1194720268249512;0.0;0.0;0.0
2177;-0.0954039990901947;-0.4152880012989044;0.9901520013809204;0.007807999849319458;-0.5475360155105591;1.1350879669189453;8.960000038146973;14.8881254196167;0.44187501072883606
2179;0.0;0.0;0.0;0.031231999397277832;-0.5748639702796936;1.1360639333724976;0.0;0.0;0.0
2181;0.0;0.0;0.0;0.015615999698638916;-0.5982879996299744;1.1194720268249512;0.0;0.0;0.0
2183;0.0;0.0;0.0;-0.003903999924659729;-0.5943840146064758;1.1233760118484497;0.0;0.0;0.0
2185;-0.12029200047254562;-0.4474959969520569;0.9950319528579712;-0.003903999924659729;-0.5787680149078369;1.1438720226287842;2.6600000858306885;11.948124885559082;-3.6881251335144043
2188;0.0;0.0;0.0;0.007807999849319458;-0.5826719999313354;1.1360639333724976;0.0;0.0;0.0
2190;0.0;0.0;0.0;-0.003903999924659729;-0.6021919846534729;1.115567922592163;0.0;0.0;0.0
2192;0.0;0.0;0.0;-0.03513599932193756;-0.5826719999313354;1.0950720310211182;0.0;0.0;0.0
2194;-0.13566400110721588;-0.4501799941062927;0.9938119649887085;-0.03903999924659729;-0.5904799699783325;1.115567922592163;-1.6800000667572021;8.798125267028809;-8.72812557220459
2196;0.0;0.0;0.0;-0.03903999924659729;-0.5787680149078369;1.115567922592163;0.0;0.0;0.0
2198;0.0;0.0;0.0;-0.03903999924659729;-0.6021919846534729;1.0989760160446167;0.0;0.0;0.0
2200;0.0;0.0;0.0;-0.031231999397277832;-0.5904799699783325;1.1106879711151123;0.0;0.0;0.0
2202;-0.1525000035762787;-0.4560360014438629;0.9869799613952637;-0.019519999623298645;-0.6100000143051147;1.1272799968719482;-3.919999837875366;5.788125038146973;-13.06812572479248
2205;0.0;0.0;0.0;-0.054655998945236206;-0.5670560002326965;1.0950720310211182;0.0;0.0;0.0
2207;0.0;0.0;0.0;-0.0663679987192154;-0.5514400005340576;1.115567922592163;0.0;0.0;0.0
2209;0.0;0.0;0.0;-0.054655998945236206;-0.5787680149078369;1.0872639417648315;0.0;0.0;0.0
2211;-0.16884799301624298;-0.4409079849720001;0.966484010219574;-0.058559998869895935;-0.5826719999313354;1.083359956741333;-4.760000228881836;2.778125047683716;-14.81812572479248
2213;0.0;0.0;0.0;-0.062463998794555664;-0.5592479705810547;1.1067839860916138;0.0;0.0;0.0
2215;0.0;0.0;0.0;-0.019519999623298645;-0.563152015209198;1.0872639417648315;0.0;0.0;0.0
2217;0.0;0.0;0.0;-0.054655998945236206;-0.5358240008354187;1.0540800094604492;0.0;0.0;0.0
2219;-0.17202000319957733;-0.4130919873714447;0.9430599808692932;-0.062463998794555664;-0.5436319708824158;1.066767930984497;-4.970000267028809;0.8181250095367432;-13.698124885559082
2222;0.0;0.0;0.0;-0.10833600163459778;-0.5475360155105591;1.0628639459609985;0.0;0.0;0.0
2224;0.0;0.0;0.0;-0.10833600163459778;-0.5436319708824158;1.0501760244369507;0.0;0.0;0.0
2226;0.0;0.0;0.0;-0.09662400186061859;-0.5514400005340576;1.0745760202407837;0.0;0.0;0.0
2228;-0.22448000311851501;-0.41211599111557007;0.9332999587059021;-0.10443200170993805;-0.5358240008354187;1.083359956741333;-5.670000076293945;1.3781250715255737;-13.348125457763672
2230;0.0;0.0;0.0;-0.13176000118255615;-0.5553439855575562;1.09116792678833;0.0;0.0;0.0
2232;0.0;0.0;0.0;-0.14347200095653534;-0.5397279858589172;1.1194720268249512;0.0;0.0;0.0
2234;0.0;0.0;0.0;-0.18251200020313263;-0.5319200158119202;1.1360639333724976;0.0;0.0;0.0
2236;-0.25742000341415405;-0.39430397748947144;0.9723399877548218;-0.16299200057983398;-0.5163040161132812;1.1311839818954468;-6.930000305175781;1.168125033378601;-12.858125686645508
2239;0.0;0.0;0.0;-0.18251200020313263;-0.5202080011367798;1.1438720226287842;0.0;0.0;0.0
2241;0.0;0.0;0.0;-0.21374399960041046;-0.5006880164146423;1.1516799926757812;0.0;0.0;0.0
2243;0.0;0.0;0.0;-0.20983999967575073;-0.5084959864616394;1.1555839776992798;0.0;0.0;0.0
2245;-0.3315959870815277;-0.37722399830818176;1.0218719244003296;-0.2723039984703064;-0.5163040161132812;1.1594879627227783;-10.149999618530273;1.3781250715255737;-13.97812557220459
2247;0.0;0.0;0.0;-0.2908479869365692;-0.5006880164146423;1.199504017829895;0.0;0.0;0.0
2249;0.0;0.0;0.0;-0.3142719864845276;-0.5202080011367798;1.2034080028533936;0.0;0.0;0.0
2251;0.0;0.0;0.0;-0.3211039900779724;-0.4967840015888214;1.2160959243774414;0.0;0.0;0.0
2253;-0.4316360056400299;-0.3777119815349579;1.0648159980773926;-0.32598400115966797;-0.5045920014381409;1.199504017829895;-14.210000038146973;1.5881251096725464;-19.43812370300293
2256;0.0;0.0;0.0;-0.33671998977661133;-0.5241119861602783;1.231711983680725;0.0;0.0;0.0
2258;0.0;0.0;0.0;-0.34062400460243225;-0.5163040161132812;1.2160959243774414;0.0;0.0;0.0
2260;0.0;0.0;0.0;-0.34062400460243225;-0.47336000204086304;1.2160959243774414;0.0;0.0;0.0
2262;-0.464819997549057;-0.3642919957637787;1.087019920349121;-0.3416000008583069;-0.46164798736572266;1.2200000286102295;-16.869998931884766;-2.4018750190734863;-26.998125076293945
2264;0.0;0.0;0.0;-0.38844799995422363;-0.47336000204086304;1.2082879543304443;0.0;0.0;0.0
2266;0.0;0.0;0.0;-0.3572160005569458;-0.4577440023422241;1.2121919393539429;0.0;0.0;0.0
2268;0.0;0.0;0.0;-0.3572160005569458;-0.4655520021915436;1.1887680292129517;0.0;0.0;0.0
2270;-0.4772639870643616;-0.32427600026130676;1.075551986694336;-0.36111998558044434;-0.4304159879684448;1.2043839693069458;-18.059999465942383;-9.191875457763672;-33.01812744140625
2273;0.0;0.0;0.0;-0.3533119857311249;-0.44993600249290466;1.1838879585266113;0.0;0.0;0.0
2275;0.0;0.0;0.0;-0.3386719822883606;-0.4304159879684448;1.1838879585266113;0.0;0.0;0.0
2277;0.0;0.0;0.0;-0.3533119857311249;-0.40699198842048645;1.1643680334091187;0.0;0.0;0.0
2279;-0.4667719900608063;-0.2874319851398468;1.0513960123062134;-0.3230559825897217;-0.4147999882698059;1.1926720142364502;-18.34000015258789;-16.821874618530273;-38.618125915527344
2281;0.0;0.0;0.0;-0.3113439977169037;-0.3757599890232086;1.1760799884796143;0.0;0.0;0.0
2283;0.0;0.0;0.0;-0.29572799801826477;-0.37966400384902954;1.1838879585266113;0.0;0.0;0.0
2285;0.0;0.0;0.0;-0.25278398394584656;-0.36795198917388916;1.1682720184326172;0.0;0.0;0.0
2287;-0.419435977935791;-0.253028005361557;1.0435879230499268;-0.27620798349380493;-0.3640480041503906;1.1643680334091187;-18.40999984741211;-23.681875228881836;-42.39812469482422
2290;0.0;0.0;0.0;-0.28011199831962585;-0.3445279896259308;1.1760799884796143;0.0;0.0;0.0
2292;0.0;0.0;0.0;-0.2723039984703064;-0.3601439893245697;1.1633919477462769;0.0;0.0;0.0
2294;0.0;0.0;0.0;-0.2683999836444855;-0.35624000430107117;1.2043839693069458;0.0;0.0;0.0
2296;-0.4030880033969879;-0.21423199772834778;1.0467599630355835;-0.29572799801826477;-0.32500800490379333;1.1721760034561157;-18.40999984741211;-27.951875686645508;-43.728126525878906
2298;0.0;0.0;0.0;-0.2879199981689453;-0.29767999053001404;1.1926720142364502;0.0;0.0;0.0
2300;0.0;0.0;0.0;-0.27620798349380493;-0.2664479911327362;1.1965759992599487;0.0;0.0;0.0
2302;0.0;0.0;0.0;-0.3113439977169037;-0.29767999053001404;1.1965759992599487;0.0;0.0;0.0
2304;-0.4240719974040985;-0.1546960026025772;1.0533479452133179;-0.3152479827404022;-0.23521599173545837;1.1965759992599487;-18.690000534057617;-30.47187614440918;-43.728126525878906
2307;0.0;0.0;0.0;-0.30353599786758423;-0.24302399158477783;1.1965759992599487;0.0;0.0;0.0
2309;0.0;0.0;0.0;-0.3386719822883606;-0.23521599173545837;1.2043839693069458;0.0;0.0;0.0
2311;0.0;0.0;0.0;-0.3269599974155426;-0.20398399233818054;1.1926720142364502;0.0;0.0;0.0
2313;-0.45115599036216736;-0.08832799643278122;1.0574959516525269;-0.3455039858818054;-0.19227199256420135;1.2043839693069458;-18.829999923706055;-33.34187316894531;-42.328125
2315;0.0;0.0;0.0;-0.32598400115966797;-0.16494399309158325;1.1956000328063965;0.0;0.0;0.0
2317;0.0;0.0;0.0;-0.33769598603248596;-0.16494399309158325;1.2034080028533936;0.0;0.0;0.0
2319;0.0;0.0;0.0;-0.37966400384902954;-0.17665599286556244;1.199504017829895;0.0;0.0;0.0
2321;-0.480679988861084;-0.03928399831056595;1.0623760223388672;-0.3484320044517517;-0.14932799339294434;1.182911992073059;-19.459999084472656;-37.47187423706055;-39.24812698364258
2324;0.0;0.0;0.0;-0.39137598872184753;-0.12590399384498596;1.182911992073059;0.0;0.0;0.0
2326;0.0;0.0;0.0;-0.3718560039997101;-0.1454239934682846;1.175104022026062;0.0;0.0;0.0
2328;0.0;0.0;0.0;-0.3835679888725281;-0.1454239934682846;1.1672959327697754;0.0;0.0;0.0
2330;-0.4875119924545288;-0.00024399999529123306;1.0496879816055298;-0.3835679888725281;-0.0907679945230484;1.1790080070495605;-20.440000534057617;-41.951873779296875;-36.09812545776367
2332;0.0;0.0;0.0;-0.36502400040626526;-0.1180959939956665;1.1594879627227783;0.0;0.0;0.0
2334;0.0;0.0;0.0;-0.3689279854297638;-0.1180959939956665;1.1682720184326172;0.0;0.0;0.0
2336;0.0;0.0;0.0;-0.3386719822883606;-0.10638399422168732;1.1477760076522827;0.0;0.0;0.0
2338;-0.4667719900608063;0.022447999566793442;1.026263952255249;-0.3542879819869995;-0.09857599437236786;1.1516799926757812;-21.209999084472656;-44.89187240600586;-32.73812484741211
2341;0.0;0.0;0.0;-0.31915199756622314;-0.1180959939956665;1.1594879627227783;0.0;0.0;0.0
2343;0.0;0.0;0.0;-0.29572799801826477;-0.11028799414634705;1.139967918395996;0.0;0.0;0.0
2345;0.0;0.0;0.0;-0.31915199756622314;-0.12590399384498596;1.1360639333724976;0.0;0.0;0.0
2347;-0.44139599800109863;0.01756799966096878;1.0082080364227295;-0.31915199756622314;-0.1454239934682846;1.1067839860916138;-21.559999465942383;-44.541873931884766;-30.568124771118164
2349;0.0;0.0;0.0;-0.3113439977169037;-0.12199999392032623;1.1311839818954468;0.0;0.0;0.0
2351;0.0;0.0;0.0;-0.3152479827404022;-0.1180959939956665;1.1477760076522827;0.0;0.0;0.0
2353;0.0;0.0;0.0;-0.2879199981689453;-0.12199999392032623;1.115567922592163;0.0;0.0;0.0
2355;-0.42626798152923584;-0.0024399999529123306;0.9916160106658936;-0.29572799801826477;-0.14151999354362488;1.1194720268249512;-22.119998931884766;-41.39187240600586;-29.658124923706055
2358;0.0;0.0;0.0;-0.30353599786758423;-0.14932799339294434;1.1311839818954468;0.0;0.0;0.0
2360;0.0;0.0;0.0;-0.3152479827404022;-0.14932799339294434;1.1028800010681152;0.0;0.0;0.0
2362;0.0;0.0;0.0;-0.27620798349380493;-0.18836799263954163;1.1311839818954468;0.0;0.0;0.0
2364;-0.42138800024986267;-0.030743999406695366;0.9930799603462219;-0.29572799801826477;-0.16494399309158325;1.1233760118484497;-22.399999618530273;-37.47187423706055;-28.328125
2366;0.0;0.0;0.0;-0.30646398663520813;-0.14932799339294434;1.1389919519424438;0.0;0.0;0.0
