Timestamp(ms);LG-Accel x(g);LG-Accel y(g);LG-Accel z(g);HG-Accel x(g);HG-Accel y(g);HG-Accel z(g);Gyro x(dps);Gyro y(dps);Gyro z(dps)
66;0.0;0.0;0.0;0.23521599173545837;0.019519999623298645;1.140944004058838;0.0;0.0;0.0
68;0.0;0.0;0.0;0.24302399158477783;0.027327999472618103;1.1448479890823364;0.0;0.0;0.0
70;0.0;0.0;0.0;0.25863999128341675;0.03903999924659729;1.1165440082550049;0.0;0.0;0.0
72;0.0;0.0;0.0;0.2898719906806946;0.04294399917125702;1.1204479932785034;0.0;0.0;0.0
74;0.0;0.0;0.0;0.2547360062599182;0.05075199902057648;1.132159948348999;0.0;0.0;0.0
77;0.0;0.0;0.0;0.24107199907302856;0.03415999934077263;1.1233760118484497;0.0;0.0;0.0
79;0.0;0.0;0.0;0.22155199944972992;0.03806399926543236;1.139967918395996;0.0;0.0;0.0
81;0.0;0.0;0.0;0.20983999967575073;0.02635199949145317;1.1555839776992798;0.0;0.0;0.0
83;0.10833600163459778;0.17641200125217438;1.0074759721755981;0.1903200000524521;0.053679998964071274;1.1477760076522827;0.0;0.0;0.0
85;0.0;0.0;0.0;0.1668960005044937;0.045871999114751816;1.1477760076522827;0.0;0.0;0.0
87;0.0;0.0;0.0;0.18641600012779236;0.07710400223731995;1.1682720184326172;0.0;0.0;0.0
89;0.0;0.0;0.0;0.17080000042915344;0.0302559994161129;1.1594879627227783;0.0;0.0;0.0
91;0.06319599598646164;0.18592800199985504;1.026263952255249;0.17470400035381317;0.049775999039411545;1.1555839776992798;0.0;0.0;0.0
94;0.0;0.0;0.0;0.187391996383667;0.03415999934077263;1.1633919477462769;0.0;0.0;0.0
96;0.0;0.0;0.0;0.16787199676036835;0.049775999039411545;1.1428959369659424;0.0;0.0;0.0
98;0.0;0.0;0.0;0.1600639969110489;0.04196799919009209;1.150704026222229;0.0;0.0;0.0
100;0.03952799737453461;0.1710439920425415;1.0296800136566162;0.13663999736309052;0.03806399926543236;1.150704026222229;0.0;0.0;0.0
102;0.0;0.0;0.0;0.10150399804115295;0.0302559994161129;1.146799921989441;0.0;0.0;0.0
104;0.0;0.0;0.0;0.10150399804115295;0.010735999792814255;1.1546080112457275;0.0;0.0;0.0
106;0.0;0.0;0.0;0.04001599922776222;0.018543999642133713;1.1672959327697754;0.0;0.0;0.0
108;-0.03684400022029877;0.1390800029039383;1.0287039279937744;0.05172799900174141;-0.01268799975514412;1.1712000370025635;0.0;0.0;0.0
111;0.0;0.0;0.0;0.03513599932193756;0.010735999792814255;1.1643680334091187;0.0;0.0;0.0
113;0.0;0.0;0.0;0.015615999698638916;-0.01659199967980385;1.1799839735031128;0.0;0.0;0.0
115;0.0;0.0;0.0;0.015615999698638916;-0.028303999453783035;1.1926720142364502;0.0;0.0;0.0
117;-0.10394399613142014;0.10077200084924698;1.0518839359283447;0.0;-0.020495999604463577;1.2004799842834473;0.0;0.0;0.0
119;0.0;0.0;0.0;-0.023423999547958374;-0.0634399950504303;1.1838879585266113;0.0;0.0;0.0
121;0.0;0.0;0.0;-0.05075199902057648;-0.04782399907708168;1.1965759992599487;0.0;0.0;0.0
123;0.0;0.0;0.0;-0.054655998945236206;-0.09467199444770813;1.1887680292129517;0.0;0.0;0.0
125;-0.1622599959373474;0.06831999868154526;1.069451928138733;-0.031231999397277832;-0.07905599474906921;1.2004799842834473;-12.818750381469727;14.630000114440918;16.30124855041504
128;0.0;0.0;0.0;-0.05075199902057648;-0.07124799489974976;1.1887680292129517;0.0;0.0;0.0
130;0.0;0.0;0.0;-0.03903999924659729;-0.10638399422168732;1.1799839735031128;0.0;0.0;0.0
132;0.0;0.0;0.0;-0.05075199902057648;-0.09467199444770813;1.1721760034561157;0.0;0.0;0.0
134;-0.1705559939146042;0.043431997299194336;1.0516400337219238;-0.03513599932193756;-0.10247999429702759;1.1643680334091187;-10.088749885559082;-3.009999990463257;16.1612491607666
136;0.0;0.0;0.0;-0.03513599932193756;-0.10247999429702759;1.1721760034561157;0.0;0.0;0.0
138;0.0;0.0;0.0;-0.019519999623298645;-0.12199999392032623;1.1594879627227783;0.0;0.0;0.0
140;0.0;0.0;0.0;-0.015615999698638916;-0.1180959939956665;1.1438720226287842;0.0;0.0;0.0
142;-0.14151999354362488;0.028547998517751694;1.0150399208068848;0.023423999547958374;-0.09857599437236786;1.1116639375686646;-6.238749980926514;-19.31999969482422;15.601250648498535
145;0.0;0.0;0.0;0.003903999924659729;-0.08686399459838867;1.1350879669189453;0.0;0.0;0.0
147;0.0;0.0;0.0;0.031231999397277832;-0.07905599474906921;1.1067839860916138;0.0;0.0;0.0
149;0.0;0.0;0.0;0.015615999698638916;-0.10638399422168732;1.1116639375686646;0.0;0.0;0.0
151;-0.09320800006389618;0.03903999924659729;0.9747799634933472;0.062463998794555664;-0.07905599474906921;1.0989760160446167;-2.9487500190734863;-31.56999969482422;15.461250305175781
153;0.0;0.0;0.0;0.07027199864387512;-0.08686399459838867;1.0706720352172852;0.0;0.0;0.0
155;0.0;0.0;0.0;0.10150399804115295;-0.08686399459838867;1.09116792678833;0.0;0.0;0.0
157;0.0;0.0;0.0;0.14054399728775024;-0.07124799489974976;1.0462720394134521;0.0;0.0;0.0
159;-0.015615999698638916;0.06173199787735939;0.9335439801216125;0.16396799683570862;-0.05953599885106087;1.0140639543533325;-3.158750057220459;-38.5;17.841249465942383
162;0.0;0.0;0.0;0.20203199982643127;-0.05172799900174141;1.010159969329834;0.0;0.0;0.0
164;0.0;0.0;0.0;0.20203199982643127;-0.05563199892640114;0.9974719882011414;0.0;0.0;0.0
166;0.0;0.0;0.0;0.2176479995250702;-0.07515199482440948;0.9769759774208069;0.0;0.0;0.0
168;0.09125600010156631;0.07759200036525726;0.8793759942054749;0.22935999929904938;-0.05172799900174141;1.0013760328292847;-6.09874963760376;-35.41999816894531;20.57124900817871
170;0.0;0.0;0.0;0.25278398394584656;-0.05172799900174141;0.9574559926986694;0.0;0.0;0.0
172;0.0;0.0;0.0;0.28011199831962585;-0.04391999915242195;0.985759973526001;0.0;0.0;0.0
174;0.0;0.0;0.0;0.31915199756622314;-0.028303999453783035;0.9818559885025024;0.0;0.0;0.0
177;0.1676279902458191;0.08417999744415283;0.8415560126304626;0.33476799726486206;-0.05563199892640114;0.9652639627456665;-9.668750762939453;-22.959999084472656;22.951250076293945
179;0.0;0.0;0.0;0.3425759971141815;-0.03611199930310249;0.9652639627456665;0.0;0.0;0.0
181;0.0;0.0;0.0;0.34647998213768005;-0.032207999378442764;0.9691680073738098;0.0;0.0;0.0
183;0.0;0.0;0.0;0.3425759971141815;-0.032207999378442764;0.9808799624443054;0.0;0.0;0.0
185;0.22155199944972992;0.09882000088691711;0.8508279919624329;0.33476799726486206;-0.01659199967980385;1.0140639543533325;-13.588749885559082;-7.070000171661377;24.14124870300293
187;0.0;0.0;0.0;0.3542879819869995;-0.01659199967980385;1.017967939376831;0.0;0.0;0.0
189;0.0;0.0;0.0;0.3699039816856384;-0.01268799975514412;1.0052800178527832;0.0;0.0;0.0
191;0.0;0.0;0.0;0.350383996963501;-0.0009759999811649323;1.0140639543533325;0.0;0.0;0.0
194;0.2332639992237091;0.10516399890184402;0.8852319717407227;0.33086398243904114;-0.032207999378442764;1.0296800136566162;-18.48874855041504;7.980000019073486;24.14124870300293
196;0.0;0.0;0.0;0.31915199756622314;-0.032207999378442764;1.0540800094604492;0.0;0.0;0.0
198;0.0;0.0;0.0;0.3269599974155426;-0.03611199930310249;1.0540800094604492;0.0;0.0;0.0
200;0.0;0.0;0.0;0.34647998213768005;-0.05953599885106087;1.0706720352172852;0.0;0.0;0.0
202;0.21423199772834778;0.09101200103759766;0.9189040064811707;0.2996319830417633;-0.03611199930310249;1.0706720352172852;-22.89875030517578;20.09000015258789;21.69124984741211
204;0.0;0.0;0.0;0.3152479827404022;-0.05563199892640114;1.0823839902877808;0.0;0.0;0.0
206;0.0;0.0;0.0;0.2723039984703064;-0.0634399950504303;1.1067839860916138;0.0;0.0;0.0
208;0.0;0.0;0.0;0.29572799801826477;-0.04782399907708168;1.0950720310211182;0.0;0.0;0.0
211;0.16957999765872955;0.06539200246334076;0.958187997341156;0.24107199907302856;-0.07905599474906921;1.1233760118484497;-25.068748474121094;28.420000076293945;17.421249389648438
213;0.0;0.0;0.0;0.22155199944972992;-0.07905599474906921;1.1067839860916138;0.0;0.0;0.0
215;0.0;0.0;0.0;0.2332639992237091;-0.03611199930310249;1.139967918395996;0.0;0.0;0.0
217;0.0;0.0;0.0;0.21374399960041046;-0.07905599474906921;1.1350879669189453;0.0;0.0;0.0
219;0.10662800073623657;0.05538799986243248;1.0084519386291504;0.19422399997711182;-0.06734399497509003;1.1721760034561157;-24.438749313354492;30.310001373291016;12.801250457763672
221;0.0;0.0;0.0;0.17080000042915344;-0.10638399422168732;1.1721760034561157;0.0;0.0;0.0
223;0.0;0.0;0.0;0.16787199676036835;-0.08295999467372894;1.2004799842834473;0.0;0.0;0.0
225;0.0;0.0;0.0;0.18251200020313263;-0.08686399459838867;1.1926720142364502;0.0;0.0;0.0
228;0.052947998046875;0.046115998178720474;1.0538359880447388;0.17080000042915344;-0.08686399459838867;1.2170720100402832;-22.408748626708984;24.149999618530273;9.93125057220459
230;0.0;0.0;0.0;0.18251200020313263;-0.10247999429702759;1.2004799842834473;0.0;0.0;0.0
232;0.0;0.0;0.0;0.17080000042915344;-0.07124799489974976;1.2170720100402832;0.0;0.0;0.0
234;0.0;0.0;0.0;0.19422399997711182;-0.11419199407100677;1.2209759950637817;0.0;0.0;0.0
236;0.05660799890756607;0.031231999397277832;1.0799440145492554;0.17470400035381317;-0.11419199407100677;1.1965759992599487;-20.16874885559082;15.260000228881836;8.741250038146973
238;0.0;0.0;0.0;0.2176479995250702;-0.10638399422168732;1.2209759950637817;0.0;0.0;0.0
240;0.0;0.0;0.0;0.20983999967575073;-0.10638399422168732;1.2004799842834473;0.0;0.0;0.0
242;0.0;0.0;0.0;0.2176479995250702;-0.10638399422168732;1.2248799800872803;0.0;0.0;0.0
245;0.0907679945230484;0.008051999844610691;1.0831159353256226;0.21374399960041046;-0.14932799339294434;1.2248799800872803;-17.928749084472656;8.539999961853027;8.18125057220459
247;0.0;0.0;0.0;0.2449759989976883;-0.12590399384498596;1.2082879543304443;0.0;0.0;0.0
249;0.0;0.0;0.0;0.2566879987716675;-0.12590399384498596;1.2082879543304443;0.0;0.0;0.0
251;0.0;0.0;0.0;0.2683999836444855;-0.1454239934682846;1.2170720100402832;0.0;0.0;0.0
253;0.1424959897994995;-0.0056119998916983604;1.0809199810028076;0.2996319830417633;-0.14932799339294434;1.2248799800872803;-15.338749885559082;5.599999904632568;8.18125057220459
255;0.0;0.0;0.0;0.30353599786758423;-0.13761599361896515;1.2209759950637817;0.0;0.0;0.0
257;0.0;0.0;0.0;0.30353599786758423;-0.15323199331760406;1.2082879543304443;0.0;0.0;0.0
259;0.0;0.0;0.0;0.3269599974155426;-0.16494399309158325;1.2414720058441162;0.0;0.0;0.0
262;0.18714798986911774;-0.010003999806940556;1.0840920209884644;0.34647998213768005;-0.1298079937696457;1.2248799800872803;-12.95875072479248;5.739999771118164;8.18125057220459
264;0.0;0.0;0.0;0.3386719822883606;-0.1298079937696457;1.2082879543304443;0.0;0.0;0.0
266;0.0;0.0;0.0;0.3152479827404022;-0.1454239934682846;1.2209759950637817;0.0;0.0;0.0
268;0.0;0.0;0.0;0.3386719822883606;-0.1180959939956665;1.2170720100402832;0.0;0.0;0.0
270;0.21569599211215973;-0.004635999910533428;1.0897040367126465;0.350383996963501;-0.13371199369430542;1.2209759950637817;-12.608750343322754;8.260000228881836;8.881250381469727
272;0.0;0.0;0.0;0.34647998213768005;-0.14151999354362488;1.2326879501342773;0.0;0.0;0.0
274;0.0;0.0;0.0;0.350383996963501;-0.14932799339294434;1.2248799800872803;0.0;0.0;0.0
276;0.0;0.0;0.0;0.3425759971141815;-0.1571359932422638;1.2365919351577759;0.0;0.0;0.0
279;0.22155199944972992;-0.021715998649597168;1.095315933227539;0.350383996963501;-0.16103999316692352;1.2326879501342773;-13.378750801086426;11.970000267028809;8.461250305175781
281;0.0;0.0;0.0;0.350383996963501;-0.17665599286556244;1.2287839651107788;0.0;0.0;0.0
283;0.0;0.0;0.0;0.3269599974155426;-0.17665599286556244;1.2365919351577759;0.0;0.0;0.0
285;0.0;0.0;0.0;0.3152479827404022;-0.18055999279022217;1.2326879501342773;0.0;0.0;0.0
287;0.20325200259685516;-0.038307998329401016;1.105563998222351;0.30353599786758423;-0.16884799301624298;1.2287839651107788;-14.148750305175781;15.329999923706055;7.551249980926514
289;0.0;0.0;0.0;0.2879199981689453;-0.2000799924135208;1.2287839651107788;0.0;0.0;0.0
291;0.0;0.0;0.0;0.29572799801826477;-0.18055999279022217;1.2531839609146118;0.0;0.0;0.0
293;0.0;0.0;0.0;0.2840159833431244;-0.2000799924135208;1.2453759908676147;0.0;0.0;0.0
296;0.16250400245189667;-0.07246799767017365;1.10971200466156;0.29182398319244385;-0.2391199916601181;1.2609919309616089;-13.938750267028809;14.700000762939453;6.361249923706055
298;0.0;0.0;0.0;0.27620798349380493;-0.2391199916601181;1.2326879501342773;0.0;0.0;0.0
300;0.0;0.0;0.0;0.29182398319244385;-0.2235039919614792;1.2453759908676147;0.0;0.0;0.0
302;0.0;0.0;0.0;0.2879199981689453;-0.21959999203681946;1.2326879501342773;0.0;0.0;0.0
304;0.15737999975681305;-0.09930799901485443;1.1111760139465332;0.28011199831962585;-0.24692799150943756;1.2453759908676147;-12.048749923706055;10.430000305175781;6.011250019073486
306;0.0;0.0;0.0;0.24887999892234802;-0.25863999128341675;1.2326879501342773;0.0;0.0;0.0
308;0.0;0.0;0.0;0.260591983795166;-0.2508319914340973;1.2082879543304443;0.0;0.0;0.0
310;0.0;0.0;0.0;0.28011199831962585;-0.25863999128341675;1.2082879543304443;0.0;0.0;0.0
313;0.1525000035762787;-0.12419600039720535;1.0862879753112793;0.28011199831962585;-0.2781600058078766;1.2004799842834473;-9.108750343322754;4.690000057220459;5.871249675750732
315;0.0;0.0;0.0;0.27620798349380493;-0.26254400610923767;1.2170720100402832;0.0;0.0;0.0
317;0.0;0.0;0.0;0.29182398319244385;-0.25863999128341675;1.2121919393539429;0.0;0.0;0.0
319;0.0;0.0;0.0;0.2723039984703064;-0.2781600058078766;1.2004799842834473;0.0;0.0;0.0
321;0.16128399968147278;-0.1424959897994995;1.0731120109558105;0.27620798349380493;-0.28596800565719604;1.2082879543304443;-5.608749866485596;-0.8399999737739563;5.941249847412109
323;0.0;0.0;0.0;0.30743998289108276;-0.2664479911327362;1.1887680292129517;0.0;0.0;0.0
325;0.0;0.0;0.0;0.30743998289108276;-0.2781600058078766;1.2043839693069458;0.0;0.0;0.0
327;0.0;0.0;0.0;0.33476799726486206;-0.2508319914340973;1.1760799884796143;0.0;0.0;0.0
330;0.1844639927148819;-0.1512800008058548;1.056764006614685;0.3230559825897217;-0.28596800565719604;1.1594879627227783;-2.8787500858306885;-6.720000267028809;5.171249866485596
332;0.0;0.0;0.0;0.3269599974155426;-0.28596800565719604;1.1594879627227783;0.0;0.0;0.0
334;0.0;0.0;0.0;0.3386719822883606;-0.2820639908313751;1.139967918395996;0.0;0.0;0.0
336;0.0;0.0;0.0;0.35819199681282043;-0.3093920052051544;1.1272799968719482;0.0;0.0;0.0
338;0.2227720022201538;-0.15786799788475037;1.0135760307312012;0.3659999966621399;-0.3093920052051544;1.1067839860916138;0.27125000953674316;-10.359999656677246;2.861250162124634
340;0.0;0.0;0.0;0.3816159963607788;-0.30158400535583496;1.1028800010681152;0.0;0.0;0.0
342;0.0;0.0;0.0;0.37380799651145935;-0.2937760055065155;1.115567922592163;0.0;0.0;0.0
344;0.0;0.0;0.0;0.3777119815349579;-0.24692799150943756;1.0784800052642822;0.0;0.0;0.0
347;0.2525399923324585;-0.14908400177955627;0.9684360027313232;0.36209598183631897;-0.2820639908313751;1.0706720352172852;3.5612499713897705;-9.519999504089355;-0.4287499785423279
349;0.0;0.0;0.0;0.3933279812335968;-0.2781600058078766;1.0706720352172852;0.0;0.0;0.0
351;0.0;0.0;0.0;0.3659999966621399;-0.2781600058078766;1.0823839902877808;0.0;0.0;0.0
353;0.0;0.0;0.0;0.36209598183631897;-0.2664479911327362;1.0540800094604492;0.0;0.0;0.0
355;0.24814799427986145;-0.13932399451732635;0.9347639679908752;0.36209598183631897;-0.27425599098205566;1.0589599609375;4.751250267028809;-5.460000038146973;-4.068749904632568
357;0.0;0.0;0.0;0.35819199681282043;-0.25863999128341675;1.0628639459609985;0.0;0.0;0.0
359;0.0;0.0;0.0;0.3542879819869995;-0.27425599098205566;1.0257760286331177;0.0;0.0;0.0
362;0.0;0.0;0.0;0.37380799651145935;-0.25863999128341675;1.0628639459609985;0.0;0.0;0.0
364;0.23301999270915985;-0.1361519992351532;0.9237839579582214;0.3425759971141815;-0.24692799150943756;1.066767930984497;2.791249990463257;-0.9800000190734863;-7.568750381469727
366;0.0;0.0;0.0;0.33086398243904114;-0.27035200595855713;1.0628639459609985;0.0;0.0;0.0
368;0.0;0.0;0.0;0.30353599786758423;-0.24692799150943756;1.0540800094604492;0.0;0.0;0.0
370;0.0;0.0;0.0;0.2879199981689453;-0.28596800565719604;1.0384639501571655;0.0;0.0;0.0
372;0.205935999751091;-0.14273999631404877;0.9181720018386841;0.3113439977169037;-0.28596800565719604;1.0462720394134521;-1.408750057220459;3.1500000953674316;-10.928750038146973
374;0.0;0.0;0.0;0.2996319830417633;-0.29767999053001404;1.0296800136566162;0.0;0.0;0.0
376;0.0;0.0;0.0;0.2879199981689453;-0.3054879903793335;1.034559965133667;0.0;0.0;0.0
379;0.0;0.0;0.0;0.28011199831962585;-0.3172000050544739;1.0257760286331177;0.0;0.0;0.0
381;0.17202000319957733;-0.1803160011768341;0.9030439853668213;0.2683999836444855;-0.33671998977661133;1.0218719244003296;-4.628749847412109;7.769999980926514;-13.72874927520752
383;0.0;0.0;0.0;0.2840159833431244;-0.33671998977661133;1.0257760286331177;0.0;0.0;0.0
385;0.0;0.0;0.0;0.2449759989976883;-0.36795198917388916;1.010159969329834;0.0;0.0;0.0
387;0.0;0.0;0.0;0.25278398394584656;-0.3601439893245697;1.0296800136566162;0.0;0.0;0.0
389;0.12834399938583374;-0.22716400027275085;0.8971880078315735;0.205935999751091;-0.3835679888725281;1.0384639501571655;-5.118749618530273;11.690000534057617;-15.4087495803833
391;0.0;0.0;0.0;0.20203199982643127;-0.39528000354766846;1.042367935180664;0.0;0.0;0.0
393;0.0;0.0;0.0;0.17470400035381317;-0.387472003698349;1.0579839944839478;0.0;0.0;0.0
396;0.0;0.0;0.0;0.16299200057983398;-0.40699198842048645;1.0462720394134521;0.0;0.0;0.0
398;0.05563199892640114;-0.2593719959259033;0.9140239953994751;0.15908800065517426;-0.4030880033969879;1.034559965133667;-3.9287500381469727;12.880000114440918;-15.618749618530273
400;0.0;0.0;0.0;0.15615999698638916;-0.399183988571167;1.0501760244369507;0.0;0.0;0.0
402;0.0;0.0;0.0;0.14444799721240997;-0.41870400309562683;1.042367935180664;0.0;0.0;0.0
404;0.0;0.0;0.0;0.12492799758911133;-0.4108960032463074;1.0462720394134521;0.0;0.0;0.0
406;0.016835998743772507;-0.28547999262809753;0.924515962600708;0.11711999773979187;-0.42260798811912537;1.0589599609375;-2.598750114440918;10.570000648498535;-15.12874984741211
408;0.0;0.0;0.0;0.10540799796581268;-0.44993600249290466;1.042367935180664;0.0;0.0;0.0
410;0.0;0.0;0.0;0.09759999811649323;-0.4304159879684448;1.0296800136566162;0.0;0.0;0.0
413;0.0;0.0;0.0;0.0936959981918335;-0.4421280026435852;1.0384639501571655;0.0;0.0;0.0
415;-0.010979999788105488;-0.30743998289108276;0.9176839590072632;0.10150399804115295;-0.46164798736572266;1.0540800094604492;-0.42875000834465027;7.210000038146973;-13.938749313354492
417;0.0;0.0;0.0;0.10150399804115295;-0.4421280026435852;1.0589599609375;0.0;0.0;0.0
419;0.0;0.0;0.0;0.08198399841785431;-0.43432000279426575;1.0257760286331177;0.0;0.0;0.0
421;0.0;0.0;0.0;0.10931199789047241;-0.4694559872150421;1.017967939376831;0.0;0.0;0.0
423;-0.030988000333309174;-0.3206160068511963;0.9032880067825317;0.0936959981918335;-0.44603198766708374;1.0501760244369507;2.161249876022339;3.080000162124634;-13.588749885559082
425;0.0;0.0;0.0;0.10931199789047241;-0.47336000204086304;1.010159969329834;0.0;0.0;0.0
427;0.0;0.0;0.0;0.0936959981918335;-0.4304159879684448;1.010159969329834;0.0;0.0;0.0
430;0.0;0.0;0.0;0.10150399804115295;-0.4538399875164032;1.034559965133667;0.0;0.0;0.0
432;-0.019276000559329987;-0.3198840022087097;0.9006040096282959;0.08979199826717377;-0.46164798736572266;1.0257760286331177;3.28125;-0.6299999952316284;-14.358749389648438
434;0.0;0.0;0.0;0.07417599856853485;-0.4577440023422241;1.0257760286331177;0.0;0.0;0.0
436;0.0;0.0;0.0;0.08979199826717377;-0.43432000279426575;1.0296800136566162;0.0;0.0;0.0
438;0.0;0.0;0.0;0.058559998869895935;-0.4694559872150421;1.0218719244003296;0.0;0.0;0.0
440;-0.04050400108098984;-0.31768798828125;0.9062159657478333;0.08198399841785431;-0.46164798736572266;1.0462720394134521;3.4912500381469727;-3.7799999713897705;-14.708749771118164
442;0.0;0.0;0.0;0.08588799834251404;-0.4577440023422241;1.034559965133667;0.0;0.0;0.0
444;0.0;0.0;0.0;0.10931199789047241;-0.4694559872150421;1.034559965133667;0.0;0.0;0.0
447;0.0;0.0;0.0;0.08979199826717377;-0.4772639870643616;1.0335839986801147;0.0;0.0;0.0
449;-0.032207999378442764;-0.3323279917240143;0.9064599871635437;0.07807999849319458;-0.48897600173950195;1.017967939376831;2.161249876022339;-7.840000152587891;-16.668750762939453
451;0.0;0.0;0.0;0.08588799834251404;-0.5006880164146423;1.0384639501571655;0.0;0.0;0.0
453;0.0;0.0;0.0;0.08979199826717377;-0.4928799867630005;1.0540800094604492;0.0;0.0;0.0
455;0.0;0.0;0.0;0.07807999849319458;-0.4772639870643616;1.0257760286331177;0.0;0.0;0.0
457;-0.03660000115633011;-0.34891998767852783;0.9169519543647766;0.08588799834251404;-0.48507198691368103;1.0501760244369507;0.971250057220459;-8.679999351501465;-19.048749923706055
459;0.0;0.0;0.0;0.07027199864387512;-0.4928799867630005;1.0296800136566162;0.0;0.0;0.0
461;0.0;0.0;0.0;0.0663679987192154;-0.5006880164146423;1.0296800136566162;0.0;0.0;0.0
464;0.0;0.0;0.0;0.07417599856853485;-0.4967840015888214;1.0306559801101685;0.0;0.0;0.0
466;-0.03879600018262863;-0.3689279854297638;0.9120720028877258;0.07027199864387512;-0.5241119861602783;1.0218719244003296;1.3212499618530273;-6.440000057220459;-21.28875160217285
468;0.0;0.0;0.0;0.054655998945236206;-0.48507198691368103;1.042367935180664;0.0;0.0;0.0
470;0.0;0.0;0.0;0.031231999397277832;-0.4967840015888214;1.0384639501571655;0.0;0.0;0.0
472;0.0;0.0;0.0;-0.015615999698638916;-0.5045920014381409;1.0589599609375;0.0;0.0;0.0
474;-0.09101200103759766;-0.37209999561309814;0.9142679572105408;-0.019519999623298645;-0.5084959864616394;1.066767930984497;4.8212504386901855;-3.7799999713897705;-21.708749771118164
476;0.0;0.0;0.0;-0.03903999924659729;-0.5202080011367798;1.0589599609375;0.0;0.0;0.0
478;0.0;0.0;0.0;-0.031231999397277832;-0.48897600173950195;1.0540800094604492;0.0;0.0;0.0
481;0.0;0.0;0.0;-0.03903999924659729;-0.5045920014381409;1.0589599609375;0.0;0.0;0.0
483;-0.15786799788475037;-0.3803959786891937;0.9308599829673767;-0.04684799909591675;-0.4967840015888214;1.0501760244369507;9.021249771118164;-5.740000247955322;-22.408750534057617
485;0.0;0.0;0.0;-0.058559998869895935;-0.5084959864616394;1.0745760202407837;0.0;0.0;0.0
487;0.0;0.0;0.0;-0.0849120020866394;-0.48897600173950195;1.0462720394134521;0.0;0.0;0.0
489;0.0;0.0;0.0;-0.07417599856853485;-0.4967840015888214;1.0384639501571655;0.0;0.0;0.0
491;-0.18934398889541626;-0.3652679920196533;0.9184159636497498;-0.10443200170993805;-0.4772639870643616;1.0384639501571655;12.731249809265137;-11.969999313354492;-24.508750915527344
493;0.0;0.0;0.0;-0.09272000193595886;-0.4655520021915436;1.0462720394134521;0.0;0.0;0.0
495;0.0;0.0;0.0;-0.10833600163459778;-0.46164798736572266;1.010159969329834;0.0;0.0;0.0
498;0.0;0.0;0.0;-0.07027199864387512;-0.4538399875164032;1.0218719244003296;0.0;0.0;0.0
500;-0.2076440006494522;-0.3281799852848053;0.8905999660491943;-0.0663679987192154;-0.44993600249290466;1.0052800178527832;15.461249351501465;-20.649999618530273;-25.978750228881836
502;0.0;0.0;0.0;-0.058559998869895935;-0.4304159879684448;0.961359977722168;0.0;0.0;0.0
504;0.0;0.0;0.0;-0.062463998794555664;-0.4108960032463074;0.9896639585494995;0.0;0.0;0.0
506;0.0;0.0;0.0;-0.054655998945236206;-0.399183988571167;0.9574559926986694;0.0;0.0;0.0
508;-0.17445999383926392;-0.2803559899330139;0.8400920033454895;-0.03513599932193756;-0.40699198842048645;0.9652639627456665;15.811249732971191;-24.780000686645508;-26.39875030517578
510;0.0;0.0;0.0;-0.023423999547958374;-0.3640480041503906;0.9535520076751709;0.0;0.0;0.0
512;0.0;0.0;0.0;-0.011711999773979187;-0.387472003698349;0.9486719965934753;0.0;0.0;0.0
515;0.0;0.0;0.0;-0.04294399917125702;-0.3757599890232086;0.944767951965332;0.0;0.0;0.0
517;-0.1471319943666458;-0.23814399540424347;0.8056879639625549;-0.003903999924659729;-0.35233598947525024;0.9164639711380005;13.571249961853027;-22.119998931884766;-25.69875144958496
519;0.0;0.0;0.0;-0.05075199902057648;-0.33671998977661133;0.9291520118713379;0.0;0.0;0.0
521;0.0;0.0;0.0;0.007807999849319458;-0.32891198992729187;0.9408639669418335;0.0;0.0;0.0
523;0.0;0.0;0.0;-0.007807999849319458;-0.32500800490379333;0.936959981918335;0.0;0.0;0.0
525;-0.13834799826145172;-0.21325600147247314;0.806663990020752;0.007807999849319458;-0.3445279896259308;0.9330559968948364;8.041250228881836;-14.069999694824219;-25.348751068115234
527;0.0;0.0;0.0;-0.019519999623298645;-0.34062400460243225;0.9574559926986694;0.0;0.0;0.0
529;0.0;0.0;0.0;-0.03513599932193756;-0.33671998977661133;0.9408639669418335;0.0;0.0;0.0
532;0.0;0.0;0.0;-0.05075199902057648;-0.35624000430107117;0.936959981918335;0.0;0.0;0.0
534;-0.15689200162887573;-0.2147199958562851;0.8191080093383789;-0.05075199902057648;-0.35624000430107117;0.9691680073738098;0.971250057220459;-4.059999942779541;-25.488750457763672
536;0.0;0.0;0.0;-0.07320000231266022;-0.35233598947525024;0.9691680073738098;0.0;0.0;0.0
538;0.0;0.0;0.0;-0.07807999849319458;-0.3640480041503906;0.9896639585494995;0.0;0.0;0.0
540;0.0;0.0;0.0;-0.07027199864387512;-0.3757599890232086;0.9652639627456665;0.0;0.0;0.0
542;-0.19349199533462524;-0.23399598896503448;0.8369199633598328;-0.10833600163459778;-0.399183988571167;0.9896639585494995;-4.558749675750732;2.5900001525878906;-26.328750610351562
545;0.0;0.0;0.0;-0.08198399841785431;-0.39528000354766846;0.9935680031776428;0.0;0.0;0.0
546;0.0;0.0;0.0;-0.08979199826717377;-0.36795198917388916;1.017967939376831;0.0;0.0;0.0
549;0.0;0.0;0.0;-0.10540799796581268;-0.3835679888725281;1.0384639501571655;0.0;0.0;0.0
551;-0.2227720022201538;-0.25693199038505554;0.8825479745864868;-0.11224000155925751;-0.399183988571167;1.0296800136566162;-8.05875015258789;4.690000057220459;-27.658750534057617
553;0.0;0.0;0.0;-0.14737600088119507;-0.40699198842048645;1.034559965133667;0.0;0.0;0.0
555;0.0;0.0;0.0;-0.16299200057983398;-0.39137598872184753;1.0706720352172852;0.0;0.0;0.0
557;0.0;0.0;0.0;-0.1512800008058548;-0.4265120029449463;1.0501760244369507;0.0;0.0;0.0
559;-0.2564440071582794;-0.28474798798561096;0.9291520118713379;-0.14347200095653534;-0.4304159879684448;1.0989760160446167;-10.018750190734863;2.380000114440918;-29.96875
562;0.0;0.0;0.0;-0.14347200095653534;-0.4304159879684448;1.0872639417648315;0.0;0.0;0.0
564;0.0;0.0;0.0;-0.14737600088119507;-0.44603198766708374;1.09116792678833;0.0;0.0;0.0
566;0.0;0.0;0.0;-0.1786080002784729;-0.4577440023422241;1.0784800052642822;0.0;0.0;0.0
568;-0.2752319872379303;-0.30231598019599915;0.9635559916496277;-0.17080000042915344;-0.44993600249290466;1.115567922592163;-10.018750190734863;-3.5;-32.2087516784668
570;0.0;0.0;0.0;-0.13176000118255615;-0.4655520021915436;1.0950720310211182;0.0;0.0;0.0
572;0.0;0.0;0.0;-0.17470400035381317;-0.44993600249290466;1.1028800010681152;0.0;0.0;0.0
574;0.0;0.0;0.0;-0.14347200095653534;-0.4421280026435852;1.09116792678833;0.0;0.0;0.0
576;-0.28181999921798706;-0.3113439977169037;0.9694119691848755;-0.17470400035381317;-0.4577440023422241;1.0989760160446167;-7.288749694824219;-11.6899995803833;-33.60874938964844
579;0.0;0.0;0.0;-0.16299200057983398;-0.44993600249290466;1.1194720268249512;0.0;0.0;0.0
581;0.0;0.0;0.0;-0.17080000042915344;-0.44993600249290466;1.0989760160446167;0.0;0.0;0.0
583;0.0;0.0;0.0;-0.17080000042915344;-0.4538399875164032;1.0989760160446167;0.0;0.0;0.0
585;-0.28426000475883484;-0.3101239800453186;0.9740479588508606;-0.1512800008058548;-0.44993600249290466;1.1067839860916138;-3.4387500286102295;-20.229999542236328;-33.74875259399414
587;0.0;0.0;0.0;-0.1239520013332367;-0.43432000279426575;1.0706720352172852;0.0;0.0;0.0
589;0.0;0.0;0.0;-0.12785600125789642;-0.42260798811912537;1.0989760160446167;0.0;0.0;0.0
591;0.0;0.0;0.0;-0.08588799834251404;-0.4147999882698059;1.0872639417648315;0.0;0.0;0.0
593;-0.24521999061107635;-0.28645598888397217;0.9628239870071411;-0.10833600163459778;-0.4147999882698059;1.0823839902877808;-1.8987500667572021;-24.780000686645508;-33.188751220703125
596;0.0;0.0;0.0;-0.11614400148391724;-0.41870400309562683;1.0823839902877808;0.0;0.0;0.0
598;0.0;0.0;0.0;-0.13566400110721588;-0.39137598872184753;1.0989760160446167;0.0;0.0;0.0
600;0.0;0.0;0.0;-0.0849120020866394;-0.39137598872184753;1.0989760160446167;0.0;0.0;0.0
602;-0.21667200326919556;-0.2622999846935272;0.9650200009346008;-0.10052800178527832;-0.3757599890232086;1.0872639417648315;-2.8787500858306885;-22.889999389648438;-31.01875114440918
604;0.0;0.0;0.0;-0.10052800178527832;-0.3601439893245697;1.1194720268249512;0.0;0.0;0.0
606;0.0;0.0;0.0;-0.10931199789047241;-0.3835679888725281;1.1116639375686646;0.0;0.0;0.0
608;0.0;0.0;0.0;-0.10443200170993805;-0.3835679888725281;1.1116639375686646;0.0;0.0;0.0
610;-0.22326000034809113;-0.24595199525356293;0.9877119660377502;-0.09272000193595886;-0.387472003698349;1.1233760118484497;-4.908749580383301;-16.59000015258789;-29.05875015258789
613;0.0;0.0;0.0;-0.08881600201129913;-0.37966400384902954;1.1760799884796143;0.0;0.0;0.0
615;0.0;0.0;0.0;-0.11224000155925751;-0.387472003698349;1.1477760076522827;0.0;0.0;0.0
617;0.0;0.0;0.0;-0.1239520013332367;-0.39528000354766846;1.1516799926757812;0.0;0.0;0.0
619;-0.2315559983253479;-0.25400400161743164;1.0147960186004639;-0.10833600163459778;-0.3835679888725281;1.1594879627227783;-5.46875;-9.9399995803833;-26.60875129699707
621;0.0;0.0;0.0;-0.13566400110721588;-0.40699198842048645;1.1438720226287842;0.0;0.0;0.0
623;0.0;0.0;0.0;-0.14737600088119507;-0.39137598872184753;1.1594879627227783;0.0;0.0;0.0
625;0.0;0.0;0.0;-0.1512800008058548;-0.4265120029449463;1.1643680334091187;0.0;0.0;0.0
627;-0.27425599098205566;-0.2659600079059601;1.0411479473114014;-0.18641600012779236;-0.399183988571167;1.1760799884796143;-3.648750066757202;-6.019999980926514;-24.92875099182129
630;0.0;0.0;0.0;-0.17080000042915344;-0.39137598872184753;1.1799839735031128;0.0;0.0;0.0
632;0.0;0.0;0.0;-0.20983999967575073;-0.3640480041503906;1.2121919393539429;0.0;0.0;0.0
634;0.0;0.0;0.0;-0.18251200020313263;-0.4030880033969879;1.1877919435501099;0.0;0.0;0.0
636;-0.31500399112701416;-0.2576639950275421;1.0623760223388672;-0.20203199982643127;-0.3835679888725281;1.2082879543304443;-0.4987500011920929;-8.329999923706055;-23.388750076293945
638;0.0;0.0;0.0;-0.19422399997711182;-0.399183988571167;1.1721760034561157;0.0;0.0;0.0
640;0.0;0.0;0.0;-0.20203199982643127;-0.399183988571167;1.1594879627227783;0.0;0.0;0.0
642;0.0;0.0;0.0;-0.19422399997711182;-0.37966400384902954;1.139967918395996;0.0;0.0;0.0
644;-0.3215920031070709;-0.2500999867916107;1.0352920293807983;-0.15908800065517426;-0.3718560039997101;1.1438720226287842;2.721250057220459;-13.510000228881836;-21.14875030517578
647;0.0;0.0;0.0;-0.18251200020313263;-0.3835679888725281;1.1311839818954468;0.0;0.0;0.0
649;0.0;0.0;0.0;-0.1512800008058548;-0.3484320044517517;1.139967918395996;0.0;0.0;0.0
651;0.0;0.0;0.0;-0.15518400073051453;-0.34062400460243225;1.1438720226287842;0.0;0.0;0.0
653;-0.27669599652290344;-0.21789199113845825;1.009671926498413;-0.12004800140857697;-0.3172000050544739;1.139967918395996;5.171250343322754;-15.469999313354492;-17.78875160217285
655;0.0;0.0;0.0;-0.14347200095653534;-0.30158400535583496;1.115567922592163;0.0;0.0;0.0
657;0.0;0.0;0.0;-0.14347200095653534;-0.3093920052051544;1.1477760076522827;0.0;0.0;0.0
659;0.0;0.0;0.0;-0.12004800140857697;-0.2898719906806946;1.139967918395996;0.0;0.0;0.0
661;-0.25351598858833313;-0.1798280030488968;1.0062559843063354;-0.10443200170993805;-0.3211039900779724;1.1438720226287842;4.8212504386901855;-12.59999942779541;-13.72874927520752
664;0.0;0.0;0.0;-0.15908800065517426;-0.29767999053001404;1.1360639333724976;0.0;0.0;0.0
666;0.0;0.0;0.0;-0.12785600125789642;-0.2898719906806946;1.1438720226287842;0.0;0.0;0.0
668;0.0;0.0;0.0;-0.1668960005044937;-0.30158400535583496;1.1721760034561157;0.0;0.0;0.0
670;-0.2664479911327362;-0.1705559939146042;1.0250439643859863;-0.15908800065517426;-0.30158400535583496;1.1721760034561157;2.091249942779541;-8.609999656677246;-11.208749771118164
672;0.0;0.0;0.0;-0.15518400073051453;-0.2937760055065155;1.1682720184326172;0.0;0.0;0.0
674;0.0;0.0;0.0;-0.1903200000524521;-0.27035200595855713;1.2082879543304443;0.0;0.0;0.0
676;0.0;0.0;0.0;-0.17470400035381317;-0.29767999053001404;1.2043839693069458;0.0;0.0;0.0
678;-0.29060399532318115;-0.15981999039649963;1.066767930984497;-0.1668960005044937;-0.29767999053001404;1.1926720142364502;-0.42875000834465027;-7.980000019073486;-9.31874942779541
681;0.0;0.0;0.0;-0.18251200020313263;-0.2937760055065155;1.2170720100402832;0.0;0.0;0.0
683;0.0;0.0;0.0;-0.1903200000524521;-0.2898719906806946;1.2170720100402832;0.0;0.0;0.0
685;0.0;0.0;0.0;-0.17080000042915344;-0.27035200595855713;1.2004799842834473;0.0;0.0;0.0
687;-0.301827996969223;-0.1390800029039383;1.083359956741333;-0.1786080002784729;-0.2508319914340973;1.2121919393539429;-1.1287500858306885;-10.359999656677246;-7.358750343322754
689;0.0;0.0;0.0;-0.15908800065517426;-0.24692799150943756;1.2248799800872803;0.0;0.0;0.0
691;0.0;0.0;0.0;-0.1668960005044937;-0.24692799150943756;1.2209759950637817;0.0;0.0;0.0
693;0.0;0.0;0.0;-0.17080000042915344;-0.2547360062599182;1.1926720142364502;0.0;0.0;0.0
695;-0.2857239842414856;-0.11711999773979187;1.0818959474563599;-0.1668960005044937;-0.22740799188613892;1.2082879543304443;1.6012499332427979;-10.920000076293945;-4.768750190734863
698;0.0;0.0;0.0;-0.12004800140857697;-0.24302399158477783;1.2082879543304443;0.0;0.0;0.0
700;0.0;0.0;0.0;-0.12004800140857697;-0.21959999203681946;1.2326879501342773;0.0;0.0;0.0
702;0.0;0.0;0.0;-0.1239520013332367;-0.19617599248886108;1.2287839651107788;0.0;0.0;0.0
704;-0.2466839998960495;-0.0861319974064827;1.0867760181427002;-0.11224000155925751;-0.20398399233818054;1.2209759950637817;5.03125;-8.399999618530273;-1.2687500715255737
706;0.0;0.0;0.0;-0.12004800140857697;-0.16494399309158325;1.2453759908676147;0.0;0.0;0.0
708;0.0;0.0;0.0;-0.08198399841785431;-0.16103999316692352;1.2004799842834473;0.0;0.0;0.0
710;0.0;0.0;0.0;-0.07710400223731995;-0.16494399309158325;1.2121919393539429;0.0;0.0;0.0
712;-0.21276798844337463;-0.04001599922776222;1.0836039781570435;-0.05075199902057648;-0.1454239934682846;1.2170720100402832;6.501250267028809;-2.379999876022339;3.0712502002716064
715;0.0;0.0;0.0;-0.07417599856853485;-0.17665599286556244;1.2082879543304443;0.0;0.0;0.0
717;0.0;0.0;0.0;-0.09272000193595886;-0.14151999354362488;1.2082879543304443;0.0;0.0;0.0
719;0.0;0.0;0.0;-0.058559998869895935;-0.1298079937696457;1.2004799842834473;0.0;0.0;0.0
721;-0.20520399510860443;-0.0007319999858736992;1.0809199810028076;-0.0936959981918335;-0.1180959939956665;1.2004799842834473;6.501250267028809;4.96999979019165;6.571249961853027
723;0.0;0.0;0.0;-0.1239520013332367;-0.10247999429702759;1.2209759950637817;0.0;0.0;0.0
725;0.0;0.0;0.0;-0.11614400148391724;-0.1180959939956665;1.2287839651107788;0.0;0.0;0.0
727;0.0;0.0;0.0;-0.11614400148391724;-0.09857599437236786;1.2082879543304443;0.0;0.0;0.0
729;-0.2269199937582016;0.026839999482035637;1.0828720331192017;-0.10443200170993805;-0.11028799414634705;1.2004799842834473;4.261250019073486;10.99000072479248;9.861249923706055
732;0.0;0.0;0.0;-0.09272000193595886;-0.09467199444770813;1.2121919393539429;0.0;0.0;0.0
734;0.0;0.0;0.0;-0.08198399841785431;-0.1454239934682846;1.2170720100402832;0.0;0.0;0.0
736;0.0;0.0;0.0;-0.08198399841785431;-0.1298079937696457;1.2170720100402832;0.0;0.0;0.0
738;-0.21691599488258362;0.015371999703347683;1.0889719724655151;-0.08881600201129913;-0.1180959939956665;1.2209759950637817;2.721250057220459;15.260000228881836;10.981250762939453
740;0.0;0.0;0.0;-0.10052800178527832;-0.07515199482440948;1.2287839651107788;0.0;0.0;0.0
742;0.0;0.0;0.0;-0.11224000155925751;-0.09467199444770813;1.2570879459381104;0.0;0.0;0.0
744;0.0;0.0;0.0;-0.10833600163459778;-0.10638399422168732;1.2492799758911133;0.0;0.0;0.0
746;-0.2315559983253479;0.020739998668432236;1.111907958984375;-0.15518400073051453;-0.1298079937696457;1.2648959159851074;2.231250047683716;16.940000534057617;14.201250076293945
749;0.0;0.0;0.0;-0.13566400110721588;-0.11028799414634705;1.2941759824752808;0.0;0.0;0.0
751;0.0;0.0;0.0;-0.13176000118255615;-0.11028799414634705;1.2736799716949463;0.0;0.0;0.0
753;0.0;0.0;0.0;-0.1395680010318756;-0.09857599437236786;1.2570879459381104;0.0;0.0;0.0
755;-0.2596159875392914;0.0287919994443655;1.130452036857605;-0.13176000118255615;-0.08295999467372894;1.2697759866714478;2.3712499141693115;14.630000114440918;18.401248931884766
757;0.0;0.0;0.0;-0.11224000155925751;-0.08686399459838867;1.2941759824752808;0.0;0.0;0.0
759;0.0;0.0;0.0;-0.12004800140857697;-0.0907679945230484;1.2648959159851074;0.0;0.0;0.0
761;0.0;0.0;0.0;-0.10443200170993805;-0.08295999467372894;1.2814879417419434;0.0;0.0;0.0
763;-0.24570798873901367;0.04758000001311302;1.1338679790496826;-0.1395680010318756;-0.07124799489974976;1.2697759866714478;4.051249980926514;10.289999961853027;23.651248931884766
766;0.0;0.0;0.0;-0.10443200170993805;-0.09467199444770813;1.2609919309616089;0.0;0.0;0.0
768;0.0;0.0;0.0;-0.11614400148391724;-0.06734399497509003;1.2697759866714478;0.0;0.0;0.0
770;0.0;0.0;0.0;-0.08588799834251404;-0.09467199444770813;1.2570879459381104;0.0;0.0;0.0
772;-0.23009198904037476;0.05660799890756607;1.1345999240875244;-0.07027199864387512;-0.05563199892640114;1.2658720016479492;6.15125036239624;6.440000057220459;27.991249084472656
774;0.0;0.0;0.0;-0.07027199864387512;-0.05172799900174141;1.2365919351577759;0.0;0.0;0.0
776;0.0;0.0;0.0;-0.05075199902057648;-0.04001599922776222;1.2170720100402832;0.0;0.0;0.0
778;0.0;0.0;0.0;-0.04294399917125702;-0.024399999529123306;1.2287839651107788;0.0;0.0;0.0
780;-0.17885199189186096;0.08857199549674988;1.116055965423584;-0.023423999547958374;-0.01659199967980385;1.2453759908676147;8.391249656677246;3.5;31.561248779296875
783;0.0;0.0;0.0;-0.05075199902057648;-0.04001599922776222;1.2326879501342773;0.0;0.0;0.0
785;0.0;0.0;0.0;-0.03903999924659729;-0.024399999529123306;1.2375680208206177;0.0;0.0;0.0
787;0.0;0.0;0.0;-0.019519999623298645;-0.032207999378442764;1.2004799842834473;0.0;0.0;0.0
789;-0.16884799301624298;0.11565599590539932;1.1021479368209839;-0.03903999924659729;0.02635199949145317;1.2043839693069458;8.88124942779541;0.8400000333786011;33.52124786376953
791;0.0;0.0;0.0;-0.003903999924659729;-0.01268799975514412;1.2082879543304443;0.0;0.0;0.0
793;0.0;0.0;0.0;0.031231999397277832;0.02635199949145317;1.1799839735031128;0.0;0.0;0.0
795;0.0;0.0;0.0;0.027327999472618103;-0.00878399983048439;1.1555839776992798;0.0;0.0;0.0
797;-0.1088239997625351;0.13176000118255615;1.0592039823532104;0.027327999472618103;0.02635199949145317;1.1887680292129517;7.551250457763672;-0.6299999952316284;33.45124816894531
800;0.0;0.0;0.0;0.058559998869895935;0.03415999934077263;1.2004799842834473;0.0;0.0;0.0
802;0.0;0.0;0.0;0.07027199864387512;0.06539200246334076;1.2004799842834473;0.0;0.0;0.0
804;0.0;0.0;0.0;0.023423999547958374;0.06148799881339073;1.2004799842834473;0.0;0.0;0.0
806;-0.07393199950456619;0.18373200297355652;1.060912013053894;0.054655998945236206;0.07320000231266022;1.1965759992599487;5.241250038146973;1.399999976158142;33.52124786376953
808;0.0;0.0;0.0;0.08198399841785431;0.08881600201129913;1.1555839776992798;0.0;0.0;0.0
810;0.0;0.0;0.0;0.04294399917125702;0.0849120020866394;1.1799839735031128;0.0;0.0;0.0
812;0.0;0.0;0.0;0.08198399841785431;0.07320000231266022;1.1643680334091187;0.0;0.0;0.0
814;-0.04806799814105034;0.20349599421024323;1.0435879230499268;0.07027199864387512;0.045871999114751816;1.1721760034561157;1.3212499618530273;2.7300000190734863;32.96125030517578
817;0.0;0.0;0.0;0.08979199826717377;0.057583998888731;1.1799839735031128;0.0;0.0;0.0
819;0.0;0.0;0.0;0.08979199826717377;0.03806399926543236;1.1682720184326172;0.0;0.0;0.0
821;0.0;0.0;0.0;0.12492799758911133;0.045871999114751816;1.1477760076522827;0.0;0.0;0.0
823;-0.026108000427484512;0.19568799436092377;1.0374879837036133;0.1210239976644516;0.10052800178527832;1.1643680334091187;-0.4987500011920929;5.529999732971191;33.52124786376953
825;0.0;0.0;0.0;0.12492799758911133;0.08100800216197968;1.1721760034561157;0.0;0.0;0.0
827;0.0;0.0;0.0;0.11321599781513214;0.09272000193595886;1.1760799884796143;0.0;0.0;0.0
829;0.0;0.0;0.0;0.10540799796581268;0.09272000193595886;1.1555839776992798;0.0;0.0;0.0
831;-0.01756799966096878;0.23204399645328522;1.0379760265350342;0.04684799909591675;0.09272000193595886;1.1965759992599487;-1.2687500715255737;10.570000648498535;36.0412483215332
834;0.0;0.0;0.0;0.07807999849319458;0.11224000155925751;1.1682720184326172;0.0;0.0;0.0
836;0.0;0.0;0.0;0.10540799796581268;0.13176000118255615;1.1682720184326172;0.0;0.0;0.0
838;0.0;0.0;0.0;0.07027199864387512;0.16299200057983398;1.1438720226287842;0.0;0.0;0.0
840;-0.027327999472618103;0.2579079866409302;1.0413919687271118;0.0936959981918335;0.1395680010318756;1.1594879627227783;-1.8287500143051147;14.700000762939453;39.12125015258789
842;0.0;0.0;0.0;0.12492799758911133;0.18641600012779236;1.1877919435501099;0.0;0.0;0.0
844;0.0;0.0;0.0;0.11711999773979187;0.1786080002784729;1.2004799842834473;0.0;0.0;0.0
846;0.0;0.0;0.0;0.12883199751377106;0.17470400035381317;1.2004799842834473;0.0;0.0;0.0
848;0.007807999849319458;0.31622397899627686;1.0545679330825806;0.14054399728775024;0.19812799990177155;1.1926720142364502;-2.3187501430511475;17.43000030517578;42.62125015258789
851;0.0;0.0;0.0;0.14444799721240997;0.20983999967575073;1.1477760076522827;0.0;0.0;0.0
853;0.0;0.0;0.0;0.15908800065517426;0.20203199982643127;1.1682720184326172;0.0;0.0;0.0
855;0.0;0.0;0.0;0.20203199982643127;0.24107199907302856;1.1516799926757812;0.0;0.0;0.0
857;0.04440800100564957;0.3537999987602234;1.026263952255249;0.17470400035381317;0.21374399960041046;1.139967918395996;-3.158750057220459;19.739999771118164;45.841251373291016
859;0.0;0.0;0.0;0.19422399997711182;0.22935999929904938;1.1272799968719482;0.0;0.0;0.0
861;0.0;0.0;0.0;0.15908800065517426;0.26449599862098694;1.1555839776992798;0.0;0.0;0.0
863;0.0;0.0;0.0;0.16299200057983398;0.24887999892234802;1.1350879669189453;0.0;0.0;0.0
865;0.05953599885106087;0.3735640048980713;1.0152839422225952;0.18251200020313263;0.24107199907302856;1.1682720184326172;-3.648750066757202;22.89000129699707;48.64125061035156
868;0.0;0.0;0.0;0.15615999698638916;0.24107199907302856;1.1721760034561157;0.0;0.0;0.0
870;0.0;0.0;0.0;0.16787199676036835;0.24887999892234802;1.1643680334091187;0.0;0.0;0.0
872;0.0;0.0;0.0;0.19812799990177155;0.26449599862098694;1.1555839776992798;0.0;0.0;0.0
874;0.05416800081729889;0.39015600085258484;1.034071922302246;0.19812799990177155;0.260591983795166;1.1760799884796143;-6.868749618530273;23.729999542236328;49.27124786376953
876;0.0;0.0;0.0;0.20203199982643127;0.2683999836444855;1.1838879585266113;0.0;0.0;0.0
878;0.0;0.0;0.0;0.20983999967575073;0.25278398394584656;1.1926720142364502;0.0;0.0;0.0
880;0.0;0.0;0.0;0.22545599937438965;0.23716799914836884;1.2121919393539429;0.0;0.0;0.0
882;0.08759599924087524;0.39015600085258484;1.0635960102081299;0.21374399960041046;0.260591983795166;1.2004799842834473;-11.978750228881836;22.470001220703125;49.69124984741211
885;0.0;0.0;0.0;0.21374399960041046;0.23716799914836884;1.2121919393539429;0.0;0.0;0.0
887;0.0;0.0;0.0;0.21374399960041046;0.19812799990177155;1.2365919351577759;0.0;0.0;0.0
889;0.0;0.0;0.0;0.2332639992237091;0.20203199982643127;1.2287839651107788;0.0;0.0;0.0
891;0.10052800178527832;0.34062400460243225;1.1001960039138794;0.23716799914836884;0.18641600012779236;1.2531839609146118;-16.80875015258789;21.14000129699707;50.251251220703125
893;0.0;0.0;0.0;0.2332639992237091;0.16299200057983398;1.2697759866714478;0.0;0.0;0.0
895;0.0;0.0;0.0;0.2332639992237091;0.14347200095653534;1.2697759866714478;0.0;0.0;0.0
897;0.0;0.0;0.0;0.24107199907302856;0.16299200057983398;1.2775839567184448;0.0;0.0;0.0
899;0.11980399489402771;0.2874319851398468;1.1431399583816528;0.23716799914836884;0.15518400073051453;1.2980799674987793;-18.62874984741211;17.780000686645508;49.62125015258789
902;0.0;0.0;0.0;0.2449759989976883;0.12004800140857697;1.3302879333496094;0.0;0.0;0.0
904;0.0;0.0;0.0;0.28011199831962585;0.10833600163459778;1.3185759782791138;0.0;0.0;0.0
906;0.0;0.0;0.0;0.28011199831962585;0.11224000155925751;1.3185759782791138;0.0;0.0;0.0
908;0.1483519971370697;0.23936399817466736;1.1819360256195068;0.29182398319244385;0.10052800178527832;1.313696026802063;-16.66874885559082;10.570000648498535;48.71125030517578
910;0.0;0.0;0.0;0.2996319830417633;0.0849120020866394;1.334191918373108;0.0;0.0;0.0
912;0.0;0.0;0.0;0.3152479827404022;0.053679998964071274;1.334191918373108;0.0;0.0;0.0
914;0.0;0.0;0.0;0.3425759971141815;0.07320000231266022;1.3420000076293945;0.0;0.0;0.0
916;0.1983719915151596;0.20349599421024323;1.2107279300689697;0.33476799726486206;0.08100800216197968;1.370303988456726;-12.398750305175781;0.9100000262260437;46.96125030517578
919;0.0;0.0;0.0;0.3816159963607788;0.08881600201129913;1.3507839441299438;0.0;0.0;0.0
921;0.0;0.0;0.0;0.3659999966621399;0.045871999114751816;1.338096022605896;0.0;0.0;0.0
923;0.0;0.0;0.0;0.41967999935150146;0.057583998888731;1.3507839441299438;0.0;0.0;0.0
925;0.27620798349380493;0.18983200192451477;1.2065799236297607;0.41967999935150146;0.06539200246334076;1.3185759782791138;-7.008749961853027;-8.1899995803833;44.23125076293945
927;0.0;0.0;0.0;0.4626239836215973;0.053679998964071274;1.3224799633026123;0.0;0.0;0.0
929;0.0;0.0;0.0;0.48604798316955566;0.03806399926543236;1.285391926765442;0.0;0.0;0.0
931;0.0;0.0;0.0;0.5094720125198364;0.07710400223731995;1.2775839567184448;0.0;0.0;0.0
934;0.3618519902229309;0.18861199915409088;1.1599760055541992;0.5250880122184753;0.053679998964071274;1.2697759866714478;-0.2887499928474426;-11.199999809265137;40.94124984741211
936;0.0;0.0;0.0;0.5250880122184753;0.057583998888731;1.2648959159851074;0.0;0.0;0.0
938;0.0;0.0;0.0;0.513375997543335;0.053679998964071274;1.2365919351577759;0.0;0.0;0.0
940;0.0;0.0;0.0;0.5719360113143921;0.0849120020866394;1.2287839651107788;0.0;0.0;0.0
942;0.4269999861717224;0.20861999690532684;1.1087360382080078;0.5680319666862488;0.08881600201129913;1.2209759950637817;6.501250267028809;-7.070000171661377;36.67124938964844
944;0.0;0.0;0.0;0.5914559960365295;0.11224000155925751;1.1877919435501099;0.0;0.0;0.0
946;0.0;0.0;0.0;0.6070719957351685;0.12004800140857697;1.1965759992599487;0.0;0.0;0.0
948;0.0;0.0;0.0;0.5992639660835266;0.1239520013332367;1.2043839693069458;0.0;0.0;0.0
950;0.48848798871040344;0.23423999547958374;1.067255973815918;0.6031680107116699;0.10833600163459778;1.1682720184326172;11.12125015258789;1.6100000143051147;34.2912483215332
953;0.0;0.0;0.0;0.5797439813613892;0.10833600163459778;1.1516799926757812;0.0;0.0;0.0
955;0.0;0.0;0.0;0.5641279816627502;0.12004800140857697;1.1682720184326172;0.0;0.0;0.0
957;0.0;0.0;0.0;0.5758399963378906;0.10052800178527832;1.1516799926757812;0.0;0.0;0.0
959;0.46750399470329285;0.24253599345684052;1.0287039279937744;0.5992639660835266;0.11614400148391724;1.1555839776992798;13.361249923706055;11.200000762939453;31.491249084472656
961;0.0;0.0;0.0;0.5563200116157532;0.1239520013332367;1.0989760160446167;0.0;0.0;0.0
963;0.0;0.0;0.0;0.5602239966392517;0.10052800178527832;1.1350879669189453;0.0;0.0;0.0
965;0.0;0.0;0.0;0.5446079969406128;0.10443200170993805;1.0706720352172852;0.0;0.0;0.0
968;0.44237199425697327;0.2593719959259033;0.981611967086792;0.5485119819641113;0.15908800065517426;1.0950720310211182;13.991250038146973;18.479999542236328;27.221248626708984
970;0.0;0.0;0.0;0.5485119819641113;0.11224000155925751;1.0784800052642822;0.0;0.0;0.0
972;0.0;0.0;0.0;0.5250880122184753;0.14737600088119507;1.0628639459609985;0.0;0.0;0.0
974;0.0;0.0;0.0;0.5641279816627502;0.13566400110721588;1.042367935180664;0.0;0.0;0.0
976;0.42626798152923584;0.27718400955200195;0.9279319643974304;0.521183967590332;0.14737600088119507;1.0218719244003296;13.151249885559082;23.59000015258789;23.511249542236328
978;0.0;0.0;0.0;0.5094720125198364;0.15518400073051453;1.042367935180664;0.0;0.0;0.0
980;0.0;0.0;0.0;0.5172799825668335;0.18641600012779236;1.0140639543533325;0.0;0.0;0.0
982;0.0;0.0;0.0;0.5563200116157532;0.17080000042915344;0.985759973526001;0.0;0.0;0.0
985;0.4065040051937103;0.3008520007133484;0.8874279856681824;0.536799967288971;0.18251200020313263;1.0052800178527832;9.511249542236328;27.510000228881836;20.64124870300293
987;0.0;0.0;0.0;0.521183967590332;0.1786080002784729;0.9896639585494995;0.0;0.0;0.0
989;0.0;0.0;0.0;0.4938559830188751;0.18251200020313263;0.9896639585494995;0.0;0.0;0.0
991;0.0;0.0;0.0;0.49775999784469604;0.16299200057983398;0.985759973526001;0.0;0.0;0.0
993;0.37502798438072205;0.30280399322509766;0.8705919981002808;0.4470079839229584;0.15518400073051453;1.010159969329834;2.4412500858306885;30.520000457763672;18.82124900817871
995;0.0;0.0;0.0;0.43139198422431946;0.15908800065517426;1.0062559843063354;0.0;0.0;0.0
997;0.0;0.0;0.0;0.41967999935150146;0.1239520013332367;0.9974719882011414;0.0;0.0;0.0
999;0.0;0.0;0.0;0.3933279812335968;0.12785600125789642;1.0218719244003296;0.0;0.0;0.0
1002;0.30060797929763794;0.27547600865364075;0.8866959810256958;0.3816159963607788;0.13176000118255615;1.034559965133667;-6.378749847412109;30.030000686645508;16.23124885559082
1004;0.0;0.0;0.0;0.38551998138427734;0.09662400186061859;1.0296800136566162;0.0;0.0;0.0
1006;0.0;0.0;0.0;0.36209598183631897;0.10443200170993805;1.0501760244369507;0.0;0.0;0.0
1008;0.0;0.0;0.0;0.37380799651145935;0.09272000193595886;1.0589599609375;0.0;0.0;0.0
1010;0.26034799218177795;0.22594399750232697;0.905239999294281;0.3699039816856384;0.053679998964071274;1.017967939376831;-13.728750228881836;25.130001068115234;13.991250038146973
1012;0.0;0.0;0.0;0.34647998213768005;0.06539200246334076;1.0540800094604492;0.0;0.0;0.0
1014;0.0;0.0;0.0;0.3269599974155426;0.03415999934077263;1.0501760244369507;0.0;0.0;0.0
1016;0.0;0.0;0.0;0.29572799801826477;0.014639999717473984;1.042367935180664;0.0;0.0;0.0
1019;0.2164279967546463;0.1727519929409027;0.9132919907569885;0.2996319830417633;0.0029279999434947968;1.0501760244369507;-16.178749084472656;19.600000381469727;12.311250686645508
1021;0.0;0.0;0.0;0.28011199831962585;-0.020495999604463577;1.0501760244369507;0.0;0.0;0.0
1023;0.0;0.0;0.0;0.2723039984703064;-0.00878399983048439;1.0706720352172852;0.0;0.0;0.0
1025;0.0;0.0;0.0;0.27620798349380493;-0.03611199930310249;1.0589599609375;0.0;0.0;0.0
1027;0.15347599983215332;0.12419600039720535;0.9225639700889587;0.260591983795166;-0.03611199930310249;1.042367935180664;-13.658750534057617;9.800000190734863;10.561250686645508
1029;0.0;0.0;0.0;0.23716799914836884;-0.028303999453783035;1.042367935180664;0.0;0.0;0.0
1031;0.0;0.0;0.0;0.24887999892234802;-0.03611199930310249;1.0628639459609985;0.0;0.0;0.0
1033;0.0;0.0;0.0;0.2566879987716675;-0.05563199892640114;1.0540800094604492;0.0;0.0;0.0
1036;0.14444799721240997;0.09296400099992752;0.9179279804229736;0.26449599862098694;-0.04001599922776222;1.0462720394134521;-9.318750381469727;-2.7300000190734863;9.581250190734863
1038;0.0;0.0;0.0;0.2566879987716675;-0.04391999915242195;0.9974719882011414;0.0;0.0;0.0
1040;0.0;0.0;0.0;0.23716799914836884;-0.04782399907708168;1.010159969329834;0.0;0.0;0.0
1042;0.0;0.0;0.0;0.260591983795166;-0.07905599474906921;1.0013760328292847;0.0;0.0;0.0
1044;0.13761599361896515;0.06929600238800049;0.8901119828224182;0.24887999892234802;-0.07124799489974976;1.0140639543533325;-4.698750019073486;-12.949999809265137;9.721250534057617
1046;0.0;0.0;0.0;0.2683999836444855;-0.08295999467372894;1.0013760328292847;0.0;0.0;0.0
1048;0.0;0.0;0.0;0.29572799801826477;-0.04782399907708168;0.9769759774208069;0.0;0.0;0.0
1050;0.0;0.0;0.0;0.2723039984703064;-0.0907679945230484;0.9730719923973083;0.0;0.0;0.0
1053;0.1664080023765564;0.053679998964071274;0.8557080030441284;0.3113439977169037;-0.0907679945230484;0.9574559926986694;-0.7787500619888306;-20.860000610351562;10.561250686645508
1055;0.0;0.0;0.0;0.3113439977169037;-0.09857599437236786;0.9691680073738098;0.0;0.0;0.0
1057;0.0;0.0;0.0;0.350383996963501;-0.10638399422168732;0.9769759774208069;0.0;0.0;0.0
1059;0.0;0.0;0.0;0.37380799651145935;-0.0907679945230484;0.944767951965332;0.0;0.0;0.0
1061;0.22301599383354187;0.043431997299194336;0.8366760015487671;0.3777119815349579;-0.11419199407100677;0.9896639585494995;0.9012500047683716;-24.639999389648438;11.331250190734863
1063;0.0;0.0;0.0;0.4089439809322357;-0.12199999392032623;0.9525759816169739;0.0;0.0;0.0
1065;0.0;0.0;0.0;0.4274879992008209;-0.12199999392032623;0.9808799624443054;0.0;0.0;0.0
1067;0.0;0.0;0.0;0.4391999840736389;-0.13761599361896515;0.9291520118713379;0.0;0.0;0.0
1070;0.3125639855861664;0.018300000578165054;0.8193519711494446;0.48604798316955566;-0.1298079937696457;0.9330559968948364;0.3412500023841858;-23.309999465942383;11.611249923706055
1072;0.0;0.0;0.0;0.48604798316955566;-0.13371199369430542;0.9164639711380005;0.0;0.0;0.0
1074;0.0;0.0;0.0;0.48214399814605713;-0.10638399422168732;0.9242720007896423;0.0;0.0;0.0
1076;0.0;0.0;0.0;0.47433599829673767;-0.14151999354362488;0.9242720007896423;0.0;0.0;0.0
1078;0.35819199681282043;-0.003659999929368496;0.7988559603691101;0.4938559830188751;-0.1454239934682846;0.9242720007896423;0.20125000178813934;-16.3799991607666;10.561250686645508
1080;0.0;0.0;0.0;0.4665279984474182;-0.14151999354362488;0.9164639711380005;0.0;0.0;0.0
1082;0.0;0.0;0.0;0.5016639828681946;-0.16494399309158325;0.8920639753341675;0.0;0.0;0.0
1084;0.0;0.0;0.0;0.49775999784469604;-0.16103999316692352;0.920367956161499;0.0;0.0;0.0
1087;0.38722798228263855;-0.026839999482035637;0.7759199738502502;0.5446079969406128;-0.1844639927148819;0.8998720049858093;-0.14875000715255737;-8.050000190734863;9.161250114440918
1089;0.0;0.0;0.0;0.5719360113143921;-0.1727519929409027;0.8764479756355286;0.0;0.0;0.0
1091;0.0;0.0;0.0;0.5602239966392517;-0.1571359932422638;0.8998720049858093;0.0;0.0;0.0
1093;0.0;0.0;0.0;0.5563200116157532;-0.1727519929409027;0.8998720049858093;0.0;0.0;0.0
1095;0.4416399896144867;-0.03245199844241142;0.7754319906234741;0.5485119819641113;-0.1571359932422638;0.9291520118713379;0.4112499952316284;0.5600000023841858;7.271249771118164
1097;0.0;0.0;0.0;0.5446079969406128;-0.1844639927148819;0.912559986114502;0.0;0.0;0.0
1099;0.0;0.0;0.0;0.5524159669876099;-0.19617599248886108;0.912559986114502;0.0;0.0;0.0
1101;0.0;0.0;0.0;0.4938559830188751;-0.09467199444770813;0.936959981918335;0.0;0.0;0.0
1104;0.4138239920139313;-0.024156000465154648;0.7866559624671936;0.5524159669876099;-0.16103999316692352;0.9242720007896423;-1.96875;9.730000495910645;4.471250057220459
1106;0.0;0.0;0.0;0.4938559830188751;-0.17665599286556244;0.936959981918335;0.0;0.0;0.0
1108;0.0;0.0;0.0;0.48604798316955566;-0.2391199916601181;0.920367956161499;0.0;0.0;0.0
1110;0.0;0.0;0.0;0.4470079839229584;-0.21569599211215973;0.912559986114502;0.0;0.0;0.0
1112;0.36575600504875183;-0.08442399650812149;0.7954399585723877;0.48214399814605713;-0.27425599098205566;0.9330559968948364;-8.12874984741211;13.930000305175781;4.471250057220459
1114;0.0;0.0;0.0;0.4509119987487793;-0.2820639908313751;0.9330559968948364;0.0;0.0;0.0
1116;0.0;0.0;0.0;0.4352959990501404;-0.3093920052051544;0.9330559968948364;0.0;0.0;0.0
1118;0.0;0.0;0.0;0.40406399965286255;-0.3328160047531128;0.961359977722168;0.0;0.0;0.0
1121;0.2989000082015991;-0.1756799966096878;0.8203279972076416;0.36209598183631897;-0.31329599022865295;0.9769759774208069;-12.46875;15.610000610351562;-1.96875
1123;0.0;0.0;0.0;0.3542879819869995;-0.3093920052051544;1.0062559843063354;0.0;0.0;0.0
1125;0.0;0.0;0.0;0.3269599974155426;-0.32891198992729187;0.9935680031776428;0.0;0.0;0.0
1127;0.0;0.0;0.0;0.3152479827404022;-0.32500800490379333;1.0296800136566162;0.0;0.0;0.0
1129;0.22545599937438965;-0.18373200297355652;0.8693720102310181;0.3230559825897217;-0.3172000050544739;1.0218719244003296;-14.568750381469727;10.5;-6.658750057220459
1131;0.0;0.0;0.0;0.3269599974155426;-0.3484320044517517;1.0140639543533325;0.0;0.0;0.0
1133;0.0;0.0;0.0;0.3230559825897217;-0.32891198992729187;0.9935680031776428;0.0;0.0;0.0
1135;0.0;0.0;0.0;0.3152479827404022;-0.3640480041503906;1.010159969329834;0.0;0.0;0.0
1138;0.19129599630832672;-0.21325600147247314;0.8788880109786987;0.2996319830417633;-0.3835679888725281;1.0257760286331177;-15.828750610351562;-0.5600000023841858;-8.758749961853027
1140;0.0;0.0;0.0;0.29572799801826477;-0.4030880033969879;1.0013760328292847;0.0;0.0;0.0
1142;0.0;0.0;0.0;0.2996319830417633;-0.4382239878177643;1.0013760328292847;0.0;0.0;0.0
1144;0.0;0.0;0.0;0.3230559825897217;-0.42260798811912537;1.0218719244003296;0.0;0.0;0.0
1146;0.18470799922943115;-0.2840159833431244;0.8688839673995972;0.30743998289108276;-0.44993600249290466;0.9769759774208069;-16.108749389648438;-11.899999618530273;-11.208749771118164
1148;0.0;0.0;0.0;0.3659999966621399;-0.4577440023422241;0.9818559885025024;0.0;0.0;0.0
1150;0.0;0.0;0.0;0.3542879819869995;-0.42260798811912537;0.9935680031776428;0.0;0.0;0.0
1153;0.0;0.0;0.0;0.3230559825897217;-0.44603198766708374;1.010159969329834;0.0;0.0;0.0
1155;0.2239919900894165;-0.30743998289108276;0.8649799823760986;0.33086398243904114;-0.4577440023422241;1.0013760328292847;-16.948749542236328;-18.19999885559082;-13.30875015258789
1157;0.0;0.0;0.0;0.33476799726486206;-0.4577440023422241;1.0140639543533325;0.0;0.0;0.0
1159;0.0;0.0;0.0;0.3425759971141815;-0.4577440023422241;1.034559965133667;0.0;0.0;0.0
1161;0.0;0.0;0.0;0.3542879819869995;-0.5123999714851379;1.0013760328292847;0.0;0.0;0.0
1163;0.22472399473190308;-0.3352559804916382;0.8864519596099854;0.3386719822883606;-0.4772639870643616;1.0218719244003296;-19.53874969482422;-17.920000076293945;-13.098750114440918
1165;0.0;0.0;0.0;0.3152479827404022;-0.4967840015888214;1.010159969329834;0.0;0.0;0.0
1167;0.0;0.0;0.0;0.3152479827404022;-0.48897600173950195;1.0540800094604492;0.0;0.0;0.0
1170;0.0;0.0;0.0;0.3230559825897217;-0.5241119861602783;1.0257760286331177;0.0;0.0;0.0
1172;0.2054480016231537;-0.3694159984588623;0.9054839611053467;0.3113439977169037;-0.5436319708824158;1.0501760244369507;-21.00874900817871;-15.329999923706055;-11.838749885559082
1174;0.0;0.0;0.0;0.3230559825897217;-0.5358240008354187;1.0501760244369507;0.0;0.0;0.0
1176;0.0;0.0;0.0;0.31915199756622314;-0.563152015209198;1.083359956741333;0.0;0.0;0.0
1178;0.0;0.0;0.0;0.2683999836444855;-0.5787680149078369;1.066767930984497;0.0;0.0;0.0
1180;0.17323999106884003;-0.42138800024986267;0.9393999576568604;0.28011199831962585;-0.5826719999313354;1.09116792678833;-19.32874870300293;-15.1899995803833;-8.688749313354492
1182;0.0;0.0;0.0;0.2566879987716675;-0.6139039993286133;1.0989760160446167;0.0;0.0;0.0
1184;0.0;0.0;0.0;0.28011199831962585;-0.6060959696769714;1.0950720310211182;0.0;0.0;0.0
1187;0.0;0.0;0.0;0.29182398319244385;-0.5982879996299744;1.1067839860916138;0.0;0.0;0.0
1189;0.16274799406528473;-0.4626239836215973;0.9698999524116516;0.2879199981689453;-0.5982879996299744;1.1233760118484497;-15.61875057220459;-18.1299991607666;-7.008749961853027
1191;0.0;0.0;0.0;0.22935999929904938;-0.6451359987258911;1.115567922592163;0.0;0.0;0.0
1193;0.0;0.0;0.0;0.24107199907302856;-0.6412320137023926;1.1233760118484497;0.0;0.0;0.0
1195;0.0;0.0;0.0;0.26449599862098694;-0.66075199842453;1.1438720226287842;0.0;0.0;0.0
1197;0.1378600001335144;-0.5016639828681946;0.9989359974861145;0.2996319830417633;-0.6295199990272522;1.1350879669189453;-10.088749885559082;-24.5;-7.428750038146973
1199;0.0;0.0;0.0;0.31915199756622314;-0.6295199990272522;1.1477760076522827;0.0;0.0;0.0
1201;0.0;0.0;0.0;0.33476799726486206;-0.6490399837493896;1.1194720268249512;0.0;0.0;0.0
1204;0.0;0.0;0.0;0.31915199756622314;-0.6685599684715271;1.1438720226287842;0.0;0.0;0.0
1206;0.1995919942855835;-0.5187439918518066;1.0011320114135742;0.3542879819869995;-0.6646559834480286;1.1194720268249512;-5.888749599456787;-35.06999969482422;-11.138750076293945
1208;0.0;0.0;0.0;0.34647998213768005;-0.6724640130996704;1.1028800010681152;0.0;0.0;0.0
1210;0.0;0.0;0.0;0.3425759971141815;-0.6490399837493896;1.115567922592163;0.0;0.0;0.0
1212;0.0;0.0;0.0;0.37380799651145935;-0.6490399837493896;1.1028800010681152;0.0;0.0;0.0
1214;0.24692799150943756;-0.5238679647445679;0.9728279709815979;0.423583984375;-0.6451359987258911;1.0706720352172852;-3.71875;-40.18000030517578;-17.578750610351562
1216;0.0;0.0;0.0;0.423583984375;-0.6256160140037537;1.0706720352172852;0.0;0.0;0.0
1218;0.0;0.0;0.0;0.411871999502182;-0.6529439687728882;1.0540800094604492;0.0;0.0;0.0
1221;0.0;0.0;0.0;0.4391999840736389;-0.6060959696769714;1.042367935180664;0.0;0.0;0.0
1223;0.3172000050544739;-0.49141597747802734;0.9264679551124573;0.4665279984474182;-0.6373279690742493;1.0218719244003296;-2.1787500381469727;-39.20000076293945;-23.458749771118164
1225;0.0;0.0;0.0;0.47043198347091675;-0.5982879996299744;1.0140639543533325;0.0;0.0;0.0
1227;0.0;0.0;0.0;0.47433599829673767;-0.5826719999313354;1.0218719244003296;0.0;0.0;0.0
1229;0.0;0.0;0.0;0.47433599829673767;-0.5943840146064758;1.010159969329834;0.0;0.0;0.0
1231;0.3374519944190979;-0.464819997549057;0.8896239995956421;0.44310399889945984;-0.5748639702796936;1.010159969329834;-1.6887500286102295;-31.639999389648438;-28.28875160217285
1233;0.0;0.0;0.0;0.4626239836215973;-0.6060959696769714;1.0140639543533325;0.0;0.0;0.0
1235;0.0;0.0;0.0;0.4626239836215973;-0.5826719999313354;1.0335839986801147;0.0;0.0;0.0
1238;0.0;0.0;0.0;0.41967999935150146;-0.5982879996299744;1.042367935180664;0.0;0.0;0.0
1240;0.3286679983139038;-0.45749998092651367;0.8949919939041138;0.4274879992008209;-0.5904799699783325;1.034559965133667;-4.138749599456787;-20.299999237060547;-33.74875259399414
1242;0.0;0.0;0.0;0.3933279812335968;-0.5943840146064758;1.0218719244003296;0.0;0.0;0.0
1244;0.0;0.0;0.0;0.3659999966621399;-0.6178079843521118;1.0257760286331177;0.0;0.0;0.0
1246;0.0;0.0;0.0;0.3386719822883606;-0.6217119693756104;1.066767930984497;0.0;0.0;0.0
1248;0.2610799968242645;-0.4840959906578064;0.9218319654464722;0.3425759971141815;-0.6412320137023926;1.0501760244369507;-10.018750190734863;-8.469999313354492;-38.71875
1250;0.0;0.0;0.0;0.31915199756622314;-0.6256160140037537;1.0784800052642822;0.0;0.0;0.0
1252;0.0;0.0;0.0;0.29182398319244385;-0.6256160140037537;1.0628639459609985;0.0;0.0;0.0
1255;0.0;0.0;0.0;0.29182398319244385;-0.6529439687728882;1.0950720310211182;0.0;0.0;0.0
1257;0.17714399099349976;-0.509227991104126;0.9520879983901978;0.21374399960041046;-0.66075199842453;1.0784800052642822;-15.548749923706055;2.5900001525878906;-43.19874954223633
1259;0.0;0.0;0.0;0.22155199944972992;-0.6685599684715271;1.115567922592163;0.0;0.0;0.0
1261;0.0;0.0;0.0;0.1903200000524521;-0.6685599684715271;1.115567922592163;0.0;0.0;0.0
1263;0.0;0.0;0.0;0.15908800065517426;-0.6646559834480286;1.1477760076522827;0.0;0.0;0.0
1265;0.054899998009204865;-0.5343599915504456;0.9869799613952637;0.13663999736309052;-0.6802719831466675;1.1360639333724976;-17.228750228881836;9.660000801086426;-46.2087516784668
1267;0.0;0.0;0.0;0.07417599856853485;-0.6646559834480286;1.1477760076522827;0.0;0.0;0.0
1269;0.0;0.0;0.0;0.07807999849319458;-0.6958879828453064;1.1438720226287842;0.0;0.0;0.0
1272;0.0;0.0;0.0;0.027327999472618103;-0.6802719831466675;1.1721760034561157;0.0;0.0;0.0
1274;-0.05953599885106087;-0.5509520173072815;1.0296800136566162;-0.015615999698638916;-0.7075999975204468;1.1721760034561157;-15.408750534057617;9.660000801086426;-47.46875
1276;0.0;0.0;0.0;0.023423999547958374;-0.6919839978218079;1.1799839735031128;0.0;0.0;0.0
1278;0.0;0.0;0.0;-0.031231999397277832;-0.7115039825439453;1.1721760034561157;0.0;0.0;0.0
1280;0.0;0.0;0.0;-0.019519999623298645;-0.684175968170166;1.1838879585266113;0.0;0.0;0.0
1282;-0.13590799272060394;-0.5546119809150696;1.0477359294891357;-0.04684799909591675;-0.6685599684715271;1.1965759992599487;-12.188750267028809;5.809999942779541;-48.44874954223633
1284;0.0;0.0;0.0;-0.0663679987192154;-0.676367998123169;1.1838879585266113;0.0;0.0;0.0
1286;0.0;0.0;0.0;-0.08198399841785431;-0.6958879828453064;1.1799839735031128;0.0;0.0;0.0
1289;0.0;0.0;0.0;-0.10833600163459778;-0.684175968170166;1.1799839735031128;0.0;0.0;0.0
1291;-0.20495998859405518;-0.545583963394165;1.0516400337219238;-0.1239520013332367;-0.6568480134010315;1.1838879585266113;-8.12874984741211;0.0;-48.938751220703125
1293;0.0;0.0;0.0;-0.1239520013332367;-0.6724640130996704;1.1877919435501099;0.0;0.0;0.0
1295;0.0;0.0;0.0;-0.10833600163459778;-0.6568480134010315;1.1643680334091187;0.0;0.0;0.0
1297;0.0;0.0;0.0;-0.1239520013332367;-0.6451359987258911;1.1721760034561157;0.0;0.0;0.0
1299;-0.23668000102043152;-0.522159993648529;1.0413919687271118;-0.11224000155925751;-0.6334239840507507;1.1721760034561157;-3.9287500381469727;-7.0;-48.868751525878906
1302;0.0;0.0;0.0;-0.12004800140857697;-0.6334239840507507;1.1721760034561157;0.0;0.0;0.0
1303;0.0;0.0;0.0;-0.13176000118255615;-0.6021919846534729;1.1799839735031128;0.0;0.0;0.0
1306;0.0;0.0;0.0;-0.10052800178527832;-0.586575984954834;1.1721760034561157;0.0;0.0;0.0
1308;-0.23643599450588226;-0.4875119924545288;1.030900001525879;-0.10833600163459778;-0.586575984954834;1.1477760076522827;0.13124999403953552;-13.229999542236328;-47.678749084472656
1310;0.0;0.0;0.0;-0.10833600163459778;-0.6060959696769714;1.1516799926757812;0.0;0.0;0.0
1312;0.0;0.0;0.0;-0.10540799796581268;-0.5982879996299744;1.1477760076522827;0.0;0.0;0.0
1314;0.0;0.0;0.0;-0.09272000193595886;-0.5748639702796936;1.1477760076522827;0.0;0.0;0.0
1316;-0.2252119928598404;-0.46335598826408386;1.0140639543533325;-0.10931199789047241;-0.5748639702796936;1.1233760118484497;2.4412500858306885;-17.43000030517578;-46.62874984741211
1319;0.0;0.0;0.0;-0.11614400148391724;-0.586575984954834;1.1311839818954468;0.0;0.0;0.0
1321;0.0;0.0;0.0;-0.08198399841785431;-0.5709599852561951;1.1233760118484497;0.0;0.0;0.0
1323;0.0;0.0;0.0;-0.1239520013332367;-0.5553439855575562;1.1233760118484497;0.0;0.0;0.0
1325;-0.23179998993873596;-0.4438360035419464;1.0030839443206787;-0.09662400186061859;-0.563152015209198;1.1438720226287842;2.791249990463257;-20.020000457763672;-47.74875259399414
1327;0.0;0.0;0.0;-0.08881600201129913;-0.563152015209198;1.139967918395996;0.0;0.0;0.0
1329;0.0;0.0;0.0;-0.12785600125789642;-0.5709599852561951;1.1233760118484497;0.0;0.0;0.0
1331;0.0;0.0;0.0;-0.11614400148391724;-0.5514400005340576;1.1477760076522827;0.0;0.0;0.0
1333;-0.24253599345684052;-0.43139198422431946;1.0001559257507324;-0.12004800140857697;-0.5787680149078369;1.139967918395996;1.3912500143051147;-23.729999542236328;-49.56875228881836
1336;0.0;0.0;0.0;-0.13176000118255615;-0.5748639702796936;1.139967918395996;0.0;0.0;0.0
1338;0.0;0.0;0.0;-0.1395680010318756;-0.5748639702796936;1.1272799968719482;0.0;0.0;0.0
1340;0.0;0.0;0.0;-0.13176000118255615;-0.5709599852561951;1.1438720226287842;0.0;0.0;0.0
1342;-0.2432679980993271;-0.43553999066352844;1.0082080364227295;-0.15518400073051453;-0.5787680149078369;1.1555839776992798;-1.2687500715255737;-25.34000015258789;-50.54875183105469
1344;0.0;0.0;0.0;-0.12785600125789642;-0.6021919846534729;1.1516799926757812;0.0;0.0;0.0
1346;0.0;0.0;0.0;-0.17080000042915344;-0.5475360155105591;1.1516799926757812;0.0;0.0;0.0
1348;0.0;0.0;0.0;-0.1512800008058548;-0.5709599852561951;1.1477760076522827;0.0;0.0;0.0
1350;-0.27962398529052734;-0.4391999840736389;1.0223599672317505;-0.1786080002784729;-0.5592479705810547;1.1643680334091187;-3.5787501335144043;-26.25;-49.848751068115234
1353;0.0;0.0;0.0;-0.22935999929904938;-0.5748639702796936;1.1721760034561157;0.0;0.0;0.0
1355;0.0;0.0;0.0;-0.205935999751091;-0.5670560002326965;1.1682720184326172;0.0;0.0;0.0
1357;0.0;0.0;0.0;-0.1903200000524521;-0.5826719999313354;1.1760799884796143;0.0;0.0;0.0
1359;-0.3164680004119873;-0.4496919810771942;1.0413919687271118;-0.19812799990177155;-0.5787680149078369;1.1760799884796143;-4.278749942779541;-29.610000610351562;-47.258750915527344
1361;0.0;0.0;0.0;-0.1903200000524521;-0.5904799699783325;1.1926720142364502;0.0;0.0;0.0
1363;0.0;0.0;0.0;-0.20983999967575073;-0.6060959696769714;1.1799839735031128;0.0;0.0;0.0
1365;0.0;0.0;0.0;-0.19422399997711182;-0.6139039993286133;1.1926720142364502;0.0;0.0;0.0
1367;-0.3172000050544739;-0.47165200114250183;1.0460280179977417;-0.18251200020313263;-0.6139039993286133;1.1799839735031128;-2.458750009536743;-35.630001068115234;-44.03874969482422
1370;0.0;0.0;0.0;-0.19422399997711182;-0.6412320137023926;1.1594879627227783;0.0;0.0;0.0
1372;0.0;0.0;0.0;-0.18251200020313263;-0.6100000143051147;1.1721760034561157;0.0;0.0;0.0
1374;0.0;0.0;0.0;-0.16299200057983398;-0.6100000143051147;1.1887680292129517;0.0;0.0;0.0
1376;-0.30109599232673645;-0.4811680018901825;1.0413919687271118;-0.14347200095653534;-0.6139039993286133;1.1438720226287842;1.7412500381469727;-42.0;-40.53874969482422
1378;0.0;0.0;0.0;-0.1668960005044937;-0.5943840146064758;1.1965759992599487;0.0;0.0;0.0
1380;0.0;0.0;0.0;-0.14347200095653534;-0.6060959696769714;1.1272799968719482;0.0;0.0;0.0
1382;0.0;0.0;0.0;-0.1239520013332367;-0.6060959696769714;1.1311839818954468;0.0;0.0;0.0
1384;-0.2727919816970825;-0.45749998092651367;1.0167479515075684;-0.1395680010318756;-0.5592479705810547;1.1438720226287842;7.551250457763672;-48.790000915527344;-37.73875045776367
1387;0.0;0.0;0.0;-0.08979199826717377;-0.5436319708824158;1.115567922592163;0.0;0.0;0.0
1389;0.0;0.0;0.0;-0.0849120020866394;-0.5358240008354187;1.0706720352172852;0.0;0.0;0.0
1391;0.0;0.0;0.0;-0.0663679987192154;-0.5084959864616394;1.0628639459609985;0.0;0.0;0.0
1393;-0.20081199705600739;-0.4050399959087372;0.9579439759254456;-0.062463998794555664;-0.5045920014381409;1.0257760286331177;13.851249694824219;-52.709999084472656;-34.72875213623047
1395;0.0;0.0;0.0;0.003903999924659729;-0.5163040161132812;1.0501760244369507;0.0;0.0;0.0
1397;0.0;0.0;0.0;-0.027327999472618103;-0.4928799867630005;1.0140639543533325;0.0;0.0;0.0
1399;0.0;0.0;0.0;-0.015615999698638916;-0.4538399875164032;1.0140639543533325;0.0;0.0;0.0
1401;-0.13298000395298004;-0.34696799516677856;0.9018239974975586;-0.003903999924659729;-0.44993600249290466;1.010159969329834;18.751251220703125;-49.349998474121094;-32.62874984741211
1404;0.0;0.0;0.0;0.0;-0.43432000279426575;1.0218719244003296;0.0;0.0;0.0
1406;0.0;0.0;0.0;0.031231999397277832;-0.40699198842048645;1.010159969329834;0.0;0.0;0.0
1408;0.0;0.0;0.0;0.003903999924659729;-0.387472003698349;1.0218719244003296;0.0;0.0;0.0
1410;-0.1041879951953888;-0.28596800565719604;0.8820599913597107;0.023423999547958374;-0.3835679888725281;1.010159969329834;19.661251068115234;-41.5099983215332;-30.668750762939453
1412;0.0;0.0;0.0;0.031231999397277832;-0.3328160047531128;1.0140639543533325;0.0;0.0;0.0
1414;0.0;0.0;0.0;0.027327999472618103;-0.33671998977661133;1.0257760286331177;0.0;0.0;0.0
1416;0.0;0.0;0.0;0.058559998869895935;-0.30158400535583496;1.0052800178527832;0.0;0.0;0.0
1418;-0.0773480013012886;-0.18885599076747894;0.8925519585609436;0.058559998869895935;-0.2547360062599182;1.034559965133667;15.251250267028809;-32.34000015258789;-28.848751068115234
1421;0.0;0.0;0.0;0.058559998869895935;-0.2781600058078766;1.010159969329834;0.0;0.0;0.0
1423;0.0;0.0;0.0;0.11321599781513214;-0.2508319914340973;1.0140639543533325;0.0;0.0;0.0
1425;0.0;0.0;0.0;0.10540799796581268;-0.22740799188613892;1.042367935180664;0.0;0.0;0.0
1427;-0.025863999500870705;-0.1256600022315979;0.896943986415863;0.10540799796581268;-0.2547360062599182;1.0218719244003296;7.831250190734863;-18.34000015258789;-28.498750686645508
1429;0.0;0.0;0.0;0.07807999849319458;-0.20398399233818054;1.0501760244369507;0.0;0.0;0.0
1431;0.0;0.0;0.0;0.05075199902057648;-0.24692799150943756;1.066767930984497;0.0;0.0;0.0
1433;0.0;0.0;0.0;0.04684799909591675;-0.22740799188613892;1.0706720352172852;0.0;0.0;0.0
1435;-0.05782799795269966;-0.11565599590539932;0.9323239922523499;0.027327999472618103;-0.2781600058078766;1.0950720310211182;1.1112499237060547;-0.41999998688697815;-29.548749923706055
1438;0.0;0.0;0.0;0.011711999773979187;-0.2547360062599182;1.1116639375686646;0.0;0.0;0.0
1440;0.0;0.0;0.0;-0.031231999397277832;-0.27425599098205566;1.1272799968719482;0.0;0.0;0.0
1442;0.0;0.0;0.0;-0.023423999547958374;-0.2547360062599182;1.1233760118484497;0.0;0.0;0.0
1444;-0.13688400387763977;-0.1437159925699234;0.9879559874534607;-0.04294399917125702;-0.2937760055065155;1.1311839818954468;-3.5787501335144043;10.570000648498535;-31.298749923706055
1446;0.0;0.0;0.0;-0.08979199826717377;-0.29767999053001404;1.1477760076522827;0.0;0.0;0.0
1448;0.0;0.0;0.0;-0.07807999849319458;-0.27035200595855713;1.1633919477462769;0.0;0.0;0.0
1450;0.0;0.0;0.0;-0.10052800178527832;-0.3054879903793335;1.1682720184326172;0.0;0.0;0.0
1452;-0.19934800267219543;-0.15933199226856232;1.0338280200958252;-0.10443200170993805;-0.31329599022865295;1.1643680334091187;-6.09874963760376;12.600000381469727;-32.69874954223633
1455;0.0;0.0;0.0;-0.11224000155925751;-0.2898719906806946;1.1926720142364502;0.0;0.0;0.0
1457;0.0;0.0;0.0;-0.12785600125789642;-0.2898719906806946;1.2121919393539429;0.0;0.0;0.0
1459;0.0;0.0;0.0;-0.1239520013332367;-0.3093920052051544;1.2004799842834473;0.0;0.0;0.0
1461;-0.24424399435520172;-0.1710439920425415;1.0613999366760254;-0.16299200057983398;-0.3172000050544739;1.2082879543304443;-6.448750019073486;10.780000686645508;-33.118751525878906
1463;0.0;0.0;0.0;-0.15518400073051453;-0.32500800490379333;1.2004799842834473;0.0;0.0;0.0
1465;0.0;0.0;0.0;-0.15908800065517426;-0.3328160047531128;1.2004799842834473;0.0;0.0;0.0
1467;0.0;0.0;0.0;-0.1668960005044937;-0.32891198992729187;1.1965759992599487;0.0;0.0;0.0
1469;-0.2881639897823334;-0.187391996383667;1.0635960102081299;-0.17470400035381317;-0.3172000050544739;1.1721760034561157;-4.558749675750732;7.0;-31.508750915527344
1472;0.0;0.0;0.0;-0.16299200057983398;-0.3211039900779724;1.1721760034561157;0.0;0.0;0.0
1474;0.0;0.0;0.0;-0.15908800065517426;-0.32891198992729187;1.1721760034561157;0.0;0.0;0.0
1476;0.0;0.0;0.0;-0.15518400073051453;-0.27425599098205566;1.1887680292129517;0.0;0.0;0.0
1478;-0.2757200002670288;-0.1705559939146042;1.0479799509048462;-0.16299200057983398;-0.3093920052051544;1.1721760034561157;-0.8487499952316284;3.8500001430511475;-26.53875160217285
1480;0.0;0.0;0.0;-0.17080000042915344;-0.29767999053001404;1.1760799884796143;0.0;0.0;0.0
1482;0.0;0.0;0.0;-0.17080000042915344;-0.26254400610923767;1.1604639291763306;0.0;0.0;0.0
1484;0.0;0.0;0.0;-0.15908800065517426;-0.26254400610923767;1.1760799884796143;0.0;0.0;0.0
1486;-0.27303600311279297;-0.1407880038022995;1.0433440208435059;-0.15908800065517426;-0.2664479911327362;1.1594879627227783;2.021250009536743;3.5;-19.188751220703125
1489;0.0;0.0;0.0;-0.14737600088119507;-0.2547360062599182;1.1721760034561157;0.0;0.0;0.0
1491;0.0;0.0;0.0;-0.13176000118255615;-0.26254400610923767;1.1682720184326172;0.0;0.0;0.0
1493;0.0;0.0;0.0;-0.14737600088119507;-0.23131199181079865;1.1799839735031128;0.0;0.0;0.0
1495;-0.2735239863395691;-0.10467600077390671;1.046515941619873;-0.11614400148391724;-0.19617599248886108;1.1838879585266113;3.0712499618530273;2.870000123977661;-11.97874927520752
1497;0.0;0.0;0.0;-0.15908800065517426;-0.21569599211215973;1.1926720142364502;0.0;0.0;0.0
1499;0.0;0.0;0.0;-0.12785600125789642;-0.20398399233818054;1.1760799884796143;0.0;0.0;0.0
1501;0.0;0.0;0.0;-0.14347200095653534;-0.2000799924135208;1.1682720184326172;0.0;0.0;0.0
1503;-0.25522398948669434;-0.06905199587345123;1.0538359880447388;-0.1239520013332367;-0.17665599286556244;1.1594879627227783;2.8612499237060547;1.1899999380111694;-5.958750247955322
1506;0.0;0.0;0.0;-0.12785600125789642;-0.18055999279022217;1.1965759992599487;0.0;0.0;0.0
1508;0.0;0.0;0.0;-0.10443200170993805;-0.19227199256420135;1.1799839735031128;0.0;0.0;0.0
1510;0.0;0.0;0.0;-0.10443200170993805;-0.16884799301624298;1.2043839693069458;0.0;0.0;0.0
1512;-0.23472799360752106;-0.04806799814105034;1.0513960123062134;-0.12004800140857697;-0.16494399309158325;1.1799839735031128;3.141249895095825;0.699999988079071;-1.4787499904632568
1514;0.0;0.0;0.0;-0.12004800140857697;-0.16103999316692352;1.1594879627227783;0.0;0.0;0.0
1516;0.0;0.0;0.0;-0.11614400148391724;-0.18055999279022217;1.1887680292129517;0.0;0.0;0.0
1518;0.0;0.0;0.0;-0.08979199826717377;-0.19227199256420135;1.1682720184326172;0.0;0.0;0.0
1520;-0.2164279967546463;-0.043431997299194336;1.0557879209518433;-0.08198399841785431;-0.20398399233818054;1.1965759992599487;3.911249876022339;0.14000001549720764;1.7412500381469727
1523;0.0;0.0;0.0;-0.058559998869895935;-0.1571359932422638;1.1926720142364502;0.0;0.0;0.0
1525;0.0;0.0;0.0;-0.015615999698638916;-0.18836799263954163;1.1887680292129517;0.0;0.0;0.0
1527;0.0;0.0;0.0;-0.031231999397277832;-0.17665599286556244;1.2326879501342773;0.0;0.0;0.0
1529;-0.16884799301624298;-0.04123599827289581;1.0682319402694702;-0.03513599932193756;-0.1571359932422638;1.2121919393539429;4.331250190734863;0.3500000238418579;3.5612502098083496
1531;0.0;0.0;0.0;-0.04294399917125702;-0.15323199331760406;1.1926720142364502;0.0;0.0;0.0
1533;0.0;0.0;0.0;-0.062463998794555664;-0.1571359932422638;1.2043839693069458;0.0;0.0;0.0
1535;0.0;0.0;0.0;-0.0663679987192154;-0.16884799301624298;1.2248799800872803;0.0;0.0;0.0
1537;-0.1634799987077713;-0.04123599827289581;1.079211950302124;-0.054655998945236206;-0.1571359932422638;1.2004799842834473;3.7012500762939453;1.1200000047683716;5.801249980926514
1540;0.0;0.0;0.0;-0.03513599932193756;-0.19227199256420135;1.2131680250167847;0.0;0.0;0.0
1542;0.0;0.0;0.0;-0.03903999924659729;-0.2117919921875;1.2043839693069458;0.0;0.0;0.0
1544;0.0;0.0;0.0;-0.03513599932193756;-0.16494399309158325;1.2043839693069458;0.0;0.0;0.0
1546;-0.16494399309158325;-0.044895999133586884;1.0799440145492554;-0.019519999623298645;-0.13761599361896515;1.2170720100402832;2.791249990463257;1.3299999237060547;7.691249847412109
1548;0.0;0.0;0.0;-0.027327999472618103;-0.16494399309158325;1.2004799842834473;0.0;0.0;0.0
1550;0.0;0.0;0.0;-0.011711999773979187;-0.16103999316692352;1.2248799800872803;0.0;0.0;0.0
1552;0.0;0.0;0.0;-0.04684799909591675;-0.1571359932422638;1.2004799842834473;0.0;0.0;0.0
1554;-0.1512800008058548;-0.032207999378442764;1.0840920209884644;-0.03513599932193756;-0.17665599286556244;1.2170720100402832;1.3912500143051147;3.009999990463257;11.051250457763672
1557;0.0;0.0;0.0;-0.019519999623298645;-0.20788799226284027;1.2248799800872803;0.0;0.0;0.0
1559;0.0;0.0;0.0;-0.007807999849319458;-0.2235039919614792;1.1926720142364502;0.0;0.0;0.0
1561;0.0;0.0;0.0;-0.007807999849319458;-0.21959999203681946;1.1838879585266113;0.0;0.0;0.0
1563;-0.1378600001335144;-0.06831999868154526;1.0696959495544434;-0.015615999698638916;-0.20788799226284027;1.2121919393539429;1.3212499618530273;7.349999904632568;13.78125
1565;0.0;0.0;0.0;0.0;-0.2000799924135208;1.2004799842834473;0.0;0.0;0.0
1567;0.0;0.0;0.0;-0.011711999773979187;-0.16884799301624298;1.2209759950637817;0.0;0.0;0.0
1569;0.0;0.0;0.0;-0.003903999924659729;-0.16494399309158325;1.2365919351577759;0.0;0.0;0.0
1571;-0.1273680031299591;-0.056120000779628754;1.085312008857727;0.007807999849319458;-0.16494399309158325;1.1965759992599487;3.911249876022339;10.360000610351562;17.631250381469727
1574;0.0;0.0;0.0;0.007807999849319458;-0.1571359932422638;1.2082879543304443;0.0;0.0;0.0
1576;0.0;0.0;0.0;0.023423999547958374;-0.14932799339294434;1.2004799842834473;0.0;0.0;0.0
1578;0.0;0.0;0.0;0.031231999397277832;-0.13761599361896515;1.2248799800872803;0.0;0.0;0.0
1580;-0.09101200103759766;-0.015859998762607574;1.0845799446105957;0.04684799909591675;-0.14932799339294434;1.2043839693069458;6.641250133514404;11.410000801086426;22.251249313354492
1582;0.0;0.0;0.0;0.08588799834251404;-0.1298079937696457;1.2082879543304443;0.0;0.0;0.0
1584;0.0;0.0;0.0;0.062463998794555664;-0.1298079937696457;1.1926720142364502;0.0;0.0;0.0
1586;0.0;0.0;0.0;0.054655998945236206;-0.14151999354362488;1.2004799842834473;0.0;0.0;0.0
1588;-0.05831599980592728;0.003903999924659729;1.0699399709701538;0.062463998794555664;-0.12590399384498596;1.2121919393539429;9.931249618530273;13.930000305175781;25.331249237060547
1591;0.0;0.0;0.0;0.058559998869895935;-0.12590399384498596;1.1887680292129517;0.0;0.0;0.0
1593;0.0;0.0;0.0;0.08588799834251404;-0.11419199407100677;1.2043839693069458;0.0;0.0;0.0
1595;0.0;0.0;0.0;0.0663679987192154;-0.07905599474906921;1.1799839735031128;0.0;0.0;0.0
1597;-0.04513999819755554;0.02757199853658676;1.0638400316238403;0.10540799796581268;-0.10638399422168732;1.1760799884796143;12.87125015258789;16.520000457763672;24.98124885559082
1599;0.0;0.0;0.0;0.09759999811649323;-0.07124799489974976;1.2004799842834473;0.0;0.0;0.0
1601;0.0;0.0;0.0;0.0936959981918335;-0.06734399497509003;1.1926720142364502;0.0;0.0;0.0
1603;0.0;0.0;0.0;0.12883199751377106;-0.07905599474906921;1.1965759992599487;0.0;0.0;0.0
1605;-0.015615999698638916;0.0634399950504303;1.0574959516525269;0.11321599781513214;-0.05563199892640114;1.1965759992599487;13.571249961853027;19.040000915527344;23.021249771118164
1608;0.0;0.0;0.0;0.10150399804115295;-0.04391999915242195;1.1838879585266113;0.0;0.0;0.0
1610;0.0;0.0;0.0;0.13663999736309052;-0.03611199930310249;1.1760799884796143;0.0;0.0;0.0
1612;0.0;0.0;0.0;0.12883199751377106;-0.03611199930310249;1.1799839735031128;0.0;0.0;0.0
1614;0.003415999934077263;0.09149999916553497;1.0474920272827148;0.12883199751377106;-0.032207999378442764;1.1887680292129517;11.891249656677246;23.450000762939453;21.971248626708984
1616;0.0;0.0;0.0;0.13663999736309052;-0.004879999905824661;1.1887680292129517;0.0;0.0;0.0
1618;0.0;0.0;0.0;0.12492799758911133;-0.01268799975514412;1.1721760034561157;0.0;0.0;0.0
1620;0.0;0.0;0.0;0.12492799758911133;0.0029279999434947968;1.1799839735031128;0.0;0.0;0.0
1622;-0.003903999924659729;0.1210239976644516;1.0477359294891357;0.10150399804115295;-0.00878399983048439;1.1799839735031128;8.111249923706055;28.770000457763672;22.811248779296875
1625;0.0;0.0;0.0;0.08979199826717377;0.006831999868154526;1.1682720184326172;0.0;0.0;0.0
1627;0.0;0.0;0.0;0.10150399804115295;-0.0009759999811649323;1.1926720142364502;0.0;0.0;0.0
1629;0.0;0.0;0.0;0.058559998869895935;0.0029279999434947968;1.1721760034561157;0.0;0.0;0.0
1631;-0.030988000333309174;0.12614800035953522;1.0499320030212402;0.058559998869895935;-0.024399999529123306;1.1799839735031128;3.421250104904175;32.40999984741211;24.35124969482422
1633;0.0;0.0;0.0;0.058559998869895935;0.0029279999434947968;1.1965759992599487;0.0;0.0;0.0
1635;0.0;0.0;0.0;0.08979199826717377;0.006831999868154526;1.2043839693069458;0.0;0.0;0.0
1637;0.0;0.0;0.0;0.07807999849319458;0.0029279999434947968;1.2326879501342773;0.0;0.0;0.0
1639;-0.05441199988126755;0.1373720020055771;1.0701839923858643;0.03513599932193756;0.010735999792814255;1.1965759992599487;0.6912499666213989;33.18000030517578;25.471248626708984
1642;0.0;0.0;0.0;0.04684799909591675;0.018543999642133713;1.2209759950637817;0.0;0.0;0.0
1644;0.0;0.0;0.0;0.08198399841785431;0.02635199949145317;1.2004799842834473;0.0;0.0;0.0
1646;0.0;0.0;0.0;0.062463998794555664;0.0302559994161129;1.2170720100402832;0.0;0.0;0.0
1648;-0.058559998869895935;0.14395999908447266;1.079211950302124;0.07027199864387512;-0.0009759999811649323;1.2121919393539429;-1.3387500047683716;31.780000686645508;27.85124969482422
1650;0.0;0.0;0.0;0.062463998794555664;0.014639999717473984;1.2170720100402832;0.0;0.0;0.0
1652;0.0;0.0;0.0;0.08979199826717377;0.022447999566793442;1.1965759992599487;0.0;0.0;0.0
1654;0.0;0.0;0.0;0.058559998869895935;0.006831999868154526;1.2043839693069458;0.0;0.0;0.0
1656;-0.0453839972615242;0.14566799998283386;1.0711599588394165;0.08979199826717377;0.014639999717473984;1.2004799842834473;-0.42875000834465027;29.329999923706055;28.4112491607666
1659;0.0;0.0;0.0;0.09759999811649323;0.0302559994161129;1.2131680250167847;0.0;0.0;0.0
1661;0.0;0.0;0.0;0.0936959981918335;0.053679998964071274;1.2209759950637817;0.0;0.0;0.0
1663;0.0;0.0;0.0;0.11711999773979187;0.06148799881339073;1.2209759950637817;0.0;0.0;0.0
1665;-0.01195599976927042;0.17812000215053558;1.0784800052642822;0.11711999773979187;0.06148799881339073;1.2121919393539429;1.4612499475479126;27.09000015258789;29.53125
1667;0.0;0.0;0.0;0.14347200095653534;0.07320000231266022;1.2170720100402832;0.0;0.0;0.0
1669;0.0;0.0;0.0;0.14444799721240997;0.07320000231266022;1.1838879585266113;0.0;0.0;0.0
1671;0.0;0.0;0.0;0.1600639969110489;0.07320000231266022;1.1926720142364502;0.0;0.0;0.0
1673;0.029279999434947968;0.2025199979543686;1.0679880380630493;0.15908800065517426;0.08100800216197968;1.1926720142364502;1.9512499570846558;28.420000076293945;32.19124984741211
1676;0.0;0.0;0.0;0.17470400035381317;0.06148799881339073;1.1887680292129517;0.0;0.0;0.0
1678;0.0;0.0;0.0;0.18641600012779236;0.09662400186061859;1.1965759992599487;0.0;0.0;0.0
1680;0.0;0.0;0.0;0.1903200000524521;0.09272000193595886;1.1877919435501099;0.0;0.0;0.0
1682;0.06734399497509003;0.2269199937582016;1.0584720373153687;0.1786080002784729;0.11224000155925751;1.1721760034561157;2.3012499809265137;34.86000061035156;34.78125
1684;0.0;0.0;0.0;0.205935999751091;0.11224000155925751;1.1887680292129517;0.0;0.0;0.0
1686;0.0;0.0;0.0;0.1786080002784729;0.11614400148391724;1.1926720142364502;0.0;0.0;0.0
1688;0.0;0.0;0.0;0.19812799990177155;0.13566400110721588;1.2209759950637817;0.0;0.0;0.0
1690;0.0832040011882782;0.26034799218177795;1.0679880380630493;0.2176479995250702;0.14347200095653534;1.2121919393539429;2.791249990463257;41.93000030517578;36.95124816894531
1693;0.0;0.0;0.0;0.22545599937438965;0.14347200095653534;1.2004799842834473;0.0;0.0;0.0
1695;0.0;0.0;0.0;0.24107199907302856;0.1512800008058548;1.2082879543304443;0.0;0.0;0.0
1697;0.0;0.0;0.0;0.25278398394584656;0.1395680010318756;1.1926720142364502;0.0;0.0;0.0
1699;0.1088239997625351;0.29475200176239014;1.0689640045166016;0.2176479995250702;0.1786080002784729;1.1887680292129517;3.351249933242798;46.27000045776367;38.071250915527344
1701;0.0;0.0;0.0;0.23716799914836884;0.17470400035381317;1.1887680292129517;0.0;0.0;0.0
1703;0.0;0.0;0.0;0.2449759989976883;0.15908800065517426;1.1887680292129517;0.0;0.0;0.0
1705;0.0;0.0;0.0;0.260591983795166;0.17470400035381317;1.1799839735031128;0.0;0.0;0.0
1707;0.12614800035953522;0.30914798378944397;1.0648159980773926;0.25278398394584656;0.16299200057983398;1.2121919393539429;3.6312499046325684;47.880001068115234;37.44124984741211
1710;0.0;0.0;0.0;0.22545599937438965;0.19422399997711182;1.1838879585266113;0.0;0.0;0.0
1712;0.0;0.0;0.0;0.24107199907302856;0.205935999751091;1.1877919435501099;0.0;0.0;0.0
1714;0.0;0.0;0.0;0.22545599937438965;0.20203199982643127;1.2170720100402832;0.0;0.0;0.0
1716;0.11443600058555603;0.330375999212265;1.0674999952316284;0.19812799990177155;0.21374399960041046;1.1965759992599487;3.5612499713897705;46.060001373291016;34.78125
1718;0.0;0.0;0.0;0.21374399960041046;0.22155199944972992;1.2004799842834473;0.0;0.0;0.0
1720;0.0;0.0;0.0;0.1903200000524521;0.22545599937438965;1.2004799842834473;0.0;0.0;0.0
1722;0.0;0.0;0.0;0.20203199982643127;0.20983999967575073;1.1838879585266113;0.0;0.0;0.0
1725;0.08881600201129913;0.3381839990615845;1.0684759616851807;0.20203199982643127;0.205935999751091;1.2004799842834473;2.3012499809265137;38.43000030517578;31.21125030517578
1727;0.0;0.0;0.0;0.21374399960041046;0.19812799990177155;1.1799839735031128;0.0;0.0;0.0
1729;0.0;0.0;0.0;0.205935999751091;0.18251200020313263;1.2004799842834473;0.0;0.0;0.0
1731;0.0;0.0;0.0;0.24107199907302856;0.18251200020313263;1.2004799842834473;0.0;0.0;0.0
1733;0.10174799710512161;0.3245199918746948;1.0623760223388672;0.2449759989976883;0.18251200020313263;1.2004799842834473;-0.07874999940395355;27.15999984741211;28.131250381469727
1735;0.0;0.0;0.0;0.2332639992237091;0.19422399997711182;1.1926720142364502;0.0;0.0;0.0
1737;0.0;0.0;0.0;0.2723039984703064;0.17470400035381317;1.2043839693069458;0.0;0.0;0.0
1739;0.0;0.0;0.0;0.28011199831962585;0.17470400035381317;1.1887680292129517;0.0;0.0;0.0
1742;0.14273999631404877;0.31329599022865295;1.0601799488067627;0.30353599786758423;0.1395680010318756;1.1887680292129517;-4.138749599456787;16.80000114440918;27.291250228881836
1744;0.0;0.0;0.0;0.31915199756622314;0.15518400073051453;1.1887680292129517;0.0;0.0;0.0
1746;0.0;0.0;0.0;0.3230559825897217;0.15908800065517426;1.1926720142364502;0.0;0.0;0.0
1748;0.0;0.0;0.0;0.350383996963501;0.14347200095653534;1.1799839735031128;0.0;0.0;0.0
1750;0.20178799331188202;0.2769399881362915;1.065060019493103;0.33086398243904114;0.12004800140857697;1.2121919393539429;-8.898750305175781;10.780000686645508;27.57124900817871
1752;0.0;0.0;0.0;0.3425759971141815;0.11614400148391724;1.2131680250167847;0.0;0.0;0.0
1754;0.0;0.0;0.0;0.3699039816856384;0.13176000118255615;1.2004799842834473;0.0;0.0;0.0
1756;0.0;0.0;0.0;0.38942399621009827;0.10833600163459778;1.2326879501342773;0.0;0.0;0.0
1759;0.25449198484420776;0.24131599068641663;1.0872639417648315;0.38942399621009827;0.09272000193595886;1.2248799800872803;-11.978750228881836;7.769999980926514;28.341249465942383
1761;0.0;0.0;0.0;0.40113598108291626;0.12004800140857697;1.2492799758911133;0.0;0.0;0.0
1763;0.0;0.0;0.0;0.411871999502182;0.053679998964071274;1.2326879501342773;0.0;0.0;0.0
1765;0.0;0.0;0.0;0.45481598377227783;0.03806399926543236;1.2287839651107788;0.0;0.0;0.0
1767;0.313539981842041;0.21032799780368805;1.1028800010681152;0.45871999859809875;0.06148799881339073;1.2609919309616089;-12.538750648498535;5.460000038146973;29.251249313354492
1769;0.0;0.0;0.0;0.4899519979953766;0.04196799919009209;1.2131680250167847;0.0;0.0;0.0
1771;0.0;0.0;0.0;0.5172799825668335;0.057583998888731;1.2609919309616089;0.0;0.0;0.0
1773;0.0;0.0;0.0;0.521183967590332;0.04196799919009209;1.2365919351577759;0.0;0.0;0.0
1776;0.39064398407936096;0.17836399376392365;1.0984879732131958;0.5524159669876099;0.04196799919009209;1.1926720142364502;-9.948750495910645;6.440000057220459;28.48124885559082
1778;0.0;0.0;0.0;0.5446079969406128;0.045871999114751816;1.2131680250167847;0.0;0.0;0.0
1780;0.0;0.0;0.0;0.5641279816627502;0.045871999114751816;1.2326879501342773;0.0;0.0;0.0
1782;0.0;0.0;0.0;0.5719360113143921;0.03415999934077263;1.2121919393539429;0.0;0.0;0.0
1784;0.43773600459098816;0.17031200230121613;1.085312008857727;0.5680319666862488;0.0302559994161129;1.1887680292129517;-5.118749618530273;11.480000495910645;25.96125030517578
1786;0.0;0.0;0.0;0.5563200116157532;0.018543999642133713;1.2043839693069458;0.0;0.0;0.0
1788;0.0;0.0;0.0;0.5680319666862488;0.03806399926543236;1.1965759992599487;0.0;0.0;0.0
1790;0.0;0.0;0.0;0.5563200116157532;0.045871999114751816;1.2043839693069458;0.0;0.0;0.0
1793;0.4409079849720001;0.17006799578666687;1.0657919645309448;0.5836479663848877;0.022447999566793442;1.1594879627227783;-0.2887499928474426;18.40999984741211;22.811248779296875
1795;0.0;0.0;0.0;0.5797439813613892;0.045871999114751816;1.1887680292129517;0.0;0.0;0.0
1797;0.0;0.0;0.0;0.5836479663848877;0.04196799919009209;1.1760799884796143;0.0;0.0;0.0
1799;0.0;0.0;0.0;0.5797439813613892;0.07710400223731995;1.1643680334091187;0.0;0.0;0.0
1801;0.46286800503730774;0.19007599353790283;1.0435879230499268;0.5680319666862488;0.049775999039411545;1.1516799926757812;3.351249933242798;27.30000114440918;19.311248779296875
1803;0.0;0.0;0.0;0.5563200116157532;0.06539200246334076;1.1643680334091187;0.0;0.0;0.0
1805;0.0;0.0;0.0;0.5172799825668335;0.02635199949145317;1.1643680334091187;0.0;0.0;0.0
1807;0.0;0.0;0.0;0.4938559830188751;0.03415999934077263;1.1477760076522827;0.0;0.0;0.0
1810;0.41235998272895813;0.18422000110149384;1.030900001525879;0.47433599829673767;0.045871999114751816;1.1438720226287842;5.241250038146973;36.540000915527344;17.421249389648438
1812;0.0;0.0;0.0;0.45871999859809875;0.049775999039411545;1.1594879627227783;0.0;0.0;0.0
1814;0.0;0.0;0.0;0.423583984375;0.03415999934077263;1.1311839818954468;0.0;0.0;0.0
1816;0.0;0.0;0.0;0.423583984375;0.03415999934077263;1.1116639375686646;0.0;0.0;0.0
1818;0.3181760013103485;0.16665199398994446;1.0086959600448608;0.38551998138427734;0.045871999114751816;1.1233760118484497;6.711250305175781;41.02000045776367;14.131250381469727
1820;0.0;0.0;0.0;0.3777119815349579;0.049775999039411545;1.1194720268249512;0.0;0.0;0.0
1822;0.0;0.0;0.0;0.3659999966621399;0.022447999566793442;1.1116639375686646;0.0;0.0;0.0
1824;0.0;0.0;0.0;0.3699039816856384;0.02635199949145317;1.1194720268249512;0.0;0.0;0.0
1827;0.26327598094940186;0.16860400140285492;0.9833199977874756;0.37380799651145935;0.04196799919009209;1.0989760160446167;8.251249313354492;39.20000076293945;11.611249923706055
1829;0.0;0.0;0.0;0.35819199681282043;0.045871999114751816;1.1116639375686646;0.0;0.0;0.0
1831;0.0;0.0;0.0;0.37380799651145935;0.022447999566793442;1.0706720352172852;0.0;0.0;0.0
1833;0.0;0.0;0.0;0.3659999966621399;0.04196799919009209;1.066767930984497;0.0;0.0;0.0
1835;0.24131599068641663;0.1664080023765564;0.9520879983901978;0.3659999966621399;0.04196799919009209;1.0501760244369507;9.021249771118164;35.42000198364258;10.141250610351562
1837;0.0;0.0;0.0;0.3542879819869995;0.018543999642133713;1.066767930984497;0.0;0.0;0.0
1839;0.0;0.0;0.0;0.3699039816856384;0.02635199949145317;1.042367935180664;0.0;0.0;0.0
1841;0.0;0.0;0.0;0.3777119815349579;0.03806399926543236;1.0384639501571655;0.0;0.0;0.0
1844;0.24448800086975098;0.15347599983215332;0.9162200093269348;0.37380799651145935;-0.004879999905824661;1.0462720394134521;9.231249809265137;30.59000015258789;8.881250381469727
1846;0.0;0.0;0.0;0.3933279812335968;0.02635199949145317;1.0501760244369507;0.0;0.0;0.0
1848;0.0;0.0;0.0;0.3972319960594177;0.006831999868154526;1.0218719244003296;0.0;0.0;0.0
1850;0.0;0.0;0.0;0.41967999935150146;-0.01659199967980385;1.0218719244003296;0.0;0.0;0.0
1852;0.27962398529052734;0.1378600001335144;0.9076799750328064;0.4167519807815552;-0.01659199967980385;1.0257760286331177;7.971250057220459;26.530000686645508;7.131249904632568
1854;0.0;0.0;0.0;0.4352959990501404;-0.01268799975514412;1.042367935180664;0.0;0.0;0.0
1856;0.0;0.0;0.0;0.4391999840736389;-0.03611199930310249;1.0257760286331177;0.0;0.0;0.0
1858;0.0;0.0;0.0;0.44310399889945984;-0.05172799900174141;1.034559965133667;0.0;0.0;0.0
1861;0.3123199939727783;0.09516000002622604;0.9088999629020691;0.45481598377227783;-0.04391999915242195;1.0140639543533325;4.961250305175781;24.43000030517578;5.241250038146973
1863;0.0;0.0;0.0;0.4352959990501404;-0.06734399497509003;1.0257760286331177;0.0;0.0;0.0
1865;0.0;0.0;0.0;0.45871999859809875;-0.09467199444770813;1.0013760328292847;0.0;0.0;0.0
1867;0.0;0.0;0.0;0.4626239836215973;-0.07515199482440948;1.0257760286331177;0.0;0.0;0.0
1869;0.3306199908256531;0.05392399802803993;0.8979200124740601;0.47043198347091675;-0.0907679945230484;1.0462720394134521;3.4912500381469727;22.89000129699707;1.881250023841858
1871;0.0;0.0;0.0;0.47433599829673767;-0.08686399459838867;1.0384639501571655;0.0;0.0;0.0
1873;0.0;0.0;0.0;0.5016639828681946;-0.07515199482440948;1.0091840028762817;0.0;0.0;0.0
1875;0.0;0.0;0.0;0.4899519979953766;-0.04001599922776222;1.0052800178527832;0.0;0.0;0.0
1878;0.3601439893245697;0.048555999994277954;0.8888919949531555;0.48214399814605713;-0.07515199482440948;1.0013760328292847;4.961250305175781;20.860000610351562;-2.6687498092651367
1880;0.0;0.0;0.0;0.4938559830188751;-0.0634399950504303;0.9974719882011414;0.0;0.0;0.0
1882;0.0;0.0;0.0;0.521183967590332;-0.08686399459838867;1.0257760286331177;0.0;0.0;0.0
1884;0.0;0.0;0.0;0.5094720125198364;-0.11028799414634705;0.9818559885025024;0.0;0.0;0.0
1886;0.38722798228263855;0.04025999829173088;0.8786439895629883;0.521183967590332;-0.08295999467372894;1.0218719244003296;6.15125036239624;20.3700008392334;-7.49875020980835
1888;0.0;0.0;0.0;0.4938559830188751;-0.11028799414634705;1.0140639543533325;0.0;0.0;0.0
1890;0.0;0.0;0.0;0.48604798316955566;-0.07905599474906921;1.0218719244003296;0.0;0.0;0.0
1892;0.0;0.0;0.0;0.5094720125198364;-0.1180959939956665;0.9935680031776428;0.0;0.0;0.0
1895;0.38332399725914;0.02781599946320057;0.8803519606590271;0.4899519979953766;-0.10247999429702759;1.0013760328292847;5.591250419616699;22.329999923706055;-12.46875
1897;0.0;0.0;0.0;0.47043198347091675;-0.08295999467372894;1.010159969329834;0.0;0.0;0.0
1899;0.0;0.0;0.0;0.4665279984474182;-0.12590399384498596;0.985759973526001;0.0;0.0;0.0
1901;0.0;0.0;0.0;0.47043198347091675;-0.10638399422168732;1.017967939376831;0.0;0.0;0.0
1903;0.35745999217033386;0.018055999651551247;0.8796199560165405;0.48214399814605713;-0.11028799414634705;1.0218719244003296;3.351249933242798;24.780000686645508;-17.0887508392334
1905;0.0;0.0;0.0;0.43139198422431946;-0.13371199369430542;1.0296800136566162;0.0;0.0;0.0
1907;0.0;0.0;0.0;0.43139198422431946;-0.10638399422168732;1.0140639543533325;0.0;0.0;0.0
1910;0.0;0.0;0.0;0.411871999502182;-0.1298079937696457;1.010159969329834;0.0;0.0;0.0
1912;0.31671199202537537;0.014151999726891518;0.8957239985466003;0.41967999935150146;-0.16103999316692352;1.0384639501571655;1.3912500143051147;26.18000030517578;-20.868751525878906
1914;0.0;0.0;0.0;0.35819199681282043;-0.15323199331760406;1.0296800136566162;0.0;0.0;0.0
1916;0.0;0.0;0.0;0.38942399621009827;-0.17665599286556244;0.9896639585494995;0.0;0.0;0.0
1918;0.0;0.0;0.0;0.3659999966621399;-0.16103999316692352;1.0296800136566162;0.0;0.0;0.0
1920;0.25351598858833313;-0.022204000502824783;0.8932839632034302;0.3425759971141815;-0.1571359932422638;1.034559965133667;0.5512499809265137;23.380001068115234;-24.64875030517578
1922;0.0;0.0;0.0;0.36209598183631897;-0.15323199331760406;1.017967939376831;0.0;0.0;0.0
1924;0.0;0.0;0.0;0.34647998213768005;-0.1454239934682846;1.010159969329834;0.0;0.0;0.0
1927;0.0;0.0;0.0;0.3230559825897217;-0.1180959939956665;1.042367935180664;0.0;0.0;0.0
1929;0.22838398814201355;-0.020495999604463577;0.8884040117263794;0.3386719822883606;-0.1454239934682846;1.010159969329834;1.9512499570846558;19.110000610351562;-26.258750915527344
1931;0.0;0.0;0.0;0.3113439977169037;-0.16103999316692352;1.0296800136566162;0.0;0.0;0.0
1933;0.0;0.0;0.0;0.29182398319244385;-0.18836799263954163;1.0218719244003296;0.0;0.0;0.0
1935;0.0;0.0;0.0;0.2840159833431244;-0.20398399233818054;1.0052800178527832;0.0;0.0;0.0
1937;0.1722639948129654;-0.05563199892640114;0.8940159678459167;0.2566879987716675;-0.20788799226284027;1.0013760328292847;1.3212499618530273;16.729999542236328;-25.8387508392334
1939;0.0;0.0;0.0;0.24887999892234802;-0.20788799226284027;1.0257760286331177;0.0;0.0;0.0
1941;0.0;0.0;0.0;0.20983999967575073;-0.16884799301624298;1.0589599609375;0.0;0.0;0.0
1944;0.0;0.0;0.0;0.24107199907302856;-0.2235039919614792;1.017967939376831;0.0;0.0;0.0
1946;0.10662800073623657;-0.09052399545907974;0.90938800573349;0.18641600012779236;-0.2235039919614792;1.0540800094604492;-0.4987500011920929;14.49000072479248;-25.908750534057617
1948;0.0;0.0;0.0;0.18641600012779236;-0.2898719906806946;1.0257760286331177;0.0;0.0;0.0
1950;0.0;0.0;0.0;0.1903200000524521;-0.2391199916601181;1.0501760244369507;0.0;0.0;0.0
1952;0.0;0.0;0.0;0.23716799914836884;-0.2664479911327362;1.0257760286331177;0.0;0.0;0.0
1954;0.07222399860620499;-0.1315159946680069;0.9115839600563049;0.1903200000524521;-0.2547360062599182;1.034559965133667;-1.6887500286102295;8.890000343322754;-24.368751525878906
1957;0.0;0.0;0.0;0.205935999751091;-0.2820639908313751;1.0384639501571655;0.0;0.0;0.0
1958;0.0;0.0;0.0;0.19812799990177155;-0.27425599098205566;1.0872639417648315;0.0;0.0;0.0
1961;0.0;0.0;0.0;0.205935999751091;-0.26254400610923767;1.017967939376831;0.0;0.0;0.0
1963;0.08222799748182297;-0.1373720020055771;0.9113399982452393;0.1786080002784729;-0.28596800565719604;1.0218719244003296;0.9012500047683716;0.9799999594688416;-21.078750610351562
1965;0.0;0.0;0.0;0.2176479995250702;-0.27425599098205566;1.0218719244003296;0.0;0.0;0.0
1967;0.0;0.0;0.0;0.20983999967575073;-0.2664479911327362;1.0218719244003296;0.0;0.0;0.0
1969;0.0;0.0;0.0;0.22155199944972992;-0.28596800565719604;1.0052800178527832;0.0;0.0;0.0
1971;0.1029679998755455;-0.14908400177955627;0.8866959810256958;0.2723039984703064;-0.2937760055065155;0.9896639585494995;3.911249876022339;-7.210000038146973;-16.598751068115234
1973;0.0;0.0;0.0;0.2683999836444855;-0.2820639908313751;0.9935680031776428;0.0;0.0;0.0
1975;0.0;0.0;0.0;0.260591983795166;-0.3093920052051544;0.9974719882011414;0.0;0.0;0.0
1978;0.0;0.0;0.0;0.2996319830417633;-0.29767999053001404;0.985759973526001;0.0;0.0;0.0
1980;0.14566799998283386;-0.1647000014781952;0.8605879545211792;0.2723039984703064;-0.31329599022865295;1.0052800178527832;5.871250152587891;-10.779999732971191;-15.12874984741211
1982;0.0;0.0;0.0;0.2840159833431244;-0.2781600058078766;0.9935680031776428;0.0;0.0;0.0
1984;0.0;0.0;0.0;0.30353599786758423;-0.3093920052051544;0.9896639585494995;0.0;0.0;0.0
1986;0.0;0.0;0.0;0.3113439977169037;-0.28596800565719604;0.9779520034790039;0.0;0.0;0.0
1988;0.17933999001979828;-0.16494399309158325;0.8559519648551941;0.30353599786758423;-0.3054879903793335;0.9730719923973083;5.241250038146973;-10.359999656677246;-15.828749656677246
1990;0.0;0.0;0.0;0.3425759971141815;-0.29767999053001404;0.9730719923973083;0.0;0.0;0.0
1992;0.0;0.0;0.0;0.35819199681282043;-0.31329599022865295;0.9691680073738098;0.0;0.0;0.0
1995;0.0;0.0;0.0;0.33086398243904114;-0.29767999053001404;0.9730719923973083;0.0;0.0;0.0
1997;0.2210640013217926;-0.16787199676036835;0.8442400097846985;0.35819199681282043;-0.29767999053001404;0.9691680073738098;1.7412500381469727;-7.28000020980835;-18.068750381469727
1999;0.0;0.0;0.0;0.3699039816856384;-0.31329599022865295;0.9525759816169739;0.0;0.0;0.0
2001;0.0;0.0;0.0;0.3777119815349579;-0.3211039900779724;0.9535520076751709;0.0;0.0;0.0
2003;0.0;0.0;0.0;0.36209598183631897;-0.34062400460243225;0.9486719965934753;0.0;0.0;0.0
2005;0.25351598858833313;-0.19129599630832672;0.8276479840278625;0.38942399621009827;-0.3328160047531128;0.9486719965934753;-2.7387499809265137;-1.9600000381469727;-20.868751525878906
2007;0.0;0.0;0.0;0.40113598108291626;-0.3640480041503906;0.961359977722168;0.0;0.0;0.0
2009;0.0;0.0;0.0;0.33086398243904114;-0.35233598947525024;0.9408639669418335;0.0;0.0;0.0
2012;0.0;0.0;0.0;0.3386719822883606;-0.4030880033969879;0.9535520076751709;0.0;0.0;0.0
2014;0.24131599068641663;-0.24229200184345245;0.8261839747428894;0.350383996963501;-0.39528000354766846;0.985759973526001;-6.09874963760376;5.389999866485596;-24.158750534057617
2016;0.0;0.0;0.0;0.3386719822883606;-0.4108960032463074;0.9691680073738098;0.0;0.0;0.0
2018;0.0;0.0;0.0;0.34647998213768005;-0.4382239878177643;0.985759973526001;0.0;0.0;0.0
2020;0.0;0.0;0.0;0.3230559825897217;-0.46164798736572266;0.9935680031776428;0.0;0.0;0.0
2022;0.22252799570560455;-0.3037799894809723;0.8461920022964478;0.33086398243904114;-0.4772639870643616;0.9896639585494995;-7.988749980926514;9.170000076293945;-26.53875160217285
2024;0.0;0.0;0.0;0.2879199981689453;-0.4928799867630005;1.0013760328292847;0.0;0.0;0.0
2026;0.0;0.0;0.0;0.25278398394584656;-0.5045920014381409;0.9818559885025024;0.0;0.0;0.0
2029;0.0;0.0;0.0;0.23716799914836884;-0.5123999714851379;0.9818559885025024;0.0;0.0;0.0
2031;0.14908400177955627;-0.3713679909706116;0.855463981628418;0.25278398394584656;-0.5358240008354187;0.9730719923973083;-8.828750610351562;10.640000343322754;-28.28875160217285
2033;0.0;0.0;0.0;0.2449759989976883;-0.5280159711837769;0.985759973526001;0.0;0.0;0.0
2035;0.0;0.0;0.0;0.24887999892234802;-0.5280159711837769;0.985759973526001;0.0;0.0;0.0
2037;0.0;0.0;0.0;0.2449759989976883;-0.5241119861602783;0.961359977722168;0.0;0.0;0.0
2039;0.12614800035953522;-0.3945479989051819;0.8447279930114746;0.26449599862098694;-0.5475360155105591;0.9730719923973083;-7.708749771118164;7.909999847412109;-30.458751678466797
2042;0.0;0.0;0.0;0.2332639992237091;-0.5397279858589172;0.9974719882011414;0.0;0.0;0.0
2043;0.0;0.0;0.0;0.25278398394584656;-0.5475360155105591;0.9818559885025024;0.0;0.0;0.0
2046;0.0;0.0;0.0;0.205935999751091;-0.5553439855575562;0.985759973526001;0.0;0.0;0.0
2048;0.11541199684143066;-0.41211599111557007;0.8608319759368896;0.2332639992237091;-0.5514400005340576;0.9769759774208069;-6.868749618530273;4.829999923706055;-31.0887508392334
2050;0.0;0.0;0.0;0.21374399960041046;-0.5397279858589172;1.0062559843063354;0.0;0.0;0.0
2052;0.0;0.0;0.0;0.24107199907302856;-0.5748639702796936;0.985759973526001;0.0;0.0;0.0
2054;0.0;0.0;0.0;0.22155199944972992;-0.5748639702796936;1.017967939376831;0.0;0.0;0.0
2056;0.09906399995088577;-0.43309998512268066;0.8605879545211792;0.20983999967575073;-0.5826719999313354;0.9896639585494995;-7.288749694824219;1.46999990940094;-32.90875244140625
2058;0.0;0.0;0.0;0.18641600012779236;-0.5748639702796936;0.9769759774208069;0.0;0.0;0.0
2060;0.0;0.0;0.0;0.205935999751091;-0.5787680149078369;1.0052800178527832;0.0;0.0;0.0
2063;0.0;0.0;0.0;0.17080000042915344;-0.5982879996299744;1.017967939376831;0.0;0.0;0.0
2065;0.08222799748182297;-0.44896000623703003;0.8703479766845703;0.1903200000524521;-0.586575984954834;1.0140639543533325;-7.988749980926514;-2.7300000190734863;-35.14875030517578
2067;0.0;0.0;0.0;0.1903200000524521;-0.5787680149078369;1.0257760286331177;0.0;0.0;0.0
2069;0.0;0.0;0.0;0.1786080002784729;-0.6217119693756104;1.0140639543533325;0.0;0.0;0.0
2071;0.0;0.0;0.0;0.15518400073051453;-0.6334239840507507;1.0013760328292847;0.0;0.0;0.0
2073;0.05050799995660782;-0.4748239815235138;0.8805959820747375;0.16299200057983398;-0.6217119693756104;1.0062559843063354;-9.948750495910645;-6.860000133514404;-37.80875015258789
2075;0.0;0.0;0.0;0.14444799721240997;-0.6412320137023926;0.9691680073738098;0.0;0.0;0.0
2077;0.0;0.0;0.0;0.1483519971370697;-0.6295199990272522;0.985759973526001;0.0;0.0;0.0
2080;0.0;0.0;0.0;0.1483519971370697;-0.6334239840507507;1.0013760328292847;0.0;0.0;0.0
2082;0.03660000115633011;-0.49312397837638855;0.8635159730911255;0.1210239976644516;-0.6334239840507507;0.9935680031776428;-11.488750457763672;-8.889999389648438;-40.60874938964844
2084;0.0;0.0;0.0;0.11711999773979187;-0.6724640130996704;1.0140639543533325;0.0;0.0;0.0
2086;0.0;0.0;0.0;0.10931199789047241;-0.6529439687728882;0.9896639585494995;0.0;0.0;0.0
2088;0.0;0.0;0.0;0.10150399804115295;-0.6646559834480286;1.0140639543533325;0.0;0.0;0.0
2090;-0.014151999726891518;-0.517524003982544;0.868395984172821;0.08588799834251404;-0.6490399837493896;0.9691680073738098;-11.978750228881836;-10.779999732971191;-41.44874954223633
2092;0.0;0.0;0.0;0.08979199826717377;-0.6334239840507507;0.9818559885025024;0.0;0.0;0.0
2095;0.0;0.0;0.0;0.09759999811649323;-0.6529439687728882;1.017967939376831;0.0;0.0;0.0
2097;0.0;0.0;0.0;0.10150399804115295;-0.6295199990272522;0.9935680031776428;0.0;0.0;0.0
2099;-0.022204000502824783;-0.5084959864616394;0.8644919991493225;0.09759999811649323;-0.6295199990272522;0.985759973526001;-13.098750114440918;-11.479999542236328;-41.37874984741211
2101;0.0;0.0;0.0;0.10150399804115295;-0.6100000143051147;1.0257760286331177;0.0;0.0;0.0
2103;0.0;0.0;0.0;0.07417599856853485;-0.5943840146064758;1.0013760328292847;0.0;0.0;0.0
2105;0.0;0.0;0.0;0.05075199902057648;-0.6100000143051147;0.9974719882011414;0.0;0.0;0.0
2107;-0.053679998964071274;-0.4818999767303467;0.8759599924087524;0.058559998869895935;-0.6021919846534729;1.017967939376831;-14.078750610351562;-9.449999809265137;-40.81875228881836
2110;0.0;0.0;0.0;0.04684799909591675;-0.6021919846534729;1.0062559843063354;0.0;0.0;0.0
2112;0.0;0.0;0.0;0.019519999623298645;-0.6139039993286133;1.0257760286331177;0.0;0.0;0.0
2114;0.0;0.0;0.0;0.007807999849319458;-0.6178079843521118;1.0296800136566162;0.0;0.0;0.0
2116;-0.10321199893951416;-0.4787279963493347;0.8844999670982361;0.0;-0.6100000143051147;1.0257760286331177;-14.918750762939453;-7.700000286102295;-40.88875198364258
2118;0.0;0.0;0.0;0.003903999924659729;-0.5982879996299744;1.0218719244003296;0.0;0.0;0.0
2120;0.0;0.0;0.0;-0.011711999773979187;-0.6256160140037537;1.0384639501571655;0.0;0.0;0.0
2122;0.0;0.0;0.0;-0.027327999472618103;-0.5982879996299744;1.0462720394134521;0.0;0.0;0.0
2124;-0.13883599638938904;-0.4777520000934601;0.9054839611053467;-0.07417599856853485;-0.6139039993286133;1.0540800094604492;-14.988750457763672;-5.740000247955322;-42.49875259399414
2127;0.0;0.0;0.0;-0.054655998945236206;-0.6178079843521118;1.066767930984497;0.0;0.0;0.0
2129;0.0;0.0;0.0;-0.08100800216197968;-0.5826719999313354;1.0823839902877808;0.0;0.0;0.0
2131;0.0;0.0;0.0;-0.08881600201129913;-0.6217119693756104;1.0823839902877808;0.0;0.0;0.0
2133;-0.20447199046611786;-0.4718959927558899;0.936959981918335;-0.12004800140857697;-0.6021919846534729;1.083359956741333;-15.05875015258789;-6.37000036239624;-45.508750915527344
2135;0.0;0.0;0.0;-0.1395680010318756;-0.6021919846534729;1.066767930984497;0.0;0.0;0.0
2137;0.0;0.0;0.0;-0.15518400073051453;-0.5826719999313354;1.0540800094604492;0.0;0.0;0.0
2139;0.0;0.0;0.0;-0.17470400035381317;-0.5904799699783325;1.0589599609375;0.0;0.0;0.0
2141;-0.2735239863395691;-0.4567679762840271;0.9393999576568604;-0.16299200057983398;-0.5826719999313354;1.0462720394134521;-14.288750648498535;-12.809999465942383;-49.21875
2144;0.0;0.0;0.0;-0.16299200057983398;-0.5787680149078369;1.0462720394134521;0.0;0.0;0.0
2146;0.0;0.0;0.0;-0.17080000042915344;-0.5826719999313354;1.0501760244369507;0.0;0.0;0.0
2148;0.0;0.0;0.0;-0.15908800065517426;-0.5670560002326965;1.042367935180664;0.0;0.0;0.0
2150;-0.2776719927787781;-0.4396879971027374;0.9303719997406006;-0.15908800065517426;-0.5826719999313354;1.0745760202407837;-13.728750228881836;-18.619998931884766;-51.528751373291016
2152;0.0;0.0;0.0;-0.19422399997711182;-0.5787680149078369;1.0706720352172852;0.0;0.0;0.0
2154;0.0;0.0;0.0;-0.16299200057983398;-0.5787680149078369;1.066767930984497;0.0;0.0;0.0
2156;0.0;0.0;0.0;-0.17080000042915344;-0.5514400005340576;1.0745760202407837;0.0;0.0;0.0
2158;-0.29280000925064087;-0.43261200189590454;0.9398880004882812;-0.18251200020313263;-0.563152015209198;1.0784800052642822;-14.988750457763672;-17.989999771118164;-51.94874954223633
2161;0.0;0.0;0.0;-0.19812799990177155;-0.5397279858589172;1.0706720352172852;0.0;0.0;0.0
2163;0.0;0.0;0.0;-0.23716799914836884;-0.5475360155105591;1.0706720352172852;0.0;0.0;0.0
2165;0.0;0.0;0.0;-0.2449759989976883;-0.5514400005340576;1.0589599609375;0.0;0.0;0.0
2167;-0.34477198123931885;-0.42455998063087463;0.9428159594535828;-0.2449759989976883;-0.5553439855575562;1.0745760202407837;-16.948749542236328;-15.819999694824219;-50.618751525878906
2169;0.0;0.0;0.0;-0.23716799914836884;-0.5670560002326965;1.0872639417648315;0.0;0.0;0.0
2171;0.0;0.0;0.0;-0.21374399960041046;-0.5436319708824158;1.1028800010681152;0.0;0.0;0.0
2173;0.0;0.0;0.0;-0.22155199944972992;-0.5592479705810547;1.0950720310211182;0.0;0.0;0.0
2175;-0.3533119857311249;-0.41748398542404175;0.9552599787712097;-0.23716799914836884;-0.5475360155105591;1.0823839902877808;-19.39875030517578;-13.369999885559082;-47.118751525878906
2178;0.0;0.0;0.0;-0.22935999929904938;-0.5358240008354187;1.1194720268249512;0.0;0.0;0.0
2180;0.0;0.0;0.0;-0.2332639992237091;-0.5748639702796936;1.1106879711151123;0.0;0.0;0.0
2182;0.0;0.0;0.0;-0.2332639992237091;-0.5514400005340576;1.1360639333724976;0.0;0.0;0.0
2184;-0.3694159984588623;-0.43090400099754333;0.9930799603462219;-0.260591983795166;-0.5787680149078369;1.1477760076522827;-22.96875;-6.300000190734863;-43.688751220703125
2186;0.0;0.0;0.0;-0.30353599786758423;-0.5904799699783325;1.1682720184326172;0.0;0.0;0.0
2188;0.0;0.0;0.0;-0.33086398243904114;-0.5904799699783325;1.1643680334091187;0.0;0.0;0.0
2190;0.0;0.0;0.0;-0.33476799726486206;-0.6334239840507507;1.1594879627227783;0.0;0.0;0.0
2192;-0.44139599800109863;-0.4672600030899048;1.0243120193481445;-0.3689279854297638;-0.5943840146064758;1.1760799884796143;-25.138750076293945;-0.7699999809265137;-39.90875244140625
2195;0.0;0.0;0.0;-0.34940800070762634;-0.6256160140037537;1.1887680292129517;0.0;0.0;0.0
2197;0.0;0.0;0.0;-0.39235198497772217;-0.6295199990272522;1.1760799884796143;0.0;0.0;0.0
2199;0.0;0.0;0.0;-0.39235198497772217;-0.6178079843521118;1.1926720142364502;0.0;0.0;0.0
2201;-0.49531999230384827;-0.4894639849662781;1.0604239702224731;-0.38844799995422363;-0.6334239840507507;1.2170720100402832;-24.57874870300293;-0.07000000029802322;-34.868751525878906
2203;0.0;0.0;0.0;-0.3572160005569458;-0.6256160140037537;1.2365919351577759;0.0;0.0;0.0
2205;0.0;0.0;0.0;-0.3845439851284027;-0.6685599684715271;1.2170720100402832;0.0;0.0;0.0
2207;0.0;0.0;0.0;-0.3806400001049042;-0.6451359987258911;1.2326879501342773;0.0;0.0;0.0
2209;-0.508251965045929;-0.5058119893074036;1.099463939666748;-0.3962559998035431;-0.6529439687728882;1.2131680250167847;-22.408748626708984;-3.990000009536743;-29.688751220703125
2212;0.0;0.0;0.0;-0.3962559998035431;-0.6802719831466675;1.2453759908676147;0.0;0.0;0.0
2214;0.0;0.0;0.0;-0.39235198497772217;-0.684175968170166;1.2326879501342773;0.0;0.0;0.0
2216;0.0;0.0;0.0;-0.38844799995422363;-0.6529439687728882;1.2531839609146118;0.0;0.0;0.0
2218;-0.5148400068283081;-0.5324079990386963;1.1175199747085571;-0.3962559998035431;-0.6490399837493896;1.2570879459381104;-18.138750076293945;-9.65999984741211;-24.298749923706055
2220;0.0;0.0;0.0;-0.3845439851284027;-0.676367998123169;1.2326879501342773;0.0;0.0;0.0
2222;0.0;0.0;0.0;-0.3845439851284027;-0.6568480134010315;1.2326879501342773;0.0;0.0;0.0
2224;0.0;0.0;0.0;-0.3728320002555847;-0.6490399837493896;1.2453759908676147;0.0;0.0;0.0
2226;-0.5075199604034424;-0.522159993648529;1.1101999282836914;-0.3533119857311249;-0.6568480134010315;1.2326879501342773;-10.998750686645508;-17.56999969482422;-20.028751373291016
2229;0.0;0.0;0.0;-0.3533119857311249;-0.586575984954834;1.2492799758911133;0.0;0.0;0.0
2231;0.0;0.0;0.0;-0.3425759971141815;-0.6334239840507507;1.2287839651107788;0.0;0.0;0.0
2233;0.0;0.0;0.0;-0.2879199981689453;-0.5982879996299744;1.2248799800872803;0.0;0.0;0.0
2235;-0.4577440023422241;-0.48677998781204224;1.0933640003204346;-0.30353599786758423;-0.6060959696769714;1.2170720100402832;-3.088750123977661;-25.899999618530273;-17.0887508392334
2237;0.0;0.0;0.0;-0.28011199831962585;-0.6060959696769714;1.2121919393539429;0.0;0.0;0.0
2239;0.0;0.0;0.0;-0.2683999836444855;-0.5826719999313354;1.2170720100402832;0.0;0.0;0.0
2241;0.0;0.0;0.0;-0.2566879987716675;-0.5709599852561951;1.1799839735031128;0.0;0.0;0.0
2243;-0.3955239951610565;-0.4614039957523346;1.0716480016708374;-0.23716799914836884;-0.5787680149078369;1.1721760034561157;2.651249885559082;-32.27000045776367;-15.548749923706055
2246;0.0;0.0;0.0;-0.2176479995250702;-0.5709599852561951;1.1838879585266113;0.0;0.0;0.0
2248;0.0;0.0;0.0;-0.205935999751091;-0.5787680149078369;1.2004799842834473;0.0;0.0;0.0
2250;0.0;0.0;0.0;-0.16299200057983398;-0.5514400005340576;1.1643680334091187;0.0;0.0;0.0
2252;-0.31744399666786194;-0.41919198632240295;1.0592039823532104;-0.1395680010318756;-0.5241119861602783;1.1926720142364502;4.191250324249268;-36.88999938964844;-14.778749465942383
2254;0.0;0.0;0.0;-0.12004800140857697;-0.5280159711837769;1.1643680334091187;0.0;0.0;0.0
2256;0.0;0.0;0.0;-0.10833600163459778;-0.5006880164146423;1.1682720184326172;0.0;0.0;0.0
2258;0.0;0.0;0.0;-0.09662400186061859;-0.5163040161132812;1.1926720142364502;0.0;0.0;0.0
2260;-0.23350799083709717;-0.38551998138427734;1.0538359880447388;-0.07807999849319458;-0.5123999714851379;1.1965759992599487;1.3212499618530273;-36.61000061035156;-16.318750381469727
2263;0.0;0.0;0.0;-0.058559998869895935;-0.48507198691368103;1.1838879585266113;0.0;0.0;0.0
2265;0.0;0.0;0.0;-0.062463998794555664;-0.5202080011367798;1.2004799842834473;0.0;0.0;0.0
2267;0.0;0.0;0.0;-0.058559998869895935;-0.5123999714851379;1.1965759992599487;0.0;0.0;0.0
2269;-0.18714798986911774;-0.3862519860267639;1.0616439580917358;-0.015615999698638916;-0.5202080011367798;1.1926720142364502;-2.8787500858306885;-30.65999984741211;-19.46875
2271;0.0;0.0;0.0;-0.07807999849319458;-0.5202080011367798;1.2209759950637817;0.0;0.0;0.0
2273;0.0;0.0;0.0;-0.07027199864387512;-0.563152015209198;1.2121919393539429;0.0;0.0;0.0
2275;0.0;0.0;0.0;-0.0663679987192154;-0.5319200158119202;1.2248799800872803;0.0;0.0;0.0
2277;-0.16665199398994446;-0.40064799785614014;1.09580397605896;-0.04684799909591675;-0.5358240008354187;1.2648959159851074;-6.518749713897705;-24.709999084472656;-22.548749923706055
2280;0.0;0.0;0.0;-0.054655998945236206;-0.5592479705810547;1.2570879459381104;0.0;0.0;0.0
2282;0.0;0.0;0.0;-0.07027199864387512;-0.5280159711837769;1.2648959159851074;0.0;0.0;0.0
2284;0.0;0.0;0.0;-0.10052800178527832;-0.5553439855575562;1.2775839567184448;0.0;0.0;0.0
2286;-0.19227199256420135;-0.41577598452568054;1.1348439455032349;-0.11224000155925751;-0.5436319708824158;1.2980799674987793;-8.338749885559082;-18.829999923706055;-26.048749923706055
2288;0.0;0.0;0.0;-0.10833600163459778;-0.5514400005340576;1.28929603099823;0.0;0.0;0.0
2290;0.0;0.0;0.0;-0.13176000118255615;-0.5397279858589172;1.3058879375457764;0.0;0.0;0.0
2292;0.0;0.0;0.0;-0.17080000042915344;-0.5202080011367798;1.309791922569275;0.0;0.0;0.0
2294;-0.24912399053573608;-0.4062599837779999;1.1560720205307007;-0.14347200095653534;-0.5280159711837769;1.2736799716949463;-6.378749847412109;-14.84000015258789;-28.568750381469727
2297;0.0;0.0;0.0;-0.15908800065517426;-0.5123999714851379;1.285391926765442;0.0;0.0;0.0
2299;0.0;0.0;0.0;-0.15908800065517426;-0.5202080011367798;1.2980799674987793;0.0;0.0;0.0
2301;0.0;0.0;0.0;-0.1786080002784729;-0.5045920014381409;1.28929603099823;0.0;0.0;0.0
2303;-0.28303998708724976;-0.3777119815349579;1.1514359712600708;-0.15908800065517426;-0.4772639870643616;1.2775839567184448;-0.8487499952316284;-13.579999923706055;-28.638750076293945
2305;0.0;0.0;0.0;-0.17470400035381317;-0.48507198691368103;1.2492799758911133;0.0;0.0;0.0
2307;0.0;0.0;0.0;-0.17080000042915344;-0.44603198766708374;1.2609919309616089;0.0;0.0;0.0
2309;0.0;0.0;0.0;-0.1668960005044937;-0.46164798736572266;1.2648959159851074;0.0;0.0;0.0
2311;-0.2874319851398468;-0.3362320065498352;1.1302080154418945;-0.1668960005044937;-0.46164798736572266;1.2209759950637817;5.381250381469727;-11.269999504089355;-26.39875030517578
2314;0.0;0.0;0.0;-0.19422399997711182;-0.4421280026435852;1.2531839609146118;0.0;0.0;0.0
2316;0.0;0.0;0.0;-0.17080000042915344;-0.41870400309562683;1.2326879501342773;0.0;0.0;0.0
2318;0.0;0.0;0.0;-0.21374399960041046;-0.44993600249290466;1.2492799758911133;0.0;0.0;0.0
2320;-0.3123199939727783;-0.3025600016117096;1.1184959411621094;-0.22935999929904938;-0.4108960032463074;1.2570879459381104;9.931249618530273;-5.810000419616699;-23.87874984741211
2322;0.0;0.0;0.0;-0.2176479995250702;-0.4030880033969879;1.2531839609146118;0.0;0.0;0.0
2324;0.0;0.0;0.0;-0.22545599937438965;-0.37966400384902954;1.285391926765442;0.0;0.0;0.0
2326;0.0;0.0;0.0;-0.2683999836444855;-0.3835679888725281;1.2365919351577759;0.0;0.0;0.0
2328;-0.36209598183631897;-0.2518079876899719;1.1231319904327393;-0.260591983795166;-0.3484320044517517;1.2492799758911133;11.751249313354492;-2.379999876022339;-20.5887508392334
2331;0.0;0.0;0.0;-0.26449599862098694;-0.36795198917388916;1.2365919351577759;0.0;0.0;0.0
2333;0.0;0.0;0.0;-0.26449599862098694;-0.3445279896259308;1.2404959201812744;0.0;0.0;0.0
2335;0.0;0.0;0.0;-0.30353599786758423;-0.32891198992729187;1.2531839609146118;0.0;0.0;0.0
2337;-0.38771599531173706;-0.20813199877738953;1.1136159896850586;-0.29182398319244385;-0.32500800490379333;1.2082879543304443;11.961249351501465;-0.9800000190734863;-15.05875015258789
2339;0.0;0.0;0.0;-0.2879199981689453;-0.32500800490379333;1.2326879501342773;0.0;0.0;0.0
2341;0.0;0.0;0.0;-0.260591983795166;-0.30158400535583496;1.2004799842834473;0.0;0.0;0.0
2343;0.0;0.0;0.0;-0.30353599786758423;-0.2547360062599182;1.2248799800872803;0.0;0.0;0.0
2345;-0.4062599837779999;-0.16909199953079224;1.0970239639282227;-0.3113439977169037;-0.2820639908313751;1.2082879543304443;13.291250228881836;1.5399999618530273;-8.898749351501465
2348;0.0;0.0;0.0;-0.33769598603248596;-0.22740799188613892;1.2326879501342773;0.0;0.0;0.0
2350;0.0;0.0;0.0;-0.30743998289108276;-0.24692799150943756;1.1965759992599487;0.0;0.0;0.0
2352;0.0;0.0;0.0;-0.3455039858818054;-0.24302399158477783;1.2121919393539429;0.0;0.0;0.0
2354;-0.447983980178833;-0.11370399594306946;1.0775039196014404;-0.3416000008583069;-0.24692799150943756;1.1887680292129517;14.481249809265137;3.080000162124634;-1.4787499904632568
2356;0.0;0.0;0.0;-0.3416000008583069;-0.2547360062599182;1.1799839735031128;0.0;0.0;0.0
2358;0.0;0.0;0.0;-0.33476799726486206;-0.21959999203681946;1.1516799926757812;0.0;0.0;0.0
2360;0.0;0.0;0.0;-0.33086398243904114;-0.21959999203681946;1.1760799884796143;0.0;0.0;0.0
2362;-0.45652398467063904;-0.10443200170993805;1.0457839965820312;-0.33769598603248596;-0.20398399233818054;1.1799839735031128;17.42125129699707;3.570000171661377;2.3012502193450928
2365;0.0;0.0;0.0;-0.31915199756622314;-0.2117919921875;1.1682720184326172;0.0;0.0;0.0
2367;0.0;0.0;0.0;-0.3269599974155426;-0.17665599286556244;1.2082879543304443;0.0;0.0;0.0
2369;0.0;0.0;0.0;-0.3416000008583069;-0.1844639927148819;1.1887680292129517;0.0;0.0;0.0
2371;-0.4387120008468628;-0.04904399812221527;1.0467599630355835;-0.32598400115966797;-0.1571359932422638;1.1887680292129517;20.78125;1.6100000143051147;6.221250057220459
2373;0.0;0.0;0.0;-0.3113439977169037;-0.14151999354362488;1.1721760034561157;0.0;0.0;0.0
2375;0.0;0.0;0.0;-0.29182398319244385;-0.11028799414634705;1.1682720184326172;0.0;0.0;0.0
