Timestamp(ms);LG-Accel x(g);LG-Accel y(g);LG-Accel z(g);HG-Accel x(g);HG-Accel y(g);HG-Accel z(g);Gyro x(dps);Gyro y(dps);Gyro z(dps)
124;0.0;0.0;0.0;0.230335995554924;-0.12297599762678146;1.1292319297790527;0.0;0.0;0.0
126;0.0;0.0;0.0;0.2576639950275421;-0.13859200477600098;1.1292319297790527;0.0;0.0;0.0
128;0.0;0.0;0.0;0.24985599517822266;-0.13859200477600098;1.1175199747085571;0.0;0.0;0.0
130;0.0;0.0;0.0;0.24985599517822266;-0.13078400492668152;1.0970239639282227;0.0;0.0;0.0
132;0.0;0.0;0.0;0.21862399578094482;-0.15811198949813843;1.1419199705123901;0.0;0.0;0.0
135;0.0;0.0;0.0;0.22252799570560455;-0.16396799683570862;1.1136159896850586;0.0;0.0;0.0
137;0.0;0.0;0.0;0.23814399540424347;-0.15225599706172943;1.10971200466156;0.0;0.0;0.0
139;0.0;0.0;0.0;0.23814399540424347;-0.1327359974384308;1.10971200466156;0.0;0.0;0.0
141;0.10833600163459778;-0.008295999839901924;0.9864919781684875;0.2420479953289032;-0.15615999698638916;1.122399926185608;0.0;0.0;0.0
143;0.0;0.0;0.0;0.21862399578094482;-0.1483519971370697;1.126304030418396;0.0;0.0;0.0
145;0.0;0.0;0.0;0.23814399540424347;-0.14444799721240997;1.1058080196380615;0.0;0.0;0.0
147;0.0;0.0;0.0;0.24595199525356293;-0.1483519971370697;1.0940959453582764;0.0;0.0;0.0
150;0.11492399871349335;-0.011223999783396721;0.9845399856567383;0.2693759799003601;-0.14054399728775024;1.097999930381775;0.0;0.0;0.0
152;0.0;0.0;0.0;0.2420479953289032;-0.14444799721240997;1.1058080196380615;0.0;0.0;0.0
154;0.0;0.0;0.0;0.24595199525356293;-0.1327359974384308;1.097999930381775;0.0;0.0;0.0
156;0.0;0.0;0.0;0.24595199525356293;-0.1600639969110489;1.1058080196380615;0.0;0.0;0.0
158;0.11614400148391724;-0.008051999844610691;0.9852719902992249;0.23814399540424347;-0.14444799721240997;1.122399926185608;0.0;0.0;0.0
160;0.0;0.0;0.0;0.24595199525356293;-0.15615999698638916;1.1184959411621094;0.0;0.0;0.0
162;0.0;0.0;0.0;0.21862399578094482;-0.12883199751377106;1.10971200466156;0.0;0.0;0.0
164;0.0;0.0;0.0;0.20691199600696564;-0.1600639969110489;1.1184959411621094;0.0;0.0;0.0
167;0.10467600077390671;-0.0014639999717473984;0.9911279678344727;0.22252799570560455;-0.1327359974384308;1.101904034614563;0.0;0.0;0.0
169;0.0;0.0;0.0;0.2420479953289032;-0.15615999698638916;1.097999930381775;0.0;0.0;0.0
171;0.0;0.0;0.0;0.2576639950275421;-0.13663999736309052;1.097999930381775;0.0;0.0;0.0
173;0.0;0.0;0.0;0.22252799570560455;-0.15225599706172943;1.122399926185608;0.0;0.0;0.0
175;0.09930799901485443;-0.0019519999623298645;0.9901520013809204;0.21081599593162537;-0.13663999736309052;1.101904034614563;0.0;0.0;0.0
177;0.0;0.0;0.0;0.22643199563026428;-0.12492799758911133;1.1145919561386108;0.0;0.0;0.0
179;0.0;0.0;0.0;0.22643199563026428;-0.1483519971370697;1.101904034614563;0.0;0.0;0.0
181;0.0;0.0;0.0;0.21081599593162537;-0.14054399728775024;1.0940959453582764;0.0;0.0;0.0
183;0.10711599886417389;-0.003659999929368496;0.9891759753227234;0.23423999547958374;-0.17177599668502808;1.1058080196380615;1.115625023841858;-1.1856250762939453;-0.8400000333786011
186;0.0;0.0;0.0;0.23423999547958374;-0.12492799758911133;1.1145919561386108;0.0;0.0;0.0
188;0.0;0.0;0.0;0.24595199525356293;-0.12883199751377106;1.122399926185608;0.0;0.0;0.0
190;0.0;0.0;0.0;0.23423999547958374;-0.14444799721240997;1.0901919603347778;0.0;0.0;0.0
192;0.11248400062322617;-0.0014639999717473984;0.9828319549560547;0.2420479953289032;-0.10540799796581268;1.0814080238342285;1.1856250762939453;-0.6956250071525574;-0.8400000333786011
194;0.0;0.0;0.0;0.21862399578094482;-0.11321599781513214;1.1145919561386108;0.0;0.0;0.0
196;0.0;0.0;0.0;0.24985599517822266;-0.13663999736309052;1.122399926185608;0.0;0.0;0.0
198;0.0;0.0;0.0;0.24985599517822266;-0.14444799721240997;1.10971200466156;0.0;0.0;0.0
201;0.11199599504470825;-0.0017079999670386314;0.9830759763717651;0.23814399540424347;-0.1483519971370697;1.0892159938812256;1.3956249952316284;-0.5556250214576721;-0.49000000953674316
203;0.0;0.0;0.0;0.22252799570560455;-0.14054399728775024;1.1058080196380615;0.0;0.0;0.0
205;0.0;0.0;0.0;0.24595199525356293;-0.14444799721240997;1.1145919561386108;0.0;0.0;0.0
207;0.0;0.0;0.0;0.230335995554924;-0.1327359974384308;1.0940959453582764;0.0;0.0;0.0
209;0.10955599695444107;-0.0014639999717473984;0.9852719902992249;0.24595199525356293;-0.12883199751377106;1.1184959411621094;1.1856250762939453;0.07437500357627869;-0.2800000011920929
211;0.0;0.0;0.0;0.230335995554924;-0.14444799721240997;1.101904034614563;0.0;0.0;0.0
213;0.0;0.0;0.0;0.2420479953289032;-0.11321599781513214;1.097999930381775;0.0;0.0;0.0
215;0.0;0.0;0.0;0.24985599517822266;-0.1483519971370697;1.101904034614563;0.0;0.0;0.0
218;0.11028799414634705;0.0;0.9818559885025024;0.24595199525356293;-0.12883199751377106;1.10971200466156;1.2556250095367432;0.4243750274181366;0.14000000059604645
220;0.0;0.0;0.0;0.22643199563026428;-0.11711999773979187;1.101904034614563;0.0;0.0;0.0
222;0.0;0.0;0.0;0.24595199525356293;-0.1210239976644516;1.10971200466156;0.0;0.0;0.0
224;0.0;0.0;0.0;0.24985599517822266;-0.12492799758911133;1.097999930381775;0.0;0.0;0.0
226;0.09955199807882309;0.00317199993878603;0.9862479567527771;0.20691199600696564;-0.14054399728775024;1.097999930381775;1.4656250476837158;0.4943750202655792;0.42000001668930054
228;0.0;0.0;0.0;0.23423999547958374;-0.1327359974384308;1.1058080196380615;0.0;0.0;0.0
230;0.0;0.0;0.0;0.22252799570560455;-0.11711999773979187;1.134112000465393;0.0;0.0;0.0
232;0.0;0.0;0.0;0.2420479953289032;-0.12883199751377106;1.1145919561386108;0.0;0.0;0.0
235;0.09979599714279175;0.003659999929368496;0.9901520013809204;0.22252799570560455;-0.1210239976644516;1.126304030418396;1.2556250095367432;-0.13562500476837158;0.21000000834465027
237;0.0;0.0;0.0;0.22252799570560455;-0.12883199751377106;1.122399926185608;0.0;0.0;0.0
239;0.0;0.0;0.0;0.23423999547958374;-0.11321599781513214;1.10971200466156;0.0;0.0;0.0
241;0.0;0.0;0.0;0.23423999547958374;-0.12883199751377106;1.097999930381775;0.0;0.0;0.0
243;0.10565199702978134;0.003415999934077263;0.9891759753227234;0.2147199958562851;-0.14054399728775024;1.1136159896850586;0.6256250143051147;-1.115625023841858;0.21000000834465027
245;0.0;0.0;0.0;0.22643199563026428;-0.13663999736309052;1.1184959411621094;0.0;0.0;0.0
247;0.0;0.0;0.0;0.24595199525356293;-0.11711999773979187;1.1058080196380615;0.0;0.0;0.0
249;0.0;0.0;0.0;0.2420479953289032;-0.14054399728775024;1.0775039196014404;0.0;0.0;0.0
252;0.11492399871349335;-0.00024399999529123306;0.9894199967384338;0.2693759799003601;-0.14054399728775024;1.1145919561386108;-0.0043750000186264515;-1.8156250715255737;0.14000000059604645
254;0.0;0.0;0.0;0.23423999547958374;-0.15225599706172943;1.126304030418396;0.0;0.0;0.0
256;0.0;0.0;0.0;0.24985599517822266;-0.1210239976644516;1.134112000465393;0.0;0.0;0.0
258;0.0;0.0;0.0;0.2537599802017212;-0.12883199751377106;1.101904034614563;0.0;0.0;0.0
260;0.12199999392032623;-0.0056119998916983604;0.9864919781684875;0.26156800985336304;-0.1327359974384308;1.0901919603347778;-0.21437500417232513;-2.025624990463257;-0.07000000029802322
262;0.0;0.0;0.0;0.24595199525356293;-0.16787199676036835;1.1428959369659424;0.0;0.0;0.0
264;0.0;0.0;0.0;0.2147199958562851;-0.14054399728775024;1.10971200466156;0.0;0.0;0.0
266;0.0;0.0;0.0;0.2420479953289032;-0.1600639969110489;1.1184959411621094;0.0;0.0;0.0
269;0.12370799481868744;-0.012931999750435352;0.9872239828109741;0.2537599802017212;-0.1600639969110489;1.0901919603347778;0.34562498331069946;-0.6256250143051147;-0.14000000059604645
271;0.0;0.0;0.0;0.2420479953289032;-0.14054399728775024;1.101904034614563;0.0;0.0;0.0
273;0.0;0.0;0.0;0.2537599802017212;-0.15225599706172943;1.1058080196380615;0.0;0.0;0.0
275;0.0;0.0;0.0;0.22643199563026428;-0.1483519971370697;1.097999930381775;0.0;0.0;0.0
277;0.1163880005478859;-0.012199999764561653;0.9842959642410278;0.22643199563026428;-0.1327359974384308;1.0901919603347778;1.4656250476837158;0.07437500357627869;0.21000000834465027
279;0.0;0.0;0.0;0.22252799570560455;-0.17177599668502808;1.1136159896850586;0.0;0.0;0.0
281;0.0;0.0;0.0;0.23423999547958374;-0.1600639969110489;1.1145919561386108;0.0;0.0;0.0
283;0.0;0.0;0.0;0.2147199958562851;-0.13663999736309052;1.1058080196380615;0.0;0.0;0.0
286;0.10711599886417389;-0.007075999863445759;0.9911279678344727;0.22643199563026428;-0.14444799721240997;1.126304030418396;2.445625066757202;0.0043750000186264515;0.42000001668930054
288;0.0;0.0;0.0;0.22643199563026428;-0.12883199751377106;1.097999930381775;0.0;0.0;0.0
290;0.0;0.0;0.0;0.23814399540424347;-0.15225599706172943;1.122399926185608;0.0;0.0;0.0
292;0.0;0.0;0.0;0.22643199563026428;-0.14054399728775024;1.097999930381775;0.0;0.0;0.0
294;0.10223599523305893;-0.004635999910533428;0.9925919771194458;0.22252799570560455;-0.14444799721240997;1.126304030418396;2.3056249618530273;-0.4156250059604645;0.14000000059604645
296;0.0;0.0;0.0;0.23423999547958374;-0.1483519971370697;1.0862879753112793;0.0;0.0;0.0
298;0.0;0.0;0.0;0.22643199563026428;-0.1210239976644516;1.1136159896850586;0.0;0.0;0.0
300;0.0;0.0;0.0;0.24595199525356293;-0.1483519971370697;1.101904034614563;0.0;0.0;0.0
303;0.10662800073623657;-0.0019519999623298645;0.9864919781684875;0.23423999547958374;-0.12883199751377106;1.10971200466156;1.8156250715255737;-1.0456249713897705;-0.5600000023841858
305;0.0;0.0;0.0;0.2420479953289032;-0.13663999736309052;1.10971200466156;0.0;0.0;0.0
307;0.0;0.0;0.0;0.26156800985336304;-0.11711999773979187;1.10971200466156;0.0;0.0;0.0
309;0.0;0.0;0.0;0.230335995554924;-0.12883199751377106;1.101904034614563;0.0;0.0;0.0
311;0.11760799586772919;0.0007319999858736992;0.9799039959907532;0.22643199563026428;-0.15225599706172943;1.073599934577942;1.4656250476837158;-1.1856250762939453;-0.699999988079071
313;0.0;0.0;0.0;0.23814399540424347;-0.15615999698638916;1.101904034614563;0.0;0.0;0.0
315;0.0;0.0;0.0;0.2654719948768616;-0.12492799758911133;1.0657919645309448;0.0;0.0;0.0
317;0.0;0.0;0.0;0.2576639950275421;-0.14444799721240997;1.097999930381775;0.0;0.0;0.0
320;0.12151199579238892;-0.0019519999623298645;0.9752680063247681;0.2693759799003601;-0.12883199751377106;1.101904034614563;1.3956249952316284;-0.8356250524520874;-0.2800000011920929
322;0.0;0.0;0.0;0.2420479953289032;-0.14444799721240997;1.0940959453582764;0.0;0.0;0.0
324;0.0;0.0;0.0;0.2537599802017212;-0.10931199789047241;1.1145919561386108;0.0;0.0;0.0
326;0.0;0.0;0.0;0.23814399540424347;-0.15225599706172943;1.122399926185608;0.0;0.0;0.0
328;0.11785199493169785;-0.0024399999529123306;0.9789279699325562;0.2654719948768616;-0.1327359974384308;1.1145919561386108;1.1856250762939453;-0.27562499046325684;-0.2800000011920929
330;0.0;0.0;0.0;0.2576639950275421;-0.1483519971370697;1.126304030418396;0.0;0.0;0.0
332;0.0;0.0;0.0;0.2420479953289032;-0.14444799721240997;1.097999930381775;0.0;0.0;0.0
334;0.0;0.0;0.0;0.24985599517822266;-0.12883199751377106;1.1058080196380615;0.0;0.0;0.0
337;0.11760799586772919;-0.003659999929368496;0.9794159531593323;0.24595199525356293;-0.1483519971370697;1.0901919603347778;0.9756250381469727;0.1443749964237213;-0.6299999952316284
339;0.0;0.0;0.0;0.230335995554924;-0.15225599706172943;1.0901919603347778;0.0;0.0;0.0
341;0.0;0.0;0.0;0.23423999547958374;-0.1483519971370697;1.0940959453582764;0.0;0.0;0.0
343;0.0;0.0;0.0;0.24985599517822266;-0.14054399728775024;1.097999930381775;0.0;0.0;0.0
345;0.12004800140857697;-0.006587999872863293;0.9811239838600159;0.24985599517822266;-0.15225599706172943;1.0940959453582764;0.8356250524520874;0.9143750071525574;-0.6299999952316284
347;0.0;0.0;0.0;0.2654719948768616;-0.1210239976644516;1.101904034614563;0.0;0.0;0.0
349;0.0;0.0;0.0;0.21862399578094482;-0.15225599706172943;1.0940959453582764;0.0;0.0;0.0
351;0.0;0.0;0.0;0.2537599802017212;-0.12883199751377106;1.0901919603347778;0.0;0.0;0.0
354;0.1227319985628128;-0.007075999863445759;0.9781959652900696;0.24985599517822266;-0.13663999736309052;1.097999930381775;1.115625023841858;1.824375033378601;-0.21000000834465027
356;0.0;0.0;0.0;0.26156800985336304;-0.14054399728775024;1.0814080238342285;0.0;0.0;0.0
358;0.0;0.0;0.0;0.230335995554924;-0.1327359974384308;1.085312008857727;0.0;0.0;0.0
360;0.0;0.0;0.0;0.23423999547958374;-0.1600639969110489;1.0901919603347778;0.0;0.0;0.0
362;0.11199599504470825;-0.004147999919950962;0.9740479588508606;0.24595199525356293;-0.13663999736309052;1.1302080154418945;1.8856250047683716;-0.06562499701976776;0.6299999952316284
364;0.0;0.0;0.0;0.21081599593162537;-0.14054399728775024;1.1136159896850586;0.0;0.0;0.0
366;0.0;0.0;0.0;0.22643199563026428;-0.15225599706172943;1.0814080238342285;0.0;0.0;0.0
368;0.0;0.0;0.0;0.230335995554924;-0.17958399653434753;1.085312008857727;0.0;0.0;0.0
371;0.1000399962067604;-0.015371999703347683;0.9772199988365173;0.24985599517822266;-0.15615999698638916;1.101904034614563;1.7456250190734863;-2.2356250286102295;0.3499999940395355
373;0.0;0.0;0.0;0.24595199525356293;-0.1600639969110489;1.1184959411621094;0.0;0.0;0.0
375;0.0;0.0;0.0;0.24985599517822266;-0.12492799758911133;1.1302080154418945;0.0;0.0;0.0
377;0.0;0.0;0.0;0.284991979598999;-0.12883199751377106;1.1428959369659424;0.0;0.0;0.0
379;0.11663199961185455;0.005123999901115894;1.00381600856781;0.23814399540424347;-0.09759999811649323;1.1184959411621094;1.0456249713897705;-1.8156250715255737;-1.5399999618530273
381;0.0;0.0;0.0;0.230335995554924;-0.11711999773979187;1.1302080154418945;0.0;0.0;0.0
383;0.0;0.0;0.0;0.23423999547958374;-0.10931199789047241;1.1058080196380615;0.0;0.0;0.0
386;0.0;0.0;0.0;0.23423999547958374;-0.14444799721240997;1.1184959411621094;0.0;0.0;0.0
388;0.12126799672842026;0.01268799975514412;0.9891759753227234;0.23814399540424347;-0.12492799758911133;1.097999930381775;-0.4243750274181366;-1.4656250476837158;-1.399999976158142
390;0.0;0.0;0.0;0.22643199563026428;-0.13663999736309052;1.1145919561386108;0.0;0.0;0.0
392;0.0;0.0;0.0;0.2537599802017212;-0.11321599781513214;1.1136159896850586;0.0;0.0;0.0
394;0.0;0.0;0.0;0.21862399578094482;-0.1327359974384308;1.1058080196380615;0.0;0.0;0.0
396;0.12809999287128448;-0.00878399983048439;0.9862479567527771;0.2693759799003601;-0.1483519971370697;1.10971200466156;-0.5643749833106995;-0.9756250381469727;-0.21000000834465027
398;0.0;0.0;0.0;0.2537599802017212;-0.1483519971370697;1.101904034614563;0.0;0.0;0.0
400;0.0;0.0;0.0;0.2576639950275421;-0.1600639969110489;1.101904034614563;0.0;0.0;0.0
403;0.0;0.0;0.0;0.24595199525356293;-0.14054399728775024;1.1058080196380615;0.0;0.0;0.0
405;0.12541599571704865;-0.015859998762607574;0.9896639585494995;0.2537599802017212;-0.1327359974384308;1.1184959411621094;0.4156250059604645;1.4043749570846558;-0.07000000029802322
407;0.0;0.0;0.0;0.23423999547958374;-0.19129599630832672;1.101904034614563;0.0;0.0;0.0
409;0.0;0.0;0.0;0.21862399578094482;-0.1600639969110489;1.10971200466156;0.0;0.0;0.0
411;0.0;0.0;0.0;0.23814399540424347;-0.14054399728775024;1.101904034614563;0.0;0.0;0.0
413;0.1076039969921112;-0.012931999750435352;0.9833199977874756;0.20691199600696564;-0.15615999698638916;1.1302080154418945;2.445625066757202;1.9643750190734863;-0.2800000011920929
415;0.0;0.0;0.0;0.22643199563026428;-0.11711999773979187;1.1058080196380615;0.0;0.0;0.0
417;0.0;0.0;0.0;0.23814399540424347;-0.12883199751377106;1.122399926185608;0.0;0.0;0.0
420;0.0;0.0;0.0;0.21862399578094482;-0.10931199789047241;1.122399926185608;0.0;0.0;0.0
422;0.10516399890184402;0.0017079999670386314;0.9874680042266846;0.24985599517822266;-0.14054399728775024;1.126304030418396;3.215625047683716;-0.2056250125169754;-0.3499999940395355
424;0.0;0.0;0.0;0.2654719948768616;-0.1327359974384308;1.1302080154418945;0.0;0.0;0.0
426;0.0;0.0;0.0;0.24985599517822266;-0.13663999736309052;1.1184959411621094;0.0;0.0;0.0
428;0.0;0.0;0.0;0.24985599517822266;-0.10150399804115295;1.122399926185608;0.0;0.0;0.0
430;0.11394799500703812;0.012931999750435352;0.9938119649887085;0.230335995554924;-0.10931199789047241;1.1058080196380615;2.025624990463257;0.21437500417232513;-0.5600000023841858
432;0.0;0.0;0.0;0.21862399578094482;-0.09759999811649323;1.1058080196380615;0.0;0.0;0.0
434;0.0;0.0;0.0;0.22252799570560455;-0.14444799721240997;1.10971200466156;0.0;0.0;0.0
437;0.0;0.0;0.0;0.24985599517822266;-0.11711999773979187;1.1184959411621094;0.0;0.0;0.0
439;0.10955599695444107;0.01268799975514412;0.9799039959907532;0.24985599517822266;-0.1210239976644516;1.0940959453582764;0.6256250143051147;0.5643749833106995;-0.6299999952316284
441;0.0;0.0;0.0;0.230335995554924;-0.14444799721240997;1.0940959453582764;0.0;0.0;0.0
443;0.0;0.0;0.0;0.22252799570560455;-0.11321599781513214;1.1184959411621094;0.0;0.0;0.0
445;0.0;0.0;0.0;0.24985599517822266;-0.10931199789047241;1.10971200466156;0.0;0.0;0.0
447;0.115167997777462;0.0024399999529123306;0.9764879941940308;0.24595199525356293;-0.14444799721240997;1.101904034614563;0.4856249988079071;0.4943750202655792;-0.21000000834465027
449;0.0;0.0;0.0;0.2537599802017212;-0.14054399728775024;1.1058080196380615;0.0;0.0;0.0
451;0.0;0.0;0.0;0.23814399540424347;-0.14054399728775024;1.10971200466156;0.0;0.0;0.0
454;0.0;0.0;0.0;0.23814399540424347;-0.1483519971370697;1.1058080196380615;0.0;0.0;0.0
456;0.11955999583005905;-0.007075999863445759;0.9864919781684875;0.230335995554924;-0.15225599706172943;1.1145919561386108;0.765625;1.6143749952316284;-0.14000000059604645
458;0.0;0.0;0.0;0.230335995554924;-0.12492799758911133;1.1058080196380615;0.0;0.0;0.0
460;0.0;0.0;0.0;0.19519999623298645;-0.14054399728775024;1.10971200466156;0.0;0.0;0.0
462;0.0;0.0;0.0;0.230335995554924;-0.16396799683570862;1.10971200466156;0.0;0.0;0.0
464;0.10735999792814255;-0.005123999901115894;0.981611967086792;0.21862399578094482;-0.14054399728775024;1.1145919561386108;1.3956249952316284;1.894374966621399;-0.14000000059604645
466;0.0;0.0;0.0;0.2576639950275421;-0.14054399728775024;1.1058080196380615;0.0;0.0;0.0
468;0.0;0.0;0.0;0.21862399578094482;-0.14444799721240997;1.122399926185608;0.0;0.0;0.0
471;0.0;0.0;0.0;0.22643199563026428;-0.1327359974384308;1.1136159896850586;0.0;0.0;0.0
473;0.10784799605607986;0.004635999910533428;0.9906399846076965;0.230335995554924;-0.11711999773979187;1.097999930381775;1.4656250476837158;0.28437501192092896;0.3499999940395355
475;0.0;0.0;0.0;0.26156800985336304;-0.12492799758911133;1.122399926185608;0.0;0.0;0.0
477;0.0;0.0;0.0;0.23423999547958374;-0.1210239976644516;1.1058080196380615;0.0;0.0;0.0
479;0.0;0.0;0.0;0.21862399578094482;-0.1210239976644516;1.126304030418396;0.0;0.0;0.0
481;0.11419199407100677;0.006831999868154526;0.9952759742736816;0.22643199563026428;-0.12492799758911133;1.122399926185608;0.6256250143051147;1.1243749856948853;0.3499999940395355
483;0.0;0.0;0.0;0.23423999547958374;-0.12492799758911133;1.1058080196380615;0.0;0.0;0.0
485;0.0;0.0;0.0;0.21862399578094482;-0.12492799758911133;1.1184959411621094;0.0;0.0;0.0
488;0.0;0.0;0.0;0.21862399578094482;-0.1327359974384308;1.101904034614563;0.0;0.0;0.0
490;0.10321199893951416;0.004635999910533428;0.9903959631919861;0.22252799570560455;-0.11321599781513214;1.10971200466156;0.13562500476837158;1.4743750095367432;0.07000000029802322
492;0.0;0.0;0.0;0.22252799570560455;-0.14444799721240997;1.101904034614563;0.0;0.0;0.0
494;0.0;0.0;0.0;0.22643199563026428;-0.12492799758911133;1.10971200466156;0.0;0.0;0.0
496;0.0;0.0;0.0;0.24595199525356293;-0.13663999736309052;1.10971200466156;0.0;0.0;0.0
498;0.10906799882650375;0.0021959999576210976;0.9903959631919861;0.24595199525356293;-0.1210239976644516;1.1106879711151123;0.06562499701976776;0.7043749690055847;-0.3499999940395355
500;0.0;0.0;0.0;0.2576639950275421;-0.15615999698638916;1.10971200466156;0.0;0.0;0.0
502;0.0;0.0;0.0;0.24985599517822266;-0.15615999698638916;1.1058080196380615;0.0;0.0;0.0
505;0.0;0.0;0.0;0.2576639950275421;-0.13663999736309052;1.1184959411621094;0.0;0.0;0.0
507;0.12321999669075012;-0.003659999929368496;0.9877119660377502;0.230335995554924;-0.1210239976644516;1.122399926185608;0.34562498331069946;1.4743750095367432;-0.7699999809265137
509;0.0;0.0;0.0;0.2654719948768616;-0.1483519971370697;1.101904034614563;0.0;0.0;0.0
511;0.0;0.0;0.0;0.2576639950275421;-0.16787199676036835;1.122399926185608;0.0;0.0;0.0
513;0.0;0.0;0.0;0.24985599517822266;-0.14054399728775024;1.1058080196380615;0.0;0.0;0.0
515;0.13005200028419495;-0.010247999802231789;0.9811239838600159;0.230335995554924;-0.15615999698638916;1.1058080196380615;1.115625023841858;3.5043749809265137;-0.699999988079071
517;0.0;0.0;0.0;0.23423999547958374;-0.1483519971370697;1.101904034614563;0.0;0.0;0.0
519;0.0;0.0;0.0;0.230335995554924;-0.14444799721240997;1.085312008857727;0.0;0.0;0.0
522;0.0;0.0;0.0;0.23423999547958374;-0.14054399728775024;1.0940959453582764;0.0;0.0;0.0
524;0.11297199875116348;-0.007075999863445759;0.97843998670578;0.230335995554924;-0.15225599706172943;1.097999930381775;2.3056249618530273;4.904375076293945;-0.5600000023841858
526;0.0;0.0;0.0;0.19910399615764618;-0.15615999698638916;1.1058080196380615;0.0;0.0;0.0
528;0.0;0.0;0.0;0.23814399540424347;-0.14444799721240997;1.0940959453582764;0.0;0.0;0.0
530;0.0;0.0;0.0;0.19129599630832672;-0.12883199751377106;1.1184959411621094;0.0;0.0;0.0
532;0.09272000193595886;0.003659999929368496;0.97843998670578;0.22252799570560455;-0.12883199751377106;1.101904034614563;3.215625047683716;1.824375033378601;0.2800000011920929
535;0.0;0.0;0.0;0.19910399615764618;-0.1210239976644516;1.1058080196380615;0.0;0.0;0.0
536;0.0;0.0;0.0;0.230335995554924;-0.11321599781513214;1.134112000465393;0.0;0.0;0.0
539;0.0;0.0;0.0;0.22252799570560455;-0.1210239976644516;1.1184959411621094;0.0;0.0;0.0
541;0.10735999792814255;0.011711999773979187;0.9928359985351562;0.2420479953289032;-0.10931199789047241;1.122399926185608;2.025624990463257;-0.2056250125169754;0.49000000953674316
543;0.0;0.0;0.0;0.24985599517822266;-0.1483519971370697;1.122399926185608;0.0;0.0;0.0
545;0.0;0.0;0.0;0.24595199525356293;-0.14054399728775024;1.1058080196380615;0.0;0.0;0.0
547;0.0;0.0;0.0;0.22252799570560455;-0.11711999773979187;1.0940959453582764;0.0;0.0;0.0
549;0.12248799949884415;0.008051999844610691;0.9833199977874756;0.2420479953289032;-0.12492799758911133;1.101904034614563;0.06562499701976776;0.21437500417232513;0.5600000023841858
551;0.0;0.0;0.0;0.22252799570560455;-0.1210239976644516;1.0775039196014404;0.0;0.0;0.0
553;0.0;0.0;0.0;0.24595199525356293;-0.13663999736309052;1.0901919603347778;0.0;0.0;0.0
556;0.0;0.0;0.0;0.21862399578094482;-0.16787199676036835;1.073599934577942;0.0;0.0;0.0
558;0.11663199961185455;-0.00634399987757206;0.9713639616966248;0.24595199525356293;-0.1600639969110489;1.1184959411621094;-0.3543750047683716;0.7743749618530273;0.3499999940395355
560;0.0;0.0;0.0;0.24595199525356293;-0.1327359974384308;1.1184959411621094;0.0;0.0;0.0
562;0.0;0.0;0.0;0.2420479953289032;-0.15225599706172943;1.097999930381775;0.0;0.0;0.0
564;0.0;0.0;0.0;0.22643199563026428;-0.1327359974384308;1.097999930381775;0.0;0.0;0.0
566;0.12956400215625763;-0.0058559998869895935;0.98990797996521;0.22643199563026428;-0.12883199751377106;1.0814080238342285;0.4856249988079071;2.174375057220459;0.0
568;0.0;0.0;0.0;0.2576639950275421;-0.1210239976644516;1.097999930381775;0.0;0.0;0.0
571;0.0;0.0;0.0;0.24985599517822266;-0.14444799721240997;1.0862879753112793;0.0;0.0;0.0
573;0.0;0.0;0.0;0.23814399540424347;-0.12492799758911133;1.101904034614563;0.0;0.0;0.0
575;0.10858000069856644;-0.004635999910533428;0.9852719902992249;0.2420479953289032;-0.14444799721240997;1.122399926185608;1.0456249713897705;2.664375066757202;-0.3499999940395355
577;0.0;0.0;0.0;0.21862399578094482;-0.13663999736309052;1.126304030418396;0.0;0.0;0.0
579;0.0;0.0;0.0;0.230335995554924;-0.1210239976644516;1.122399926185608;0.0;0.0;0.0
581;0.0;0.0;0.0;0.230335995554924;-0.10150399804115295;1.122399926185608;0.0;0.0;0.0
583;0.09467199444770813;0.004635999910533428;0.9957639575004578;0.230335995554924;-0.10931199789047241;1.1058080196380615;1.115625023841858;0.9143750071525574;-0.42000001668930054
586;0.0;0.0;0.0;0.21081599593162537;-0.14054399728775024;1.1136159896850586;0.0;0.0;0.0
587;0.0;0.0;0.0;0.23814399540424347;-0.11321599781513214;1.1058080196380615;0.0;0.0;0.0
590;0.0;0.0;0.0;0.23814399540424347;-0.12492799758911133;1.1184959411621094;0.0;0.0;0.0
592;0.09906399995088577;0.010247999802231789;0.9969840049743652;0.22252799570560455;-0.12883199751377106;1.10971200466156;0.34562498331069946;-1.7456250190734863;-0.2800000011920929
594;0.0;0.0;0.0;0.24985599517822266;-0.11711999773979187;1.1184959411621094;0.0;0.0;0.0
596;0.0;0.0;0.0;0.2147199958562851;-0.12492799758911133;1.10971200466156;0.0;0.0;0.0
598;0.0;0.0;0.0;0.230335995554924;-0.10150399804115295;1.1184959411621094;0.0;0.0;0.0
600;0.10955599695444107;0.008051999844610691;0.9962520003318787;0.22643199563026428;-0.12492799758911133;1.10971200466156;-0.3543750047683716;-1.8156250715255737;-0.3499999940395355
603;0.0;0.0;0.0;0.23814399540424347;-0.10540799796581268;1.10971200466156;0.0;0.0;0.0
605;0.0;0.0;0.0;0.230335995554924;-0.1327359974384308;1.097999930381775;0.0;0.0;0.0
607;0.0;0.0;0.0;0.22643199563026428;-0.12883199751377106;1.0901919603347778;0.0;0.0;0.0
609;0.1117519959807396;-0.0019519999623298645;0.9835639595985413;0.21862399578094482;-0.15225599706172943;1.1058080196380615;-0.28437501192092896;-1.605625033378601;-0.5600000023841858
611;0.0;0.0;0.0;0.24595199525356293;-0.1600639969110489;1.101904034614563;0.0;0.0;0.0
613;0.0;0.0;0.0;0.24595199525356293;-0.15615999698638916;1.101904034614563;0.0;0.0;0.0
615;0.0;0.0;0.0;0.24985599517822266;-0.12883199751377106;1.097999930381775;0.0;0.0;0.0
617;0.12199999392032623;-0.0024399999529123306;0.9806360006332397;0.23423999547958374;-0.15615999698638916;1.0814080238342285;0.4856249988079071;-0.9756250381469727;-0.49000000953674316
620;0.0;0.0;0.0;0.2693759799003601;-0.12492799758911133;1.10971200466156;0.0;0.0;0.0
622;0.0;0.0;0.0;0.23423999547958374;-0.12883199751377106;1.073599934577942;0.0;0.0;0.0
624;0.0;0.0;0.0;0.230335995554924;-0.13663999736309052;1.1058080196380615;0.0;0.0;0.0
626;0.12199999392032623;-0.00024399999529123306;0.9801479578018188;0.2420479953289032;-0.13663999736309052;1.101904034614563;1.1856250762939453;0.7043749690055847;-0.3499999940395355
628;0.0;0.0;0.0;0.24985599517822266;-0.14054399728775024;1.10971200466156;0.0;0.0;0.0
630;0.0;0.0;0.0;0.21862399578094482;-0.1327359974384308;1.085312008857727;0.0;0.0;0.0
632;0.0;0.0;0.0;0.230335995554924;-0.12883199751377106;1.0892159938812256;0.0;0.0;0.0
634;0.10589599609375;0.004635999910533428;0.9799039959907532;0.21081599593162537;-0.1210239976644516;1.10971200466156;1.605625033378601;0.984375;-0.07000000029802322
637;0.0;0.0;0.0;0.230335995554924;-0.12492799758911133;1.097999930381775;0.0;0.0;0.0
639;0.0;0.0;0.0;0.22643199563026428;-0.12883199751377106;1.1184959411621094;0.0;0.0;0.0
641;0.0;0.0;0.0;0.19519999623298645;-0.14054399728775024;1.0901919603347778;0.0;0.0;0.0
643;0.09906399995088577;0.013663999736309052;0.9874680042266846;0.21081599593162537;-0.12883199751377106;1.126304030418396;1.2556250095367432;-0.6256250143051147;0.07000000029802322
645;0.0;0.0;0.0;0.230335995554924;-0.14054399728775024;1.0940959453582764;0.0;0.0;0.0
647;0.0;0.0;0.0;0.22252799570560455;-0.12883199751377106;1.10971200466156;0.0;0.0;0.0
649;0.0;0.0;0.0;0.23814399540424347;-0.10931199789047241;1.0814080238342285;0.0;0.0;0.0
651;0.10223599523305893;0.015615999698638916;0.9913719892501831;0.23423999547958374;-0.12492799758911133;1.097999930381775;0.06562499701976776;-2.2356250286102295;0.0
654;0.0;0.0;0.0;0.22252799570560455;-0.10540799796581268;1.1058080196380615;0.0;0.0;0.0
656;0.0;0.0;0.0;0.2147199958562851;-0.1600639969110489;1.0901919603347778;0.0;0.0;0.0
658;0.0;0.0;0.0;0.22252799570560455;-0.12492799758911133;1.1145919561386108;0.0;0.0;0.0
660;0.11394799500703812;0.006831999868154526;0.9882000088691711;0.21862399578094482;-0.12492799758911133;1.085312008857727;-0.9143750071525574;-2.3756251335144043;-0.21000000834465027
662;0.0;0.0;0.0;0.2654719948768616;-0.13663999736309052;1.10971200466156;0.0;0.0;0.0
664;0.0;0.0;0.0;0.2537599802017212;-0.12492799758911133;1.097999930381775;0.0;0.0;0.0
666;0.0;0.0;0.0;0.22252799570560455;-0.13663999736309052;1.1145919561386108;0.0;0.0;0.0
668;0.11955999583005905;-0.0019519999623298645;0.9799039959907532;0.230335995554924;-0.1327359974384308;1.1058080196380615;-0.6343749761581421;-1.3256250619888306;-0.2800000011920929
671;0.0;0.0;0.0;0.26156800985336304;-0.15225599706172943;1.10971200466156;0.0;0.0;0.0
673;0.0;0.0;0.0;0.24595199525356293;-0.12492799758911133;1.097999930381775;0.0;0.0;0.0
675;0.0;0.0;0.0;0.2537599802017212;-0.15225599706172943;1.0940959453582764;0.0;0.0;0.0
677;0.1180959939956665;-0.003415999934077263;0.9794159531593323;0.24595199525356293;-0.10540799796581268;1.0901919603347778;0.4856249988079071;0.1443749964237213;0.0
679;0.0;0.0;0.0;0.230335995554924;-0.12492799758911133;1.0814080238342285;0.0;0.0;0.0
681;0.0;0.0;0.0;0.230335995554924;-0.11711999773979187;1.0940959453582764;0.0;0.0;0.0
683;0.0;0.0;0.0;0.23423999547958374;-0.15225599706172943;1.101904034614563;0.0;0.0;0.0
685;0.11394799500703812;0.0007319999858736992;0.9796599745750427;0.230335995554924;-0.12492799758911133;1.085312008857727;1.5356249809265137;1.334375023841858;0.2800000011920929
688;0.0;0.0;0.0;0.21862399578094482;-0.1210239976644516;1.1145919561386108;0.0;0.0;0.0
690;0.0;0.0;0.0;0.23814399540424347;-0.1327359974384308;1.1058080196380615;0.0;0.0;0.0
692;0.0;0.0;0.0;0.26156800985336304;-0.10540799796581268;1.101904034614563;0.0;0.0;0.0
694;0.1105320006608963;0.007075999863445759;0.9830759763717651;0.24985599517822266;-0.11711999773979187;1.1058080196380615;1.6756250858306885;1.544374942779541;0.699999988079071
696;0.0;0.0;0.0;0.230335995554924;-0.12883199751377106;1.122399926185608;0.0;0.0;0.0
698;0.0;0.0;0.0;0.24595199525356293;-0.12883199751377106;1.1058080196380615;0.0;0.0;0.0
700;0.0;0.0;0.0;0.23423999547958374;-0.12492799758911133;1.10971200466156;0.0;0.0;0.0
702;0.10809199512004852;0.00951599981635809;0.985759973526001;0.24985599517822266;-0.1210239976644516;1.1058080196380615;1.115625023841858;1.2643749713897705;0.7699999809265137
705;0.0;0.0;0.0;0.21862399578094482;-0.1327359974384308;1.1184959411621094;0.0;0.0;0.0
707;0.0;0.0;0.0;0.23814399540424347;-0.13663999736309052;1.101904034614563;0.0;0.0;0.0
709;0.0;0.0;0.0;0.22252799570560455;-0.12883199751377106;1.101904034614563;0.0;0.0;0.0
711;0.10735999792814255;0.007563999854028225;0.985759973526001;0.24985599517822266;-0.14054399728775024;1.1136159896850586;0.4156250059604645;1.1243749856948853;0.6299999952316284
713;0.0;0.0;0.0;0.21081599593162537;-0.14054399728775024;1.097999930381775;0.0;0.0;0.0
715;0.0;0.0;0.0;0.21862399578094482;-0.11711999773979187;1.1145919561386108;0.0;0.0;0.0
717;0.0;0.0;0.0;0.21862399578094482;-0.12492799758911133;1.1184959411621094;0.0;0.0;0.0
719;0.10150399804115295;0.007807999849319458;0.9925919771194458;0.21862399578094482;-0.12492799758911133;1.1145919561386108;0.13562500476837158;0.07437500357627869;0.8400000333786011
722;0.0;0.0;0.0;0.22252799570560455;-0.1483519971370697;1.1184959411621094;0.0;0.0;0.0
724;0.0;0.0;0.0;0.22252799570560455;-0.1483519971370697;1.126304030418396;0.0;0.0;0.0
726;0.0;0.0;0.0;0.24595199525356293;-0.12883199751377106;1.101904034614563;0.0;0.0;0.0
728;0.10491999983787537;0.00317199993878603;0.9947879910469055;0.23423999547958374;-0.12883199751377106;1.1145919561386108;0.06562499701976776;-1.0456249713897705;0.9100000262260437
730;0.0;0.0;0.0;0.23423999547958374;-0.15225599706172943;1.101904034614563;0.0;0.0;0.0
732;0.0;0.0;0.0;0.2420479953289032;-0.16396799683570862;1.1145919561386108;0.0;0.0;0.0
734;0.0;0.0;0.0;0.230335995554924;-0.11321599781513214;1.1184959411621094;0.0;0.0;0.0
736;0.11467999964952469;-0.0019519999623298645;0.9872239828109741;0.2420479953289032;-0.15615999698638916;1.1058080196380615;0.4156250059604645;-1.1856250762939453;0.8400000333786011
739;0.0;0.0;0.0;0.26156800985336304;-0.14054399728775024;1.10971200466156;0.0;0.0;0.0
741;0.0;0.0;0.0;0.2537599802017212;-0.15615999698638916;1.0940959453582764;0.0;0.0;0.0
743;0.0;0.0;0.0;0.2576639950275421;-0.12883199751377106;1.097999930381775;0.0;0.0;0.0
745;0.12297599762678146;-0.0014639999717473984;0.9835639595985413;0.24595199525356293;-0.12883199751377106;1.0940959453582764;0.765625;-0.6956250071525574;0.5600000023841858
747;0.0;0.0;0.0;0.26156800985336304;-0.12492799758911133;1.1302080154418945;0.0;0.0;0.0
749;0.0;0.0;0.0;0.24595199525356293;-0.12492799758911133;1.097999930381775;0.0;0.0;0.0
751;0.0;0.0;0.0;0.2420479953289032;-0.1327359974384308;1.126304030418396;0.0;0.0;0.0
753;0.11882799863815308;0.003659999929368496;0.9860039949417114;0.24595199525356293;-0.12492799758911133;1.1184959411621094;0.5556250214576721;0.4243750274181366;0.21000000834465027
756;0.0;0.0;0.0;0.24985599517822266;-0.1483519971370697;1.122399926185608;0.0;0.0;0.0
758;0.0;0.0;0.0;0.230335995554924;-0.1327359974384308;1.1136159896850586;0.0;0.0;0.0
760;0.0;0.0;0.0;0.2537599802017212;-0.12883199751377106;1.1184959411621094;0.0;0.0;0.0
762;0.11028799414634705;0.005123999901115894;0.9903959631919861;0.2420479953289032;-0.12492799758911133;1.1145919561386108;0.13562500476837158;0.3543750047683716;0.5600000023841858
764;0.0;0.0;0.0;0.21862399578094482;-0.12492799758911133;1.126304030418396;0.0;0.0;0.0
766;0.0;0.0;0.0;0.23814399540424347;-0.1210239976644516;1.101904034614563;0.0;0.0;0.0
768;0.0;0.0;0.0;0.24595199525356293;-0.14054399728775024;1.1302080154418945;0.0;0.0;0.0
770;0.11077599972486496;-0.0009759999811649323;0.9938119649887085;0.26156800985336304;-0.1327359974384308;1.097999930381775;-0.1443749964237213;-0.2056250125169754;0.8400000333786011
773;0.0;0.0;0.0;0.2147199958562851;-0.14444799721240997;1.0901919603347778;0.0;0.0;0.0
775;0.0;0.0;0.0;0.24595199525356293;-0.14054399728775024;1.1145919561386108;0.0;0.0;0.0
777;0.0;0.0;0.0;0.230335995554924;-0.14444799721240997;1.0940959453582764;0.0;0.0;0.0
779;0.1163880005478859;-0.010979999788105488;0.986735999584198;0.22252799570560455;-0.16396799683570862;1.1145919561386108;0.2056250125169754;-0.2056250125169754;0.49000000953674316
781;0.0;0.0;0.0;0.24985599517822266;-0.17177599668502808;1.097999930381775;0.0;0.0;0.0
783;0.0;0.0;0.0;0.230335995554924;-0.13663999736309052;1.0940959453582764;0.0;0.0;0.0
785;0.0;0.0;0.0;0.24985599517822266;-0.13663999736309052;1.0901919603347778;0.0;0.0;0.0
787;0.11882799863815308;-0.009027999825775623;0.9842959642410278;0.2537599802017212;-0.14054399728775024;1.101904034614563;1.115625023841858;-0.06562499701976776;0.07000000029802322
790;0.0;0.0;0.0;0.24985599517822266;-0.1483519971370697;1.097999930381775;0.0;0.0;0.0
792;0.0;0.0;0.0;0.2420479953289032;-0.12492799758911133;1.097999930381775;0.0;0.0;0.0
794;0.0;0.0;0.0;0.2537599802017212;-0.1327359974384308;1.10971200466156;0.0;0.0;0.0
796;0.11077599972486496;0.0007319999858736992;0.9845399856567383;0.24595199525356293;-0.11321599781513214;1.101904034614563;1.8856250047683716;0.0043750000186264515;-0.14000000059604645
798;0.0;0.0;0.0;0.22643199563026428;-0.12492799758911133;1.085312008857727;0.0;0.0;0.0
800;0.0;0.0;0.0;0.21081599593162537;-0.12492799758911133;1.101904034614563;0.0;0.0;0.0
802;0.0;0.0;0.0;0.2420479953289032;-0.10150399804115295;1.1058080196380615;0.0;0.0;0.0
804;0.10735999792814255;0.014639999717473984;0.985759973526001;0.22252799570560455;-0.11321599781513214;1.101904034614563;1.605625033378601;0.3543750047683716;0.07000000029802322
807;0.0;0.0;0.0;0.20691199600696564;-0.1600639969110489;1.1058080196380615;0.0;0.0;0.0
809;0.0;0.0;0.0;0.21081599593162537;-0.12883199751377106;1.0901919603347778;0.0;0.0;0.0
811;0.0;0.0;0.0;0.22252799570560455;-0.10540799796581268;1.097999930381775;0.0;0.0;0.0
813;0.1029679998755455;0.022447999566793442;0.9882000088691711;0.21862399578094482;-0.12883199751377106;1.101904034614563;0.4156250059604645;0.21437500417232513;0.9800000190734863
815;0.0;0.0;0.0;0.22643199563026428;-0.11711999773979187;1.10971200466156;0.0;0.0;0.0
817;0.0;0.0;0.0;0.23423999547958374;-0.10931199789047241;1.1184959411621094;0.0;0.0;0.0
819;0.0;0.0;0.0;0.22252799570560455;-0.12883199751377106;1.1145919561386108;0.0;0.0;0.0
821;0.1012599989771843;0.014639999717473984;0.9855159521102905;0.22252799570560455;-0.13663999736309052;1.1184959411621094;-0.8443750143051147;-0.6956250071525574;1.3300000429153442
824;0.0;0.0;0.0;0.230335995554924;-0.1483519971370697;1.1058080196380615;0.0;0.0;0.0
826;0.0;0.0;0.0;0.26156800985336304;-0.11321599781513214;1.0814080238342285;0.0;0.0;0.0
828;0.0;0.0;0.0;0.23814399540424347;-0.11711999773979187;1.0940959453582764;0.0;0.0;0.0
830;0.11248400062322617;0.006587999872863293;0.9838079810142517;0.23423999547958374;-0.10931199789047241;1.1058080196380615;-1.544374942779541;-1.115625023841858;0.9100000262260437
832;0.0;0.0;0.0;0.24595199525356293;-0.12883199751377106;1.10971200466156;0.0;0.0;0.0
834;0.0;0.0;0.0;0.23814399540424347;-0.15615999698638916;1.10971200466156;0.0;0.0;0.0
836;0.0;0.0;0.0;0.24985599517822266;-0.13663999736309052;1.1058080196380615;0.0;0.0;0.0
838;0.12199999392032623;0.00024399999529123306;0.9796599745750427;0.24595199525356293;-0.11711999773979187;1.0901919603347778;-1.4743750095367432;-0.6956250071525574;0.6299999952316284
841;0.0;0.0;0.0;0.2537599802017212;-0.15225599706172943;1.1058080196380615;0.0;0.0;0.0
843;0.0;0.0;0.0;0.24595199525356293;-0.15615999698638916;1.10971200466156;0.0;0.0;0.0
845;0.0;0.0;0.0;0.23814399540424347;-0.12492799758911133;1.101904034614563;0.0;0.0;0.0
847;0.12346399575471878;0.0;0.9830759763717651;0.23814399540424347;-0.1483519971370697;1.097999930381775;-0.7743749618530273;0.28437501192092896;0.42000001668930054
849;0.0;0.0;0.0;0.2420479953289032;-0.1483519971370697;1.1058080196380615;0.0;0.0;0.0
851;0.0;0.0;0.0;0.24985599517822266;-0.13663999736309052;1.122399926185608;0.0;0.0;0.0
853;0.0;0.0;0.0;0.22252799570560455;-0.14054399728775024;1.0775039196014404;0.0;0.0;0.0
855;0.11297199875116348;0.0007319999858736992;0.982587993144989;0.23814399540424347;-0.1327359974384308;1.10971200466156;-0.21437500417232513;1.0543749332427979;0.42000001668930054
858;0.0;0.0;0.0;0.2537599802017212;-0.10540799796581268;1.1058080196380615;0.0;0.0;0.0
860;0.0;0.0;0.0;0.22643199563026428;-0.14054399728775024;1.0814080238342285;0.0;0.0;0.0
862;0.0;0.0;0.0;0.19519999623298645;-0.12883199751377106;1.10971200466156;0.0;0.0;0.0
864;0.10858000069856644;0.006099999882280827;0.9847840070724487;0.22252799570560455;-0.1210239976644516;1.085312008857727;-0.0043750000186264515;0.5643749833106995;0.699999988079071
866;0.0;0.0;0.0;0.23814399540424347;-0.1327359974384308;1.1145919561386108;0.0;0.0;0.0
868;0.0;0.0;0.0;0.22252799570560455;-0.1327359974384308;1.1184959411621094;0.0;0.0;0.0
870;0.0;0.0;0.0;0.22643199563026428;-0.12883199751377106;1.101904034614563;0.0;0.0;0.0
872;0.10955599695444107;0.010003999806940556;0.9913719892501831;0.23423999547958374;-0.12883199751377106;1.1145919561386108;-0.4943750202655792;-0.4156250059604645;1.399999976158142
875;0.0;0.0;0.0;0.23423999547958374;-0.11711999773979187;1.1184959411621094;0.0;0.0;0.0
877;0.0;0.0;0.0;0.23814399540424347;-0.14054399728775024;1.097999930381775;0.0;0.0;0.0
879;0.0;0.0;0.0;0.2420479953289032;-0.12883199751377106;1.10971200466156;0.0;0.0;0.0
881;0.10931199789047241;0.004147999919950962;0.9903959631919861;0.2537599802017212;-0.14444799721240997;1.0775039196014404;-0.7043749690055847;-0.5556250214576721;1.6100000143051147
883;0.0;0.0;0.0;0.2147199958562851;-0.1483519971370697;1.0901919603347778;0.0;0.0;0.0
885;0.0;0.0;0.0;0.24595199525356293;-0.12883199751377106;1.0901919603347778;0.0;0.0;0.0
887;0.0;0.0;0.0;0.24595199525356293;-0.13663999736309052;1.0775039196014404;0.0;0.0;0.0
889;0.10638399422168732;-0.0004879999905824661;0.982587993144989;0.22252799570560455;-0.15225599706172943;1.101904034614563;-0.0043750000186264515;-0.9756250381469727;1.190000057220459
892;0.0;0.0;0.0;0.23423999547958374;-0.11321599781513214;1.0901919603347778;0.0;0.0;0.0
894;0.0;0.0;0.0;0.23423999547958374;-0.1210239976644516;1.0775039196014404;0.0;0.0;0.0
896;0.0;0.0;0.0;0.23423999547958374;-0.12883199751377106;1.0940959453582764;0.0;0.0;0.0
898;0.1134599968791008;0.006099999882280827;0.9845399856567383;0.23423999547958374;-0.1210239976644516;1.1184959411621094;0.2056250125169754;-2.025624990463257;0.699999988079071
900;0.0;0.0;0.0;0.24595199525356293;-0.10540799796581268;1.1184959411621094;0.0;0.0;0.0
902;0.0;0.0;0.0;0.23423999547958374;-0.09759999811649323;1.1058080196380615;0.0;0.0;0.0
904;0.0;0.0;0.0;0.26156800985336304;-0.1210239976644516;1.1145919561386108;0.0;0.0;0.0
906;0.12029200047254562;0.01268799975514412;0.98990797996521;0.2420479953289032;-0.11321599781513214;1.10971200466156;-0.7743749618530273;-2.025624990463257;0.49000000953674316
909;0.0;0.0;0.0;0.2420479953289032;-0.14444799721240997;1.1184959411621094;0.0;0.0;0.0
911;0.0;0.0;0.0;0.2537599802017212;-0.12883199751377106;1.10971200466156;0.0;0.0;0.0
913;0.0;0.0;0.0;0.22252799570560455;-0.1327359974384308;1.1145919561386108;0.0;0.0;0.0
915;0.11492399871349335;0.010735999792814255;0.9943000078201294;0.2420479953289032;-0.11711999773979187;1.085312008857727;-1.894374966621399;-1.8156250715255737;0.5600000023841858
917;0.0;0.0;0.0;0.230335995554924;-0.10931199789047241;1.1302080154418945;0.0;0.0;0.0
919;0.0;0.0;0.0;0.2420479953289032;-0.1210239976644516;1.1058080196380615;0.0;0.0;0.0
921;0.0;0.0;0.0;0.23423999547958374;-0.12492799758911133;1.10971200466156;0.0;0.0;0.0
923;0.11028799414634705;0.0004879999905824661;0.9891759753227234;0.21862399578094482;-0.14444799721240997;1.1145919561386108;-1.6843750476837158;-1.605625033378601;0.49000000953674316
926;0.0;0.0;0.0;0.23423999547958374;-0.11711999773979187;1.10971200466156;0.0;0.0;0.0
928;0.0;0.0;0.0;0.23814399540424347;-0.11711999773979187;1.1058080196380615;0.0;0.0;0.0
930;0.0;0.0;0.0;0.230335995554924;-0.1483519971370697;1.122399926185608;0.0;0.0;0.0
932;0.10491999983787537;-0.0007319999858736992;0.9906399846076965;0.2147199958562851;-0.14054399728775024;1.10971200466156;-1.0543749332427979;-1.5356249809265137;0.2800000011920929
934;0.0;0.0;0.0;0.23423999547958374;-0.1327359974384308;1.126304030418396;0.0;0.0;0.0
936;0.0;0.0;0.0;0.21862399578094482;-0.12883199751377106;1.10971200466156;0.0;0.0;0.0
938;0.0;0.0;0.0;0.2030079960823059;-0.10931199789047241;1.10971200466156;0.0;0.0;0.0
940;0.10784799605607986;0.005367999896407127;0.9911279678344727;0.23814399540424347;-0.12883199751377106;1.126304030418396;-0.8443750143051147;-1.4656250476837158;0.3499999940395355
943;0.0;0.0;0.0;0.23423999547958374;-0.11711999773979187;1.1184959411621094;0.0;0.0;0.0
945;0.0;0.0;0.0;0.23814399540424347;-0.14444799721240997;1.1184959411621094;0.0;0.0;0.0
947;0.0;0.0;0.0;0.22643199563026428;-0.13663999736309052;1.1184959411621094;0.0;0.0;0.0
949;0.11101999878883362;0.010735999792814255;0.9933239817619324;0.22643199563026428;-0.10540799796581268;1.0940959453582764;-1.0543749332427979;-1.955625057220459;1.2599999904632568
951;0.0;0.0;0.0;0.22643199563026428;-0.12492799758911133;1.1184959411621094;0.0;0.0;0.0
953;0.0;0.0;0.0;0.22643199563026428;-0.1327359974384308;1.0940959453582764;0.0;0.0;0.0
955;0.0;0.0;0.0;0.23423999547958374;-0.11711999773979187;1.122399926185608;0.0;0.0;0.0
957;0.1105320006608963;0.004147999919950962;0.9903959631919861;0.24985599517822266;-0.14444799721240997;1.0901919603347778;-0.984375;-2.2356250286102295;1.75
960;0.0;0.0;0.0;0.22252799570560455;-0.1210239976644516;1.0940959453582764;0.0;0.0;0.0
962;0.0;0.0;0.0;0.23814399540424347;-0.1327359974384308;1.0814080238342285;0.0;0.0;0.0
964;0.0;0.0;0.0;0.23814399540424347;-0.1327359974384308;1.101904034614563;0.0;0.0;0.0
966;0.1134599968791008;-0.0009759999811649323;0.9838079810142517;0.23423999547958374;-0.13663999736309052;1.0940959453582764;-0.28437501192092896;-2.7256250381469727;1.3300000429153442
968;0.0;0.0;0.0;0.2420479953289032;-0.1210239976644516;1.1184959411621094;0.0;0.0;0.0
970;0.0;0.0;0.0;0.24595199525356293;-0.12492799758911133;1.1058080196380615;0.0;0.0;0.0
972;0.0;0.0;0.0;0.19910399615764618;-0.12883199751377106;1.1145919561386108;0.0;0.0;0.0
974;0.12443999946117401;0.003659999929368496;0.9874680042266846;0.24595199525356293;-0.1327359974384308;1.1145919561386108;-0.07437500357627869;-3.4956250190734863;0.9800000190734863
977;0.0;0.0;0.0;0.2693759799003601;-0.1483519971370697;1.1145919561386108;0.0;0.0;0.0
979;0.0;0.0;0.0;0.24985599517822266;-0.11711999773979187;1.10971200466156;0.0;0.0;0.0
981;0.0;0.0;0.0;0.2810879945755005;-0.13663999736309052;1.10971200466156;0.0;0.0;0.0
983;0.13127200305461884;0.003903999924659729;0.9886879920959473;0.2420479953289032;-0.13663999736309052;1.1184959411621094;-0.28437501192092896;-2.8656251430511475;0.8400000333786011
985;0.0;0.0;0.0;0.23423999547958374;-0.14054399728775024;1.10971200466156;0.0;0.0;0.0
987;0.0;0.0;0.0;0.24985599517822266;-0.14444799721240997;1.10971200466156;0.0;0.0;0.0
989;0.0;0.0;0.0;0.20691199600696564;-0.14444799721240997;1.1058080196380615;0.0;0.0;0.0
991;0.11955999583005905;0.0;0.9794159531593323;0.24595199525356293;-0.15225599706172943;1.097999930381775;-0.3543750047683716;-2.585624933242798;0.8400000333786011
994;0.0;0.0;0.0;0.23814399540424347;-0.13663999736309052;1.0775039196014404;0.0;0.0;0.0
996;0.0;0.0;0.0;0.2537599802017212;-0.14444799721240997;1.0940959453582764;0.0;0.0;0.0
998;0.0;0.0;0.0;0.27718400955200195;-0.12883199751377106;1.1058080196380615;0.0;0.0;0.0
1000;0.12443999946117401;-0.0017079999670386314;0.977463960647583;0.26156800985336304;-0.12883199751377106;1.0901919603347778;-0.07437500357627869;-3.8456249237060547;1.0499999523162842
1002;0.0;0.0;0.0;0.26156800985336304;-0.1327359974384308;1.0901919603347778;0.0;0.0;0.0
1004;0.0;0.0;0.0;0.28889599442481995;-0.1483519971370697;1.0814080238342285;0.0;0.0;0.0
1006;0.0;0.0;0.0;0.23423999547958374;-0.12883199751377106;1.097999930381775;0.0;0.0;0.0
1009;0.13761599361896515;-0.014639999717473984;0.9698999524116516;0.26156800985336304;-0.12883199751377106;1.0940959453582764;-0.28437501192092896;-5.035624980926514;1.1200000047683716
1011;0.0;0.0;0.0;0.28889599442481995;-0.16787199676036835;1.101904034614563;0.0;0.0;0.0
1013;0.0;0.0;0.0;0.27327999472618103;-0.1483519971370697;1.097999930381775;0.0;0.0;0.0
1015;0.0;0.0;0.0;0.3123199939727783;-0.15615999698638916;1.0814080238342285;0.0;0.0;0.0
1017;0.16152799129486084;-0.019763998687267303;0.9723399877548218;0.3123199939727783;-0.1756799966096878;1.0696959495544434;-0.1443749964237213;-3.9856250286102295;0.49000000953674316
1019;0.0;0.0;0.0;0.28889599442481995;-0.18348799645900726;1.0657919645309448;0.0;0.0;0.0
1021;0.0;0.0;0.0;0.27327999472618103;-0.1756799966096878;1.085312008857727;0.0;0.0;0.0
1023;0.0;0.0;0.0;0.2693759799003601;-0.16396799683570862;1.1058080196380615;0.0;0.0;0.0
1026;0.14981599152088165;-0.03245199844241142;0.966484010219574;0.26156800985336304;-0.17958399653434753;1.101904034614563;-0.0043750000186264515;-3.565624952316284;0.7699999809265137
1028;0.0;0.0;0.0;0.284991979598999;-0.14054399728775024;1.0901919603347778;0.0;0.0;0.0
1030;0.0;0.0;0.0;0.34355199337005615;-0.15615999698638916;1.0814080238342285;0.0;0.0;0.0
1032;0.0;0.0;0.0;0.3240320086479187;-0.1483519971370697;1.1058080196380615;0.0;0.0;0.0
1034;0.1890999972820282;-0.024399999529123306;0.9723399877548218;0.3513599932193756;-0.17177599668502808;1.0940959453582764;-0.7743749618530273;-4.755625247955322;0.9800000190734863
1036;0.0;0.0;0.0;0.350383996963501;-0.15615999698638916;1.1184959411621094;0.0;0.0;0.0
1038;0.0;0.0;0.0;0.3357439935207367;-0.19129599630832672;1.0814080238342285;0.0;0.0;0.0
1040;0.0;0.0;0.0;0.3513599932193756;-0.2030079960823059;1.097999930381775;0.0;0.0;0.0
1043;0.22033199667930603;-0.03903999924659729;0.9740479588508606;0.34647998213768005;-0.19519999623298645;1.0814080238342285;-1.4043749570846558;-4.685625076293945;3.1500000953674316
1045;0.0;0.0;0.0;0.35526400804519653;-0.19519999623298645;1.0696959495544434;0.0;0.0;0.0
1047;0.0;0.0;0.0;0.3513599932193756;-0.21081599593162537;1.0775039196014404;0.0;0.0;0.0
1049;0.0;0.0;0.0;0.3659999966621399;-0.21081599593162537;1.0814080238342285;0.0;0.0;0.0
1051;0.240339994430542;-0.07490799576044083;0.9620919823646545;0.3659999966621399;-0.24595199525356293;1.0901919603347778;-1.334375023841858;-4.055624961853027;3.9200000762939453
1053;0.0;0.0;0.0;0.3972319960594177;-0.22643199563026428;1.101904034614563;0.0;0.0;0.0
1055;0.0;0.0;0.0;0.4050399959087372;-0.2420479953289032;1.0940959453582764;0.0;0.0;0.0
1057;0.0;0.0;0.0;0.4050399959087372;-0.230335995554924;1.10971200466156;0.0;0.0;0.0
1060;0.2757200002670288;-0.09320800006389618;0.9720959663391113;0.3972319960594177;-0.23423999547958374;1.0775039196014404;-0.7043749690055847;-3.4956250190734863;2.5199999809265137
1062;0.0;0.0;0.0;0.4089439809322357;-0.24985599517822266;1.10971200466156;0.0;0.0;0.0
1064;0.0;0.0;0.0;0.45188799500465393;-0.2693759799003601;1.0814080238342285;0.0;0.0;0.0
1066;0.0;0.0;0.0;0.45579198002815247;-0.230335995554924;1.1184959411621094;0.0;0.0;0.0
1068;0.30060797929763794;-0.11272799968719482;0.9740479588508606;0.436271995306015;-0.27718400955200195;1.101904034614563;-0.984375;-3.775624990463257;0.07000000029802322
1070;0.0;0.0;0.0;0.45579198002815247;-0.24985599517822266;1.101904034614563;0.0;0.0;0.0
1072;0.0;0.0;0.0;0.4167519807815552;-0.24595199525356293;1.10971200466156;0.0;0.0;0.0
1074;0.0;0.0;0.0;0.46750399470329285;-0.2537599802017212;1.101904034614563;0.0;0.0;0.0
1077;0.3264719843864441;-0.12053599953651428;0.9891759753227234;0.46750399470329285;-0.24595199525356293;1.122399926185608;-1.6843750476837158;-2.7956249713897705;-2.799999952316284
1079;0.0;0.0;0.0;0.4596959948539734;-0.2693759799003601;1.1184959411621094;0.0;0.0;0.0
1081;0.0;0.0;0.0;0.48311999440193176;-0.2693759799003601;1.126304030418396;0.0;0.0;0.0
1083;0.0;0.0;0.0;0.48311999440193176;-0.28889599442481995;1.1184959411621094;0.0;0.0;0.0
1085;0.3472119867801666;-0.12712399661540985;0.9982039928436279;0.4714079797267914;-0.27327999472618103;1.1184959411621094;-2.5243749618530273;-2.0956249237060547;-4.760000228881836
1087;0.0;0.0;0.0;0.5026400089263916;-0.284991979598999;1.126304030418396;0.0;0.0;0.0
1089;0.0;0.0;0.0;0.5065439939498901;-0.2654719948768616;1.1302080154418945;0.0;0.0;0.0
1091;0.0;0.0;0.0;0.5065439939498901;-0.2810879945755005;1.150704026222229;0.0;0.0;0.0
1094;0.37795600295066833;-0.1420079916715622;1.0072319507598877;0.522159993648529;-0.2654719948768616;1.134112000465393;-2.874375104904175;-3.635625123977661;-5.599999904632568
1096;0.0;0.0;0.0;0.5416799783706665;-0.2967039942741394;1.1380159854888916;0.0;0.0;0.0
1098;0.0;0.0;0.0;0.5065439939498901;-0.2810879945755005;1.150704026222229;0.0;0.0;0.0
1100;0.0;0.0;0.0;0.545583963394165;-0.28889599442481995;1.1624159812927246;0.0;0.0;0.0
1102;0.4060159921646118;-0.15347599983215332;1.0228480100631714;0.5416799783706665;-0.29280000925064087;1.1672959327697754;-2.9443750381469727;-4.755625247955322;-7.210000038146973
1104;0.0;0.0;0.0;0.5260639786720276;-0.30060797929763794;1.1546080112457275;0.0;0.0;0.0
1106;0.0;0.0;0.0;0.545583963394165;-0.30451199412345886;1.1712000370025635;0.0;0.0;0.0
1108;0.0;0.0;0.0;0.5299679636955261;-0.28889599442481995;1.182911992073059;0.0;0.0;0.0
1111;0.4008919894695282;-0.1576239913702011;1.0391960144042969;0.5065439939498901;-0.2810879945755005;1.1712000370025635;-2.804374933242798;-3.9856250286102295;-10.850000381469727
1113;0.0;0.0;0.0;0.5182560086250305;-0.284991979598999;1.182911992073059;0.0;0.0;0.0
1115;0.0;0.0;0.0;0.5143519639968872;-0.2810879945755005;1.175104022026062;0.0;0.0;0.0
1117;0.0;0.0;0.0;0.5026400089263916;-0.27718400955200195;1.1956000328063965;0.0;0.0;0.0
1119;0.3845439851284027;-0.14591199159622192;1.065303921699524;0.49483197927474976;-0.284991979598999;1.1956000328063965;-2.5243749618530273;-3.4956250190734863;-15.539999961853027
1121;0.0;0.0;0.0;0.4870239794254303;-0.284991979598999;1.2200000286102295;0.0;0.0;0.0
1123;0.0;0.0;0.0;0.4635999798774719;-0.2693759799003601;1.1916959285736084;0.0;0.0;0.0
1125;0.0;0.0;0.0;0.4440799951553345;-0.28889599442481995;1.2112159729003906;0.0;0.0;0.0
1128;0.342087984085083;-0.13395600020885468;1.0821399688720703;0.45188799500465393;-0.2654719948768616;1.207311987876892;-2.4543750286102295;-3.8456249237060547;-19.809999465942383
1130;0.0;0.0;0.0;0.4206559956073761;-0.2693759799003601;1.2278079986572266;0.0;0.0;0.0
1132;0.0;0.0;0.0;0.41284799575805664;-0.22252799570560455;1.2200000286102295;0.0;0.0;0.0
1134;0.0;0.0;0.0;0.38942399621009827;-0.24595199525356293;1.223904013633728;0.0;0.0;0.0
1136;0.28669998049736023;-0.11394799500703812;1.101415991783142;0.3933279812335968;-0.20691199600696564;1.2278079986572266;-2.664375066757202;-5.105625152587891;-23.799999237060547
1138;0.0;0.0;0.0;0.3699039816856384;-0.23814399540424347;1.2395199537277222;0.0;0.0;0.0
1140;0.0;0.0;0.0;0.37380799651145935;-0.230335995554924;1.231711983680725;0.0;0.0;0.0
1142;0.0;0.0;0.0;0.3474559783935547;-0.23423999547958374;1.2395199537277222;0.0;0.0;0.0
1145;0.23423999547958374;-0.08466799557209015;1.118251919746399;0.31622397899627686;-0.19519999623298645;1.2395199537277222;-3.1543750762939453;-6.995625019073486;-26.809999465942383
1147;0.0;0.0;0.0;0.3084160089492798;-0.187391996383667;1.2600159645080566;0.0;0.0;0.0
1149;0.0;0.0;0.0;0.2967039942741394;-0.19129599630832672;1.231711983680725;0.0;0.0;0.0
1151;0.0;0.0;0.0;0.31622397899627686;-0.18348799645900726;1.2395199537277222;0.0;0.0;0.0
1153;0.19227199256420135;-0.05319199711084366;1.122156023979187;0.30451199412345886;-0.19129599630832672;1.231711983680725;-3.0143749713897705;-10.7056245803833;-27.440000534057617
1155;0.0;0.0;0.0;0.3084160089492798;-0.17177599668502808;1.231711983680725;0.0;0.0;0.0
1157;0.0;0.0;0.0;0.2967039942741394;-0.17958399653434753;1.223904013633728;0.0;0.0;0.0
1159;0.0;0.0;0.0;0.28889599442481995;-0.15225599706172943;1.2278079986572266;0.0;0.0;0.0
1162;0.16787199676036835;-0.035868000239133835;1.1128839254379272;0.28889599442481995;-0.16787199676036835;1.2395199537277222;-1.4743750095367432;-16.165624618530273;-26.110000610351562
1164;0.0;0.0;0.0;0.28889599442481995;-0.1483519971370697;1.2395199537277222;0.0;0.0;0.0
1166;0.0;0.0;0.0;0.2967039942741394;-0.15615999698638916;1.2278079986572266;0.0;0.0;0.0
1168;0.0;0.0;0.0;0.3240320086479187;-0.12883199751377106;1.2200000286102295;0.0;0.0;0.0
1170;0.1798280030488968;-0.01756799966096878;1.103611946105957;0.3201279938220978;-0.1210239976644516;1.2034080028533936;1.115625023841858;-17.985624313354492;-25.829999923706055
1172;0.0;0.0;0.0;0.30060797929763794;-0.11711999773979187;1.182911992073059;0.0;0.0;0.0
1174;0.0;0.0;0.0;0.3123199939727783;-0.1210239976644516;1.2112159729003906;0.0;0.0;0.0
1176;0.0;0.0;0.0;0.2810879945755005;-0.1327359974384308;1.1868159770965576;0.0;0.0;0.0
1179;0.17445999383926392;0.01268799975514412;1.0762839317321777;0.2693759799003601;-0.10540799796581268;1.1790080070495605;4.895625114440918;-17.1456241607666;-24.989999771118164
1181;0.0;0.0;0.0;0.284991979598999;-0.08198399841785431;1.199504017829895;0.0;0.0;0.0
1183;0.0;0.0;0.0;0.26156800985336304;-0.10150399804115295;1.199504017829895;0.0;0.0;0.0
1185;0.0;0.0;0.0;0.24595199525356293;-0.08198399841785431;1.175104022026062;0.0;0.0;0.0
1187;0.1256600022315979;0.0424560010433197;1.0648159980773926;0.22252799570560455;-0.08979199826717377;1.1790080070495605;7.625625133514404;-16.515625;-24.71000099182129
1189;0.0;0.0;0.0;0.22643199563026428;-0.04294399917125702;1.1868159770965576;0.0;0.0;0.0
1191;0.0;0.0;0.0;0.19129599630832672;-0.062463998794555664;1.1672959327697754;0.0;0.0;0.0
1193;0.0;0.0;0.0;0.1756799966096878;-0.04684799909591675;1.1790080070495605;0.0;0.0;0.0
1196;0.07417599856853485;0.08442399650812149;1.0599359273910522;0.16396799683570862;-0.031231999397277832;1.1672959327697754;7.765625;-15.325624465942383;-24.850000381469727
1198;0.0;0.0;0.0;0.15225599706172943;0.0;1.1790080070495605;0.0;0.0;0.0
1200;0.0;0.0;0.0;0.12492799758911133;-0.019519999623298645;1.199504017829895;0.0;0.0;0.0
1202;0.0;0.0;0.0;0.11711999773979187;0.0;1.1790080070495605;0.0;0.0;0.0
1204;0.007319999858736992;0.12541599571704865;1.060912013053894;0.10247999429702759;0.011711999773979187;1.175104022026062;5.665625095367432;-16.515625;-23.729999542236328
1206;0.0;0.0;0.0;0.10247999429702759;0.007807999849319458;1.1672959327697754;0.0;0.0;0.0
1208;0.0;0.0;0.0;0.06734399497509003;0.003903999924659729;1.1790080070495605;0.0;0.0;0.0
1211;0.0;0.0;0.0;0.032207999378442764;0.0;1.175104022026062;0.0;0.0;0.0
1213;-0.05392399802803993;0.14444799721240997;1.0587159395217896;0.08295999467372894;0.019519999623298645;1.175104022026062;3.8456249237060547;-22.255624771118164;-21.06999969482422
1215;0.0;0.0;0.0;0.06734399497509003;0.031231999397277832;1.1712000370025635;0.0;0.0;0.0
1217;0.0;0.0;0.0;0.05953599885106087;0.019519999623298645;1.182911992073059;0.0;0.0;0.0
1219;0.0;0.0;0.0;0.06734399497509003;0.054655998945236206;1.1712000370025635;0.0;0.0;0.0
1221;-0.06954000145196915;0.16421200335025787;1.0577399730682373;0.05563199892640114;0.054655998945236206;1.1790080070495605;4.125625133514404;-26.035625457763672;-18.549999237060547
1223;0.0;0.0;0.0;0.03611199930310249;0.023423999547958374;1.1712000370025635;0.0;0.0;0.0
1225;0.0;0.0;0.0;0.00878399983048439;0.011711999773979187;1.1790080070495605;0.0;0.0;0.0
1227;0.0;0.0;0.0;0.020495999604463577;0.04294399917125702;1.1672959327697754;0.0;0.0;0.0
1230;-0.10028399527072906;0.16372399032115936;1.0604239702224731;0.020495999604463577;0.058559998869895935;1.1546080112457275;6.085625171661377;-27.365625381469727;-16.030000686645508
1232;0.0;0.0;0.0;0.0009759999811649323;0.019519999623298645;1.1546080112457275;0.0;0.0;0.0
1234;0.0;0.0;0.0;-0.03806399926543236;0.023423999547958374;1.1546080112457275;0.0;0.0;0.0
1236;0.0;0.0;0.0;-0.04196799919009209;0.003903999924659729;1.1672959327697754;0.0;0.0;0.0
1238;-0.14615599811077118;0.16445599496364594;1.0362679958343506;-0.03806399926543236;0.019519999623298645;1.146799921989441;7.625625133514404;-27.92562484741211;-14.350000381469727
1240;0.0;0.0;0.0;-0.06539200246334076;0.03903999924659729;1.182911992073059;0.0;0.0;0.0
1242;0.0;0.0;0.0;-0.0849120020866394;0.03513599932193756;1.1907199621200562;0.0;0.0;0.0
1245;0.0;0.0;0.0;-0.10833600163459778;0.062463998794555664;1.1672959327697754;0.0;0.0;0.0
1247;-0.205935999751091;0.17714399099349976;1.0399279594421387;-0.13566400110721588;0.058559998869895935;1.146799921989441;7.555624961853027;-28.55562400817871;-14.210000038146973
1249;0.0;0.0;0.0;-0.1395680010318756;0.023423999547958374;1.150704026222229;0.0;0.0;0.0
1251;0.0;0.0;0.0;-0.11614400148391724;0.04684799909591675;1.146799921989441;0.0;0.0;0.0
1253;0.0;0.0;0.0;-0.16201600432395935;0.03513599932193756;1.1145919561386108;0.0;0.0;0.0
1255;-0.27547600865364075;0.1739719957113266;1.0113799571990967;-0.1542080044746399;0.058559998869895935;1.085312008857727;6.085625171661377;-31.42562484741211;-13.440000534057617
1257;0.0;0.0;0.0;-0.1698240041732788;0.03513599932193756;1.085312008857727;0.0;0.0;0.0
1259;0.0;0.0;0.0;-0.19715198874473572;0.0663679987192154;1.122399926185608;0.0;0.0;0.0
1262;0.0;0.0;0.0;-0.1698240041732788;0.04684799909591675;1.0940959453582764;0.0;0.0;0.0
1264;-0.3030479848384857;0.18007199466228485;0.9767319560050964;-0.18934398889541626;0.05075199902057648;1.0814080238342285;5.735625267028809;-30.865625381469727;-11.899999618530273
1266;0.0;0.0;0.0;-0.1815359890460968;0.04294399917125702;1.0901919603347778;0.0;0.0;0.0
1268;0.0;0.0;0.0;-0.20495998859405518;0.03513599932193756;1.0940959453582764;0.0;0.0;0.0
1270;0.0;0.0;0.0;-0.2205759882926941;0.04294399917125702;1.060912013053894;0.0;0.0;0.0
1272;-0.33427998423576355;0.19324800372123718;0.9567239880561829;-0.20495998859405518;0.062463998794555664;1.0531039237976074;5.665625095367432;-29.46562385559082;-7.980000019073486
1274;0.0;0.0;0.0;-0.21667200326919556;0.07417599856853485;1.0413919687271118;0.0;0.0;0.0
1276;0.0;0.0;0.0;-0.21667200326919556;0.07027199864387512;1.0452959537506104;0.0;0.0;0.0
1279;0.0;0.0;0.0;-0.24399998784065247;0.07417599856853485;1.0696959495544434;0.0;0.0;0.0
1281;-0.3652679920196533;0.205935999751091;0.9189040064811707;-0.2752319872379303;0.08588799834251404;1.0130879878997803;4.755625247955322;-30.44562530517578;-3.430000066757202
1283;0.0;0.0;0.0;-0.2479040026664734;0.08198399841785431;1.0043039321899414;0.0;0.0;0.0
1285;0.0;0.0;0.0;-0.2205759882926941;0.08588799834251404;1.0082080364227295;0.0;0.0;0.0
1287;0.0;0.0;0.0;-0.2088640034198761;0.08979199826717377;1.0082080364227295;0.0;0.0;0.0
1289;-0.35404399037361145;0.21423199772834778;0.900115966796875;-0.21276798844337463;0.0663679987192154;1.0082080364227295;1.6756250858306885;-31.705625534057617;0.14000000059604645
1291;0.0;0.0;0.0;-0.18934398889541626;0.08588799834251404;1.0043039321899414;0.0;0.0;0.0
1293;0.0;0.0;0.0;-0.2088640034198761;0.10540799796581268;1.0082080364227295;0.0;0.0;0.0
1296;0.0;0.0;0.0;-0.16201600432395935;0.0936959981918335;0.9964959621429443;0.0;0.0;0.0
1298;-0.30621999502182007;0.21740399301052094;0.8827919960021973;-0.1395680010318756;0.07027199864387512;0.9594079852104187;-3.6443750858306885;-28.905624389648438;4.829999923706055
1300;0.0;0.0;0.0;-0.12004800140857697;0.08198399841785431;0.9799039959907532;0.0;0.0;0.0
1302;0.0;0.0;0.0;-0.11614400148391724;0.0663679987192154;0.9594079852104187;0.0;0.0;0.0
1304;0.0;0.0;0.0;-0.09662400186061859;0.05075199902057648;0.9555040001869202;0.0;0.0;0.0
1306;-0.2479040026664734;0.20203199982643127;0.839847981929779;-0.11614400148391724;0.062463998794555664;0.9232959747314453;-7.424375057220459;-22.185625076293945;10.779999732971191
1308;0.0;0.0;0.0;-0.11614400148391724;0.04684799909591675;0.9476959705352783;0.0;0.0;0.0
1310;0.0;0.0;0.0;-0.1239520013332367;0.011711999773979187;0.9311040043830872;0.0;0.0;0.0
1313;0.0;0.0;0.0;-0.11224000155925751;0.003903999924659729;0.9311040043830872;0.0;0.0;0.0
1315;-0.23960798978805542;0.15811198949813843;0.8122760057449341;-0.07320000231266022;-0.003903999924659729;0.9437919855117798;-7.634375095367432;-14.975625038146973;15.470000267028809
1317;0.0;0.0;0.0;-0.0849120020866394;-0.003903999924659729;0.9437919855117798;0.0;0.0;0.0
1319;0.0;0.0;0.0;-0.0849120020866394;0.003903999924659729;0.9311040043830872;0.0;0.0;0.0
1321;0.0;0.0;0.0;-0.08100800216197968;-0.007807999849319458;0.9350079894065857;0.0;0.0;0.0
1323;-0.21252399682998657;0.12492799758911133;0.8103240132331848;-0.10052800178527832;-0.027327999472618103;0.9311040043830872;-6.304375171661377;-7.905624866485596;17.149999618530273
1325;0.0;0.0;0.0;-0.06148799881339073;-0.04294399917125702;0.9027999639511108;0.0;0.0;0.0
1327;0.0;0.0;0.0;-0.03415999934077263;-0.011711999773979187;0.9389119744300842;0.0;0.0;0.0
1330;0.0;0.0;0.0;-0.03415999934077263;-0.003903999924659729;0.9437919855117798;0.0;0.0;0.0
1332;-0.1722639948129654;0.11711999773979187;0.8176440000534058;-0.03415999934077263;0.003903999924659729;0.9476959705352783;-5.394374847412109;-0.8356250524520874;18.1299991607666
1334;0.0;0.0;0.0;-0.010735999792814255;0.003903999924659729;0.9437919855117798;0.0;0.0;0.0
1336;0.0;0.0;0.0;-0.014639999717473984;-0.007807999849319458;0.9681919813156128;0.0;0.0;0.0
1338;0.0;0.0;0.0;0.01268799975514412;0.003903999924659729;0.9437919855117798;0.0;0.0;0.0
1340;-0.1373720020055771;0.12492799758911133;0.8303319811820984;-0.006831999868154526;-0.007807999849319458;0.9594079852104187;-6.234375;6.584374904632568;19.809999465942383
1342;0.0;0.0;0.0;-0.0029279999434947968;-0.03903999924659729;0.9720959663391113;0.0;0.0;0.0
1344;0.0;0.0;0.0;-0.010735999792814255;-0.04684799909591675;0.9642879962921143;0.0;0.0;0.0
1347;0.0;0.0;0.0;-0.014639999717473984;-0.03513599932193756;0.9799039959907532;0.0;0.0;0.0
1349;-0.13102799654006958;0.09955199807882309;0.8486319780349731;-0.049775999039411545;-0.019519999623298645;0.9886879920959473;-7.424375057220459;11.694375038146973;21.420000076293945
1351;0.0;0.0;0.0;-0.014639999717473984;-0.027327999472618103;1.0082080364227295;0.0;0.0;0.0
1353;0.0;0.0;0.0;0.01659199967980385;-0.058559998869895935;1.0130879878997803;0.0;0.0;0.0
1355;0.0;0.0;0.0;0.004879999905824661;-0.03513599932193756;1.0247999429702759;0.0;0.0;0.0
1357;-0.12053599953651428;0.09101200103759766;0.8923079967498779;0.00878399983048439;-0.062463998794555664;1.0247999429702759;-9.104375839233398;15.264375686645508;21.979999542236328
1359;0.0;0.0;0.0;0.03611199930310249;-0.062463998794555664;0.9925919771194458;0.0;0.0;0.0
1361;0.0;0.0;0.0;0.01659199967980385;-0.054655998945236206;1.0043039321899414;0.0;0.0;0.0
1364;0.0;0.0;0.0;0.032207999378442764;-0.0936959981918335;1.0082080364227295;0.0;0.0;0.0
1366;-0.10052800178527832;0.059779997915029526;0.8862079977989197;0.04782399907708168;-0.07417599856853485;0.9925919771194458;-10.2943754196167;16.244375228881836;22.190000534057617
1368;0.0;0.0;0.0;0.07124799489974976;-0.10540799796581268;0.9964959621429443;0.0;0.0;0.0
1370;0.0;0.0;0.0;0.04391999915242195;-0.09759999811649323;0.9964959621429443;0.0;0.0;0.0
1372;0.0;0.0;0.0;0.06734399497509003;-0.09759999811649323;0.9759999513626099;0.0;0.0;0.0
1374;-0.05782799795269966;0.04562800005078316;0.8691279888153076;0.08686399459838867;-0.062463998794555664;0.9886879920959473;-10.22437572479248;16.80437469482422;21.420000076293945
1376;0.0;0.0;0.0;0.10150399804115295;-0.10540799796581268;0.9838079810142517;0.0;0.0;0.0
1378;0.0;0.0;0.0;0.11711999773979187;-0.08588799834251404;0.9642879962921143;0.0;0.0;0.0
1381;0.0;0.0;0.0;0.10247999429702759;-0.11711999773979187;0.9838079810142517;0.0;0.0;0.0
1383;-0.023180000483989716;0.037087999284267426;0.8605879545211792;0.12492799758911133;-0.12492799758911133;0.9555040001869202;-10.924375534057617;18.834375381469727;20.15999984741211
1385;0.0;0.0;0.0;0.12492799758911133;-0.11711999773979187;0.9555040001869202;0.0;0.0;0.0
1387;0.0;0.0;0.0;0.16787199676036835;-0.10931199789047241;0.9759999513626099;0.0;0.0;0.0
1389;0.0;0.0;0.0;0.1600639969110489;-0.1210239976644516;0.9681919813156128;0.0;0.0;0.0
1391;0.013663999736309052;0.03001200035214424;0.8552199602127075;0.14444799721240997;-0.0936959981918335;1.0003999471664429;-13.72437572479248;22.96437644958496;19.389999389648438
1394;0.0;0.0;0.0;0.13663999736309052;-0.09759999811649323;0.9886879920959473;0.0;0.0;0.0
1395;0.0;0.0;0.0;0.14054399728775024;-0.10150399804115295;1.0043039321899414;0.0;0.0;0.0
1398;0.0;0.0;0.0;0.1483519971370697;-0.09759999811649323;1.0169919729232788;0.0;0.0;0.0
1400;0.03855200111865997;0.027084000408649445;0.8847439885139465;0.17177599668502808;-0.11321599781513214;1.0287039279937744;-17.994375228881836;27.094375610351562;19.950000762939453
1402;0.0;0.0;0.0;0.16396799683570862;-0.14054399728775024;1.0247999429702759;0.0;0.0;0.0
1404;0.0;0.0;0.0;0.1756799966096878;-0.13663999736309052;1.060912013053894;0.0;0.0;0.0
1406;0.0;0.0;0.0;0.17177599668502808;-0.12883199751377106;1.073599934577942;0.0;0.0;0.0
1408;0.053679998964071274;0.010735999792814255;0.9262239933013916;0.187391996383667;-0.12492799758911133;1.0775039196014404;-22.474374771118164;29.614376068115234;21.06999969482422
1411;0.0;0.0;0.0;0.21862399578094482;-0.11711999773979187;1.0940959453582764;0.0;0.0;0.0
1413;0.0;0.0;0.0;0.230335995554924;-0.15225599706172943;1.0814080238342285;0.0;0.0;0.0
1415;0.0;0.0;0.0;0.22252799570560455;-0.1600639969110489;1.0940959453582764;0.0;0.0;0.0
1417;0.09223199635744095;-0.023180000483989716;0.9620919823646545;0.22643199563026428;-0.19129599630832672;1.1058080196380615;-25.974374771118164;29.96437644958496;20.649999618530273
1419;0.0;0.0;0.0;0.22643199563026428;-0.19519999623298645;1.10971200466156;0.0;0.0;0.0
1421;0.0;0.0;0.0;0.230335995554924;-0.230335995554924;1.085312008857727;0.0;0.0;0.0
1423;0.0;0.0;0.0;0.2537599802017212;-0.2420479953289032;1.0862879753112793;0.0;0.0;0.0
1425;0.12004800140857697;-0.08442399650812149;0.9740479588508606;0.27718400955200195;-0.27718400955200195;1.1136159896850586;-26.044376373291016;29.544376373291016;17.989999771118164
1427;0.0;0.0;0.0;0.2810879945755005;-0.2693759799003601;1.0940959453582764;0.0;0.0;0.0
1430;0.0;0.0;0.0;0.2537599802017212;-0.2576639950275421;1.097999930381775;0.0;0.0;0.0
1432;0.0;0.0;0.0;0.29280000925064087;-0.27327999472618103;1.0901919603347778;0.0;0.0;0.0
1434;0.152988001704216;-0.1285879909992218;0.9796599745750427;0.27327999472618103;-0.2576639950275421;1.1136159896850586;-22.404375076293945;30.454376220703125;13.230000495910645
1436;0.0;0.0;0.0;0.26156800985336304;-0.26156800985336304;1.0940959453582764;0.0;0.0;0.0
1438;0.0;0.0;0.0;0.2967039942741394;-0.2654719948768616;1.0940959453582764;0.0;0.0;0.0
1440;0.0;0.0;0.0;0.29280000925064087;-0.2654719948768616;1.0775039196014404;0.0;0.0;0.0
1442;0.17080000042915344;-0.12956400215625763;0.9706319570541382;0.31622397899627686;-0.2576639950275421;1.0814080238342285;-17.434375762939453;32.83437728881836;7.630000114440918
1445;0.0;0.0;0.0;0.32793599367141724;-0.26156800985336304;1.0814080238342285;0.0;0.0;0.0
1447;0.0;0.0;0.0;0.3396480083465576;-0.23814399540424347;1.0696959495544434;0.0;0.0;0.0
1449;0.0;0.0;0.0;0.3396480083465576;-0.22252799570560455;1.0413919687271118;0.0;0.0;0.0
1451;0.20959599316120148;-0.10467600077390671;0.944767951965332;0.3816159963607788;-0.19129599630832672;1.0618879795074463;-13.024375915527344;33.53437423706055;3.0799999237060547
1453;0.0;0.0;0.0;0.34355199337005615;-0.1756799966096878;1.0531039237976074;0.0;0.0;0.0
1455;0.0;0.0;0.0;0.3513599932193756;-0.187391996383667;1.0696959495544434;0.0;0.0;0.0
1457;0.0;0.0;0.0;0.3357439935207367;-0.14444799721240997;1.0491999387741089;0.0;0.0;0.0
1459;0.21740399301052094;-0.020495999604463577;0.9367159605026245;0.30451199412345886;-0.023423999547958374;1.0326080322265625;-11.484375953674316;31.8543758392334;-1.8200000524520874
1462;0.0;0.0;0.0;0.35526400804519653;-0.027327999472618103;1.0374879837036133;0.0;0.0;0.0
1464;0.0;0.0;0.0;0.41284799575805664;-0.0663679987192154;1.0452959537506104;0.0;0.0;0.0
1466;0.0;0.0;0.0;0.44017598032951355;-0.04294399917125702;1.0570080280303955;0.0;0.0;0.0
1468;0.27596399188041687;0.09149999916553497;0.9345200061798096;0.38942399621009827;-0.03513599932193756;1.0814080238342285;-15.5443754196167;27.794376373291016;-12.8100004196167
1470;0.0;0.0;0.0;0.4089439809322357;-0.0663679987192154;1.073599934577942;0.0;0.0;0.0
1472;0.0;0.0;0.0;0.4596959948539734;-0.07807999849319458;1.060912013053894;0.0;0.0;0.0
1474;0.0;0.0;0.0;0.4714079797267914;-0.12492799758911133;1.0657919645309448;0.0;0.0;0.0
1476;0.3172000050544739;0.05416800081729889;0.9484279751777649;0.4596959948539734;-0.1483519971370697;1.0814080238342285;-27.934375762939453;18.41437530517578;-20.790000915527344
1478;0.0;0.0;0.0;0.5143519639968872;-0.1600639969110489;1.0901919603347778;0.0;0.0;0.0
1481;0.0;0.0;0.0;0.522159993648529;-0.16396799683570862;1.073599934577942;0.0;0.0;0.0
1483;0.0;0.0;0.0;0.5026400089263916;-0.15615999698638916;1.0814080238342285;0.0;0.0;0.0
1485;0.38137200474739075;-0.01512799970805645;0.9555040001869202;0.4909279942512512;-0.17958399653434753;1.0531039237976074;-43.05437469482422;7.074375152587891;-24.850000381469727
1487;0.0;0.0;0.0;0.45579198002815247;-0.1756799966096878;1.0287039279937744;0.0;0.0;0.0
1489;0.0;0.0;0.0;0.5104479789733887;-0.1600639969110489;1.0247999429702759;0.0;0.0;0.0
1491;0.0;0.0;0.0;0.4596959948539734;-0.187391996383667;1.0169919729232788;0.0;0.0;0.0
1493;0.3472119867801666;-0.030499998480081558;0.9132919907569885;0.49483197927474976;-0.17958399653434753;1.0130879878997803;-55.444374084472656;-8.67562484741211;-31.149999618530273
1496;0.0;0.0;0.0;0.6178079843521118;-0.187391996383667;1.066767930984497;0.0;0.0;0.0
1498;0.0;0.0;0.0;0.5953599810600281;-0.19519999623298645;1.0784800052642822;0.0;0.0;0.0
1500;0.0;0.0;0.0;0.6373279690742493;-0.16787199676036835;1.0745760202407837;0.0;0.0;0.0
1502;0.4416399896144867;-0.0453839972615242;0.9357399940490723;0.34647998213768005;-0.14054399728775024;1.0140639543533325;-64.61437225341797;-23.795623779296875;-38.709999084472656
1504;0.0;0.0;0.0;0.7271199822425842;-0.12883199751377106;0.9691680073738098;0.0;0.0;0.0
1506;0.0;0.0;0.0;0.6646559834480286;-0.12492799758911133;0.9769759774208069;0.0;0.0;0.0
1508;0.0;0.0;0.0;0.5485119819641113;-0.1483519971370697;0.9281759858131409;0.0;0.0;0.0
1510;0.4992239773273468;0.0007319999858736992;0.8427760004997253;0.6724640130996704;-0.13663999736309052;0.9486719965934753;-65.03437042236328;-29.60562515258789;-49.13999938964844
1513;0.0;0.0;0.0;0.7710399627685547;-0.17177599668502808;0.9759999513626099;0.0;0.0;0.0
1515;0.0;0.0;0.0;0.8530240058898926;-0.24985599517822266;1.0169919729232788;0.0;0.0;0.0
1517;0.0;0.0;0.0;0.9340319633483887;-0.23423999547958374;1.0570080280303955;0.0;0.0;0.0
1519;0.725167989730835;-0.08198399841785431;0.9015799760818481;0.9418399930000305;-0.24985599517822266;1.0531039237976074;-59.364376068115234;-32.055625915527344;-48.58000183105469
1521;0.0;0.0;0.0;0.8910880088806152;-0.23814399540424347;1.0169919729232788;0.0;0.0;0.0
1523;0.0;0.0;0.0;0.8832799792289734;-0.24595199525356293;0.9271999597549438;0.0;0.0;0.0
1525;0.0;0.0;0.0;1.1331360340118408;-0.24595199525356293;0.9799039959907532;0.0;0.0;0.0
1527;0.8454599976539612;-0.11467999964952469;0.8722999691963196;1.019919991493225;-0.2537599802017212;0.9964959621429443;-54.114376068115234;-18.615625381469727;-37.72999954223633
1530;0.0;0.0;0.0;1.097999930381775;-0.3084160089492798;0.9681919813156128;0.0;0.0;0.0
1532;0.0;0.0;0.0;1.0784800052642822;-0.30451199412345886;0.9925919771194458;0.0;0.0;0.0
1534;0.0;0.0;0.0;1.0901919603347778;-0.33183997869491577;0.9350079894065857;0.0;0.0;0.0
1536;0.9659959673881531;-0.1617719978094101;0.8435080051422119;1.1331360340118408;-0.3357439935207367;0.9271999597549438;-42.91437530517578;-1.605625033378601;-23.100000381469727
1538;0.0;0.0;0.0;1.097999930381775;-0.3357439935207367;0.9389119744300842;0.0;0.0;0.0
1540;0.0;0.0;0.0;1.1136159896850586;-0.3357439935207367;0.9311040043830872;0.0;0.0;0.0
1542;0.0;0.0;0.0;1.1292319297790527;-0.31622397899627686;0.9232959747314453;0.0;0.0;0.0
1544;0.9779520034790039;-0.18934398889541626;0.8076399564743042;1.097999930381775;-0.27718400955200195;0.9555040001869202;-27.16437530517578;11.13437557220459;-6.440000057220459
1547;0.0;0.0;0.0;1.0940959453582764;-0.29280000925064087;0.9350079894065857;0.0;0.0;0.0
1549;0.0;0.0;0.0;1.10971200466156;-0.30451199412345886;0.9838079810142517;0.0;0.0;0.0
1551;0.0;0.0;0.0;1.0862879753112793;-0.2654719948768616;0.9838079810142517;0.0;0.0;0.0
1553;0.9747799634933472;-0.14347200095653534;0.8491199612617493;1.1136159896850586;-0.2693759799003601;1.0326080322265625;-8.47437572479248;21.28437614440918;5.809999942779541
1555;0.0;0.0;0.0;1.0901919603347778;-0.23814399540424347;1.0208959579467773;0.0;0.0;0.0
1557;0.0;0.0;0.0;1.0862879753112793;-0.2693759799003601;1.0208959579467773;0.0;0.0;0.0
1559;0.0;0.0;0.0;1.0823839902877808;-0.2420479953289032;1.0043039321899414;0.0;0.0;0.0
1561;0.957211971282959;-0.12029200047254562;0.8962119817733765;1.0433440208435059;-0.230335995554924;1.0326080322265625;9.02562427520752;30.524375915527344;14.5600004196167
1563;0.0;0.0;0.0;1.019919991493225;-0.24985599517822266;1.0287039279937744;0.0;0.0;0.0
1566;0.0;0.0;0.0;0.9925919771194458;-0.23814399540424347;1.0657919645309448;0.0;0.0;0.0
1568;0.0;0.0;0.0;0.9574559926986694;-0.27327999472618103;1.0901919603347778;0.0;0.0;0.0
1570;0.8615639805793762;-0.11882799863815308;0.9408639669418335;0.9340319633483887;-0.27718400955200195;1.126304030418396;20.71562385559082;41.514373779296875;20.299999237060547
1572;0.0;0.0;0.0;0.8832799792289734;-0.2576639950275421;1.1546080112457275;0.0;0.0;0.0
1574;0.0;0.0;0.0;0.8569279909133911;-0.26156800985336304;1.1672959327697754;0.0;0.0;0.0
1576;0.0;0.0;0.0;0.8022719621658325;-0.29280000925064087;1.1624159812927246;0.0;0.0;0.0
1578;0.7232159972190857;-0.13395600020885468;1.0379760265350342;0.7827519774436951;-0.2576639950275421;1.2112159729003906;21.69562530517578;49.28437423706055;24.850000381469727
1581;0.0;0.0;0.0;0.7437120079994202;-0.284991979598999;1.1868159770965576;0.0;0.0;0.0
1583;0.0;0.0;0.0;0.7515199780464172;-0.27327999472618103;1.231711983680725;0.0;0.0;0.0
1585;0.0;0.0;0.0;0.7437120079994202;-0.24985599517822266;1.2444000244140625;0.0;0.0;0.0
1587;0.6253719925880432;-0.1285879909992218;1.0975120067596436;0.708575963973999;-0.2576639950275421;1.2278079986572266;17.005624771118164;44.24437713623047;29.68000030517578
1589;0.0;0.0;0.0;0.7437120079994202;-0.2654719948768616;1.2200000286102295;0.0;0.0;0.0
1591;0.0;0.0;0.0;0.7437120079994202;-0.2654719948768616;1.2112159729003906;0.0;0.0;0.0
1593;0.0;0.0;0.0;0.7437120079994202;-0.2693759799003601;1.2200000286102295;0.0;0.0;0.0
1595;0.6261039972305298;-0.13688400387763977;1.1021479368209839;0.7632319927215576;-0.3240320086479187;1.199504017829895;12.17562484741211;31.224374771118164;33.880001068115234
1598;0.0;0.0;0.0;0.798367977142334;-0.31622397899627686;1.1868159770965576;0.0;0.0;0.0
1600;0.0;0.0;0.0;0.8335039615631104;-0.34355199337005615;1.1712000370025635;0.0;0.0;0.0
1602;0.0;0.0;0.0;0.8295999765396118;-0.374783992767334;1.1624159812927246;0.0;0.0;0.0
1604;0.6788079738616943;-0.20178799331188202;1.0613999366760254;0.8178879618644714;-0.3669759929180145;1.1624159812927246;12.52562427520752;22.614376068115234;35.77000045776367
1606;0.0;0.0;0.0;0.8217920064926147;-0.3669759929180145;1.134112000465393;0.0;0.0;0.0
1608;0.0;0.0;0.0;0.8413119912147522;-0.3630719780921936;1.1712000370025635;0.0;0.0;0.0
1610;0.0;0.0;0.0;0.8217920064926147;-0.4021120071411133;1.122399926185608;0.0;0.0;0.0
1612;0.7115039825439453;-0.2508319914340973;1.0152839422225952;0.8139839768409729;-0.39430397748947144;1.134112000465393;18.825624465942383;23.174375534057617;33.599998474121094
1615;0.0;0.0;0.0;0.8256959915161133;-0.4021120071411133;1.10971200466156;0.0;0.0;0.0
1617;0.0;0.0;0.0;0.8335039615631104;-0.39820799231529236;1.10971200466156;0.0;0.0;0.0
1619;0.0;0.0;0.0;0.8100799918174744;-0.4294399917125702;1.097999930381775;0.0;0.0;0.0
1621;0.7029640078544617;-0.2798680067062378;0.9916160106658936;0.8178879618644714;-0.45286399126052856;1.101904034614563;24.705625534057617;26.32437515258789;27.93000030517578
1623;0.0;0.0;0.0;0.7710399627685547;-0.4333440065383911;1.0940959453582764;0.0;0.0;0.0
1625;0.0;0.0;0.0;0.774944007396698;-0.45286399126052856;1.10971200466156;0.0;0.0;0.0
1627;0.0;0.0;0.0;0.7319999933242798;-0.43724799156188965;1.0775039196014404;0.0;0.0;0.0
1629;0.6336680054664612;-0.3020719885826111;0.9747799634933472;0.7124800086021423;-0.4567679762840271;1.085312008857727;27.995624542236328;30.174375534057617;18.549999237060547
1632;0.0;0.0;0.0;0.6461119651794434;-0.4450559914112091;1.0940959453582764;0.0;0.0;0.0
1634;0.0;0.0;0.0;0.6265919804573059;-0.472383975982666;1.0491999387741089;0.0;0.0;0.0
1636;0.0;0.0;0.0;0.6158559918403625;-0.46457600593566895;1.0696959495544434;0.0;0.0;0.0
1638;0.5070319771766663;-0.31549200415611267;0.9518439769744873;0.5807200074195862;-0.43724799156188965;1.073599934577942;27.85562515258789;29.334375381469727;5.53000020980835
1640;0.0;0.0;0.0;0.5690079927444458;-0.42163199186325073;1.0814080238342285;0.0;0.0;0.0
1642;0.0;0.0;0.0;0.5768159627914429;-0.4450559914112091;1.085312008857727;0.0;0.0;0.0
1644;0.0;0.0;0.0;0.5846239924430847;-0.40991997718811035;1.060912013053894;0.0;0.0;0.0
1646;0.4470079839229584;-0.2869440019130707;0.9469639658927917;0.5572959780693054;-0.4060159921646118;1.073599934577942;23.58562469482422;21.424375534057617;-6.440000057220459
1649;0.0;0.0;0.0;0.5729119777679443;-0.3903999924659729;1.0491999387741089;0.0;0.0;0.0
1651;0.0;0.0;0.0;0.5768159627914429;-0.3903999924659729;1.0570080280303955;0.0;0.0;0.0
1653;0.0;0.0;0.0;0.5572959780693054;-0.3513599932193756;1.0657919645309448;0.0;0.0;0.0
1655;0.44652000069618225;-0.2437559962272644;0.948915958404541;0.5533919930458069;-0.35916799306869507;1.0657919645309448;16.935625076293945;15.894375801086426;-13.859999656677246
1657;0.0;0.0;0.0;0.5104479789733887;-0.374783992767334;1.0531039237976074;0.0;0.0;0.0
1659;0.0;0.0;0.0;0.5338720083236694;-0.35916799306869507;1.0618879795074463;0.0;0.0;0.0
1661;0.0;0.0;0.0;0.5104479789733887;-0.35916799306869507;1.060912013053894;0.0;0.0;0.0
1663;0.3945479989051819;-0.23131199181079865;0.9386679530143738;0.5026400089263916;-0.38259199261665344;1.0531039237976074;11.055624961853027;13.7943754196167;-15.399999618530273
1666;0.0;0.0;0.0;0.5104479789733887;-0.3669759929180145;1.0531039237976074;0.0;0.0;0.0
1668;0.0;0.0;0.0;0.4753119945526123;-0.39430397748947144;1.0775039196014404;0.0;0.0;0.0
1670;0.0;0.0;0.0;0.4753119945526123;-0.3903999924659729;1.0814080238342285;0.0;0.0;0.0
1672;0.3672199845314026;-0.2601040005683899;0.9452559947967529;0.4753119945526123;-0.42163199186325073;1.10971200466156;5.385624885559082;9.664375305175781;-11.0600004196167
1674;0.0;0.0;0.0;0.4909279942512512;-0.472383975982666;1.073599934577942;0.0;0.0;0.0
1676;0.0;0.0;0.0;0.522159993648529;-0.5270400047302246;1.0413919687271118;0.0;0.0;0.0
1678;0.0;0.0;0.0;0.44017598032951355;-0.3903999924659729;1.1712000370025635;0.0;0.0;0.0
1680;0.35648399591445923;-0.342087984085083;0.9884439706802368;0.45188799500465393;-0.49190399050712585;1.1672959327697754;2.1656250953674316;6.51437520980835;-6.159999847412109
1683;0.0;0.0;0.0;0.4909279942512512;-0.4060159921646118;1.199504017829895;0.0;0.0;0.0
1685;0.0;0.0;0.0;0.42455998063087463;-0.4021120071411133;1.2034080028533936;0.0;0.0;0.0
1687;0.0;0.0;0.0;0.42455998063087463;-0.43724799156188965;1.1916959285736084;0.0;0.0;0.0
1689;0.3274479806423187;-0.29475200176239014;1.0657919645309448;0.4440799951553345;-0.4958080053329468;1.1712000370025635;-8.124375343322754;3.1543750762939453;-7.420000076293945
1691;0.0;0.0;0.0;0.4753119945526123;-0.5270400047302246;1.150704026222229;0.0;0.0;0.0
1693;0.0;0.0;0.0;0.46750399470329285;-0.5738880038261414;1.1428959369659424;0.0;0.0;0.0
1695;0.0;0.0;0.0;0.4323679804801941;-0.6090239882469177;1.1712000370025635;0.0;0.0;0.0
1697;0.3247639834880829;-0.4294399917125702;1.0369999408721924;0.4050399959087372;-0.6051200032234192;1.182911992073059;-20.654375076293945;-3.3556251525878906;-10.149999618530273
1700;0.0;0.0;0.0;0.38942399621009827;-0.6012159585952759;1.199504017829895;0.0;0.0;0.0
1702;0.0;0.0;0.0;0.447983980178833;-0.5816959738731384;1.248304009437561;0.0;0.0;0.0
1704;0.0;0.0;0.0;0.4206559956073761;-0.6519680023193359;1.223904013633728;0.0;0.0;0.0
1706;0.30451199412345886;-0.4904399812221527;1.0918999910354614;0.3777119815349579;-0.6871039867401123;1.1868159770965576;-20.094375610351562;-2.3056249618530273;-19.950000762939453
1708;0.0;0.0;0.0;0.3816159963607788;-0.6910079717636108;1.207311987876892;0.0;0.0;0.0
1710;0.0;0.0;0.0;0.34355199337005615;-0.6871039867401123;1.2434239387512207;0.0;0.0;0.0
1712;0.0;0.0;0.0;0.31622397899627686;-0.6675840020179749;1.2766079902648926;0.0;0.0;0.0
1714;0.21593999862670898;-0.5275279879570007;1.126547932624817;0.2693759799003601;-0.6675840020179749;1.2766079902648926;-10.434375762939453;2.804374933242798;-30.520000457763672
1717;0.0;0.0;0.0;0.24595199525356293;-0.6636799573898315;1.272704005241394;0.0;0.0;0.0
1719;0.0;0.0;0.0;0.21862399578094482;-0.6714879870414734;1.2805119752883911;0.0;0.0;0.0
1721;0.0;0.0;0.0;0.2147199958562851;-0.6832000017166138;1.3010079860687256;0.0;0.0;0.0
1723;0.1041879951953888;-0.5285040140151978;1.1643680334091187;0.17177599668502808;-0.6285439729690552;1.297104001045227;-3.854374885559082;2.594374895095825;-42.77000045776367
1725;0.0;0.0;0.0;0.187391996383667;-0.5738880038261414;1.3371199369430542;0.0;0.0;0.0
1727;0.0;0.0;0.0;0.14444799721240997;-0.5738880038261414;1.3537119626998901;0.0;0.0;0.0
1729;0.0;0.0;0.0;0.17177599668502808;-0.5114240050315857;1.3654239177703857;0.0;0.0;0.0
1731;0.04147999733686447;-0.4243159890174866;1.2275639772415161;0.15615999698638916;-0.5114240050315857;1.3498079776763916;3.3556251525878906;2.9443750381469727;-52.36000061035156
1734;0.0;0.0;0.0;0.1483519971370697;-0.4684799909591675;1.3615199327468872;0.0;0.0;0.0
1736;0.0;0.0;0.0;0.0907679945230484;-0.44896000623703003;1.3576159477233887;0.0;0.0;0.0
1738;0.0;0.0;0.0;0.09467199444770813;-0.43724799156188965;1.3371199369430542;0.0;0.0;0.0
1740;-0.015371999703347683;-0.3286679983139038;1.2209759950637817;0.06734399497509003;-0.42163199186325073;1.3088159561157227;8.9556245803833;2.594374895095825;-54.810001373291016
1742;0.0;0.0;0.0;0.07515199482440948;-0.4021120071411133;1.3254079818725586;0.0;0.0;0.0
1744;0.0;0.0;0.0;0.0634399950504303;-0.4138239920139313;1.3166239261627197;0.0;0.0;0.0
1746;0.0;0.0;0.0;0.04391999915242195;-0.37088000774383545;1.3127199411392212;0.0;0.0;0.0
1748;-0.0697840005159378;-0.25912800431251526;1.1980400085449219;0.05563199892640114;-0.35916799306869507;1.3205280303955078;17.565624237060547;-1.3956249952316284;-52.9900016784668
1751;0.0;0.0;0.0;0.024399999529123306;-0.34355199337005615;1.3010079860687256;0.0;0.0;0.0
1753;0.0;0.0;0.0;0.01659199967980385;-0.3474559783935547;1.3049119710922241;0.0;0.0;0.0
1755;0.0;0.0;0.0;0.01659199967980385;-0.2967039942741394;1.2844159603118896;0.0;0.0;0.0
1757;-0.1088239997625351;-0.19300399720668793;1.177299976348877;0.032207999378442764;-0.31622397899627686;1.2766079902648926;24.635623931884766;-3.9156250953674316;-51.72999954223633
1759;0.0;0.0;0.0;0.028303999453783035;-0.24595199525356293;1.3010079860687256;0.0;0.0;0.0
1761;0.0;0.0;0.0;0.04391999915242195;-0.23423999547958374;1.2766079902648926;0.0;0.0;0.0
1763;0.0;0.0;0.0;0.020495999604463577;-0.21081599593162537;1.272704005241394;0.0;0.0;0.0
1765;-0.1041879951953888;-0.10199199616909027;1.1558279991149902;0.032207999378442764;-0.18348799645900726;1.2678239345550537;26.595624923706055;-3.775624990463257;-51.099998474121094
1768;0.0;0.0;0.0;0.01659199967980385;-0.16396799683570862;1.2522079944610596;0.0;0.0;0.0
1770;0.0;0.0;0.0;-0.010735999792814255;-0.1483519971370697;1.248304009437561;0.0;0.0;0.0
1772;0.0;0.0;0.0;-0.02635199949145317;-0.1210239976644516;1.2434239387512207;0.0;0.0;0.0
1774;-0.13346800208091736;-0.004147999919950962;1.128499984741211;-0.03415999934077263;-0.08588799834251404;1.256111979484558;23.935625076293945;-2.1656250953674316;-49.0
1776;0.0;0.0;0.0;-0.08100800216197968;-0.08198399841785431;1.256111979484558;0.0;0.0;0.0
1778;0.0;0.0;0.0;-0.09272000193595886;-0.07417599856853485;1.2600159645080566;0.0;0.0;0.0
1780;0.0;0.0;0.0;-0.12785600125789642;-0.04294399917125702;1.256111979484558;0.0;0.0;0.0
1782;-0.2152079939842224;0.062219999730587006;1.1421639919281006;-0.13176000118255615;-0.04294399917125702;1.2639199495315552;17.845624923706055;-1.3956249952316284;-45.290000915527344
1785;0.0;0.0;0.0;-0.1542080044746399;-0.031231999397277832;1.2678239345550537;0.0;0.0;0.0
1787;0.0;0.0;0.0;-0.2088640034198761;-0.03513599932193756;1.2844159603118896;0.0;0.0;0.0
1789;0.0;0.0;0.0;-0.22448000311851501;-0.04684799909591675;1.3049119710922241;0.0;0.0;0.0
1791;-0.31915199756622314;0.09564799815416336;1.1719319820404053;-0.2479040026664734;-0.054655998945236206;1.2922239303588867;10.635624885559082;-3.4956250190734863;-40.880001068115234
1793;0.0;0.0;0.0;-0.28303998708724976;-0.019519999623298645;1.3088159561157227;0.0;0.0;0.0
1795;0.0;0.0;0.0;-0.2869440019130707;-0.031231999397277832;1.3010079860687256;0.0;0.0;0.0
1797;0.0;0.0;0.0;-0.32207998633384705;-0.03513599932193756;1.297104001045227;0.0;0.0;0.0
1799;-0.41870400309562683;0.1012599989771843;1.1775439977645874;-0.3298879861831665;-0.062463998794555664;1.2922239303588867;5.245625019073486;-9.585624694824219;-38.36000061035156
1802;0.0;0.0;0.0;-0.36502400040626526;-0.04684799909591675;1.3127199411392212;0.0;0.0;0.0
1804;0.0;0.0;0.0;-0.3416000008583069;-0.04294399917125702;1.297104001045227;0.0;0.0;0.0
1806;0.0;0.0;0.0;-0.3455039858818054;-0.03903999924659729;1.256111979484558;0.0;0.0;0.0
1808;-0.4714079797267914;0.08271599560976028;1.154363989830017;-0.3572160005569458;-0.04684799909591675;1.2522079944610596;3.215625047683716;-15.395624160766602;-37.310001373291016
1810;0.0;0.0;0.0;-0.36111998558044434;-0.062463998794555664;1.2444000244140625;0.0;0.0;0.0
1812;0.0;0.0;0.0;-0.36111998558044434;-0.04294399917125702;1.2522079944610596;0.0;0.0;0.0
1814;0.0;0.0;0.0;-0.3572160005569458;-0.04294399917125702;1.248304009437561;0.0;0.0;0.0
1816;-0.4816559851169586;0.08247199654579163;1.1226439476013184;-0.38844799995422363;-0.054655998945236206;1.2278079986572266;4.755625247955322;-19.10562515258789;-34.86000061035156
1819;0.0;0.0;0.0;-0.34940800070762634;-0.05075199902057648;1.2151199579238892;0.0;0.0;0.0
1821;0.0;0.0;0.0;-0.34940800070762634;-0.023423999547958374;1.2200000286102295;0.0;0.0;0.0
1823;0.0;0.0;0.0;-0.3298879861831665;-0.04294399917125702;1.1663199663162231;0.0;0.0;0.0
1825;-0.472383975982666;0.09516000002622604;1.0804319381713867;-0.3181760013103485;-0.05075199902057648;1.1907199621200562;9.165624618530273;-18.685625076293945;-30.380001068115234
1827;0.0;0.0;0.0;-0.33769598603248596;-0.015615999698638916;1.158511996269226;0.0;0.0;0.0
1829;0.0;0.0;0.0;-0.3337920010089874;-0.031231999397277832;1.1624159812927246;0.0;0.0;0.0
1831;0.0;0.0;0.0;-0.33769598603248596;-0.007807999849319458;1.122399926185608;0.0;0.0;0.0
1833;-0.4631119966506958;0.11028799414634705;1.0257760286331177;-0.32598400115966797;-0.023423999547958374;1.1184959411621094;15.885624885559082;-13.995624542236328;-24.219999313354492
1836;0.0;0.0;0.0;-0.36111998558044434;-0.011711999773979187;1.10971200466156;0.0;0.0;0.0
1838;0.0;0.0;0.0;-0.3337920010089874;0.007807999849319458;1.1058080196380615;0.0;0.0;0.0
1840;0.0;0.0;0.0;-0.3572160005569458;0.003903999924659729;1.101904034614563;0.0;0.0;0.0
1842;-0.4853159785270691;0.14225199818611145;0.9840520024299622;-0.37673598527908325;0.05075199902057648;1.101904034614563;24.1456241607666;-9.86562442779541;-17.989999771118164
1844;0.0;0.0;0.0;-0.43432000279426575;0.03903999924659729;1.0901919603347778;0.0;0.0;0.0
1846;0.0;0.0;0.0;-0.40699198842048645;0.062463998794555664;1.085312008857727;0.0;0.0;0.0
1848;0.0;0.0;0.0;-0.46164798736572266;0.07417599856853485;1.0570080280303955;0.0;0.0;0.0
1851;-0.5633959770202637;0.18812400102615356;0.9591639637947083;-0.4967840015888214;0.058559998869895935;1.0775039196014404;29.815624237060547;-6.925624847412109;-15.190000534057617
1853;0.0;0.0;0.0;-0.48507198691368103;0.08198399841785431;1.0696959495544434;0.0;0.0;0.0
1855;0.0;0.0;0.0;-0.5045920014381409;0.11711999773979187;1.060912013053894;0.0;0.0;0.0
1857;0.0;0.0;0.0;-0.5163040161132812;0.1327359974384308;1.0491999387741089;0.0;0.0;0.0
1859;-0.6253719925880432;0.2449759989976883;0.9396439790725708;-0.5280159711837769;0.12883199751377106;1.0531039237976074;29.3956241607666;-8.535624504089355;-14.90999984741211
1861;0.0;0.0;0.0;-0.5163040161132812;0.13663999736309052;1.0374879837036133;0.0;0.0;0.0
1863;0.0;0.0;0.0;-0.5397279858589172;0.15225599706172943;1.0374879837036133;0.0;0.0;0.0
1865;0.0;0.0;0.0;-0.5280159711837769;0.15225599706172943;1.0208959579467773;0.0;0.0;0.0
1868;-0.6490399837493896;0.28474798798561096;0.9189040064811707;-0.5241119861602783;0.1210239976644516;1.0287039279937744;23.37562370300293;-10.845624923706055;-14.5600004196167
1870;0.0;0.0;0.0;-0.5514400005340576;0.17177599668502808;1.0003999471664429;0.0;0.0;0.0
1872;0.0;0.0;0.0;-0.5241119861602783;0.14444799721240997;0.9925919771194458;0.0;0.0;0.0
1874;0.0;0.0;0.0;-0.5358240008354187;0.14054399728775024;0.9642879962921143;0.0;0.0;0.0
1876;-0.6502599716186523;0.28840798139572144;0.884988009929657;-0.48897600173950195;0.16396799683570862;1.0043039321899414;15.67562484741211;-11.195624351501465;-10.850000381469727
1878;0.0;0.0;0.0;-0.5202080011367798;0.1210239976644516;0.9964959621429443;0.0;0.0;0.0
1880;0.0;0.0;0.0;-0.5358240008354187;0.15225599706172943;1.0082080364227295;0.0;0.0;0.0
1882;0.0;0.0;0.0;-0.5202080011367798;0.12492799758911133;1.0003999471664429;0.0;0.0;0.0
1885;-0.6451359987258911;0.2698639929294586;0.880840003490448;-0.5006880164146423;0.1210239976644516;0.9838079810142517;9.935624122619629;-9.86562442779541;-2.450000047683716
1887;0.0;0.0;0.0;-0.48897600173950195;0.09759999811649323;0.9964959621429443;0.0;0.0;0.0
1889;0.0;0.0;0.0;-0.48897600173950195;0.1210239976644516;0.9759999513626099;0.0;0.0;0.0
1891;0.0;0.0;0.0;-0.4577440023422241;0.12492799758911133;0.9594079852104187;0.0;0.0;0.0
1893;-0.6087799668312073;0.2374119907617569;0.8708359599113464;-0.4382239878177643;0.062463998794555664;1.0130879878997803;7.975625038146973;-8.395624160766602;7.210000038146973
1895;0.0;0.0;0.0;-0.4147999882698059;0.07417599856853485;1.0043039321899414;0.0;0.0;0.0
1897;0.0;0.0;0.0;-0.42260798811912537;0.04294399917125702;0.9642879962921143;0.0;0.0;0.0
1899;0.0;0.0;0.0;-0.3757599890232086;0.015615999698638916;0.9642879962921143;0.0;0.0;0.0
1902;-0.5302119851112366;0.18080399930477142;0.8491199612617493;-0.3845439851284027;0.015615999698638916;0.9515999555587769;11.265625;-3.8456249237060547;14.0
1904;0.0;0.0;0.0;-0.37673598527908325;-0.015615999698638916;0.9389119744300842;0.0;0.0;0.0
1906;0.0;0.0;0.0;-0.3455039858818054;-0.019519999623298645;0.9232959747314453;0.0;0.0;0.0
1908;0.0;0.0;0.0;-0.34940800070762634;-0.011711999773979187;0.9311040043830872;0.0;0.0;0.0
1910;-0.4804359972476959;0.12492799758911133;0.8105679750442505;-0.34940800070762634;-0.023423999547958374;0.8988959789276123;18.96562385559082;3.294374942779541;16.170000076293945
1912;0.0;0.0;0.0;-0.32598400115966797;-0.019519999623298645;0.9145119786262512;0.0;0.0;0.0
1914;0.0;0.0;0.0;-0.3142719864845276;-0.003903999924659729;0.9106079936027527;0.0;0.0;0.0
1916;0.0;0.0;0.0;-0.3181760013103485;-0.019519999623298645;0.9067040085792542;0.0;0.0;0.0
1919;-0.45579198002815247;0.12614800035953522;0.7954399585723877;-0.3416000008583069;0.011711999773979187;0.9232959747314453;27.295623779296875;9.664375305175781;14.84000015258789
1921;0.0;0.0;0.0;-0.31036800146102905;0.015615999698638916;0.9145119786262512;0.0;0.0;0.0
1923;0.0;0.0;0.0;-0.3181760013103485;0.05075199902057648;0.9232959747314453;0.0;0.0;0.0
1925;0.0;0.0;0.0;-0.3181760013103485;0.03513599932193756;0.9067040085792542;0.0;0.0;0.0
1927;-0.4526199996471405;0.16787199676036835;0.7995879650115967;-0.32207998633384705;0.058559998869895935;0.9311040043830872;31.565624237060547;14.844375610351562;13.369999885559082
1929;0.0;0.0;0.0;-0.3416000008583069;0.04684799909591675;0.9232959747314453;0.0;0.0;0.0
1931;0.0;0.0;0.0;-0.33769598603248596;0.05075199902057648;0.9232959747314453;0.0;0.0;0.0
1933;0.0;0.0;0.0;-0.33769598603248596;0.0663679987192154;0.9145119786262512;0.0;0.0;0.0
1936;-0.4618919789791107;0.1908079981803894;0.7998319864273071;-0.31036800146102905;0.08979199826717377;0.9067040085792542;30.44562530517578;17.71437644958496;13.020000457763672
1938;0.0;0.0;0.0;-0.2879199981689453;0.08588799834251404;0.9242720007896423;0.0;0.0;0.0
1940;0.0;0.0;0.0;-0.30353599786758423;0.08198399841785431;0.9359839558601379;0.0;0.0;0.0
1942;0.0;0.0;0.0;-0.28011199831962585;0.0936959981918335;0.9281759858131409;0.0;0.0;0.0
1944;-0.41797199845314026;0.2222839891910553;0.8073959946632385;-0.2723039984703064;0.10540799796581268;0.9486719965934753;26.10562515258789;19.954376220703125;14.699999809265137
1946;0.0;0.0;0.0;-0.24887999892234802;0.10540799796581268;0.9320799708366394;0.0;0.0;0.0
1948;0.0;0.0;0.0;-0.2332639992237091;0.10931199789047241;0.9398880004882812;0.0;0.0;0.0
1950;0.0;0.0;0.0;-0.20983999967575073;0.08979199826717377;0.9242720007896423;0.0;0.0;0.0
1953;-0.366487979888916;0.2349720001220703;0.8086159825325012;-0.205935999751091;0.1210239976644516;0.9359839558601379;20.71562385559082;22.754375457763672;20.15999984741211
1955;0.0;0.0;0.0;-0.2205759882926941;0.10540799796581268;0.9389119744300842;0.0;0.0;0.0
1957;0.0;0.0;0.0;-0.18934398889541626;0.10540799796581268;0.9437919855117798;0.0;0.0;0.0
1959;0.0;0.0;0.0;-0.17372798919677734;0.10931199789047241;0.9389119744300842;0.0;0.0;0.0
1961;-0.32378798723220825;0.22618798911571503;0.8171559572219849;-0.17372798919677734;0.08979199826717377;0.9515999555587769;15.605624198913574;25.064374923706055;27.229999542236328
1963;0.0;0.0;0.0;-0.12785600125789642;0.07417599856853485;0.9642879962921143;0.0;0.0;0.0
1965;0.0;0.0;0.0;-0.11614400148391724;0.07417599856853485;0.9799039959907532;0.0;0.0;0.0
1967;0.0;0.0;0.0;-0.12004800140857697;0.058559998869895935;0.9633119702339172;0.0;0.0;0.0
1970;-0.25278398394584656;0.21447598934173584;0.8427760004997253;-0.08881600201129913;0.08198399841785431;0.9681919813156128;10.075624465942383;25.904375076293945;33.7400016784668
1972;0.0;0.0;0.0;-0.0849120020866394;0.0663679987192154;0.9759999513626099;0.0;0.0;0.0
1974;0.0;0.0;0.0;-0.045871999114751816;0.08198399841785431;0.9964959621429443;0.0;0.0;0.0
1976;0.0;0.0;0.0;-0.03415999934077263;0.03903999924659729;1.0287039279937744;0.0;0.0;0.0
1978;-0.17470400035381317;0.1890999972820282;0.8884040117263794;-0.018543999642133713;0.04294399917125702;1.0491999387741089;3.215625047683716;25.974374771118164;38.849998474121094
1980;0.0;0.0;0.0;-0.0029279999434947968;0.027327999472618103;1.0531039237976074;0.0;0.0;0.0
1982;0.0;0.0;0.0;0.00878399983048439;0.003903999924659729;1.0570080280303955;0.0;0.0;0.0
1984;0.0;0.0;0.0;0.024399999529123306;0.007807999849319458;1.085312008857727;0.0;0.0;0.0
1987;-0.10613999515771866;0.14566799998283386;0.9494040012359619;0.04782399907708168;-0.027327999472618103;1.0940959453582764;-4.484375;25.484375;42.0
1989;0.0;0.0;0.0;0.05953599885106087;-0.04294399917125702;1.0940959453582764;0.0;0.0;0.0
1991;0.0;0.0;0.0;0.09467199444770813;-0.058559998869895935;1.1058080196380615;0.0;0.0;0.0
1993;0.0;0.0;0.0;0.12590399384498596;-0.07807999849319458;1.1184959411621094;0.0;0.0;0.0
1995;-0.024643998593091965;0.07246799767017365;0.9777079820632935;0.13663999736309052;-0.08588799834251404;1.1058080196380615;-9.944375038146973;22.684375762939453;43.81999969482422
1997;0.0;0.0;0.0;0.17958399653434753;-0.10931199789047241;1.1058080196380615;0.0;0.0;0.0
1999;0.0;0.0;0.0;0.18348799645900726;-0.14054399728775024;1.1136159896850586;0.0;0.0;0.0
2001;0.0;0.0;0.0;0.2030079960823059;-0.1600639969110489;1.10971200466156;0.0;0.0;0.0
2004;0.058803997933864594;0.007319999858736992;0.9864919781684875;0.23814399540424347;-0.1483519971370697;1.126304030418396;-10.434375762939453;21.424375534057617;43.400001525878906
2006;0.0;0.0;0.0;0.2420479953289032;-0.15225599706172943;1.122399926185608;0.0;0.0;0.0
2008;0.0;0.0;0.0;0.24595199525356293;-0.1600639969110489;1.122399926185608;0.0;0.0;0.0
2010;0.0;0.0;0.0;0.29280000925064087;-0.18348799645900726;1.0775039196014404;0.0;0.0;0.0
2012;0.13981199264526367;-0.03367199748754501;0.9872239828109741;0.3123199939727783;-0.19129599630832672;1.10971200466156;-5.744375228881836;22.544376373291016;41.5099983215332
2014;0.0;0.0;0.0;0.3084160089492798;-0.19910399615764618;1.0814080238342285;0.0;0.0;0.0
2016;0.0;0.0;0.0;0.3084160089492798;-0.17958399653434753;1.0775039196014404;0.0;0.0;0.0
2019;0.0;0.0;0.0;0.32793599367141724;-0.17177599668502808;1.085312008857727;0.0;0.0;0.0
2021;0.18983200192451477;-0.05075199902057648;0.9723399877548218;0.33183997869491577;-0.17958399653434753;1.1058080196380615;2.655625104904175;26.254375457763672;40.18000030517578
2023;0.0;0.0;0.0;0.3425759971141815;-0.17958399653434753;1.115567922592163;0.0;0.0;0.0
2025;0.0;0.0;0.0;0.3542879819869995;-0.17958399653434753;1.1477760076522827;0.0;0.0;0.0
2027;0.0;0.0;0.0;0.34940800070762634;-0.1600639969110489;1.1350879669189453;0.0;0.0;0.0
2029;0.22008799016475677;-0.030499998480081558;1.002351999282837;0.3728320002555847;-0.12492799758911133;1.1477760076522827;10.005624771118164;29.12437629699707;39.54999923706055
2031;0.0;0.0;0.0;0.33086398243904114;-0.11711999773979187;1.1594879627227783;0.0;0.0;0.0
2033;0.0;0.0;0.0;0.36209598183631897;-0.1210239976644516;1.1477760076522827;0.0;0.0;0.0
2035;0.0;0.0;0.0;0.37380799651145935;-0.1483519971370697;1.1272799968719482;0.0;0.0;0.0
2038;0.23545999825000763;0.004879999905824661;1.0187000036239624;0.33476799726486206;-0.1483519971370697;1.1311839818954468;12.735624313354492;30.174375534057617;38.63999938964844
2040;0.0;0.0;0.0;0.34647998213768005;-0.12883199751377106;1.1233760118484497;0.0;0.0;0.0
2042;0.0;0.0;0.0;0.36502400040626526;-0.13663999736309052;1.1194720268249512;0.0;0.0;0.0
2044;0.0;0.0;0.0;0.35819199681282043;-0.12883199751377106;1.0950720310211182;0.0;0.0;0.0
2046;0.24155999720096588;0.008295999839901924;0.9999119639396667;0.4001599848270416;-0.11321599781513214;1.0823839902877808;12.4556245803833;28.564374923706055;33.810001373291016
2048;0.0;0.0;0.0;0.40406399965286255;-0.15225599706172943;1.0706720352172852;0.0;0.0;0.0
2050;0.0;0.0;0.0;0.4274879992008209;-0.13663999736309052;1.0540800094604492;0.0;0.0;0.0
2052;0.0;0.0;0.0;0.3699039816856384;-0.11321599781513214;1.1106879711151123;0.0;0.0;0.0
2055;0.2798680067062378;0.015371999703347683;0.9698999524116516;0.4782399833202362;-0.0936959981918335;1.1233760118484497;10.075624465942383;24.994375228881836;29.96000099182129
2057;0.0;0.0;0.0;0.4635999798774719;-0.0936959981918335;1.0491999387741089;0.0;0.0;0.0
2059;0.0;0.0;0.0;0.4635999798774719;-0.14444799721240997;1.0374879837036133;0.0;0.0;0.0
2061;0.0;0.0;0.0;0.48311999440193176;-0.1327359974384308;1.0570080280303955;0.0;0.0;0.0
2063;0.34135597944259644;0.00878399983048439;0.9372040033340454;0.447983980178833;-0.14444799721240997;1.0413919687271118;4.755625247955322;23.03437614440918;25.1299991607666
2065;0.0;0.0;0.0;0.4870239794254303;-0.11711999773979187;1.0531039237976074;0.0;0.0;0.0
2067;0.0;0.0;0.0;0.522159993648529;-0.10150399804115295;1.0618879795074463;0.0;0.0;0.0
2070;0.0;0.0;0.0;0.545583963394165;-0.07417599856853485;1.0814080238342285;0.0;0.0;0.0
2072;0.4021120071411133;0.042211998254060745;0.944767951965332;0.545583963394165;-0.0663679987192154;1.0413919687271118;2.445625066757202;23.80437469482422;26.31999969482422
2074;0.0;0.0;0.0;0.6070719957351685;-0.0936959981918335;1.0579839944839478;0.0;0.0;0.0
2076;0.0;0.0;0.0;0.587552011013031;-0.10150399804115295;1.0462720394134521;0.0;0.0;0.0
2078;0.0;0.0;0.0;0.5914559960365295;-0.062463998794555664;1.0745760202407837;0.0;0.0;0.0
2080;0.46872398257255554;0.05685199797153473;0.9418399930000305;0.5836479663848877;-0.031231999397277832;1.0823839902877808;1.605625033378601;30.1043758392334;31.56999969482422
2082;0.0;0.0;0.0;0.6217119693756104;-0.09759999811649323;1.0540800094604492;0.0;0.0;0.0
2084;0.0;0.0;0.0;0.6217119693756104;-0.11321599781513214;1.0257760286331177;0.0;0.0;0.0
2087;0.0;0.0;0.0;0.5719360113143921;-0.12492799758911133;1.0706720352172852;0.0;0.0;0.0
2089;0.47165200114250183;0.03537999838590622;0.9391559958457947;0.587552011013031;-0.07807999849319458;1.1028800010681152;1.7456250190734863;34.514373779296875;35.77000045776367
2091;0.0;0.0;0.0;0.5768159627914429;-0.08588799834251404;1.10971200466156;0.0;0.0;0.0
2093;0.0;0.0;0.0;0.5807200074195862;-0.10540799796581268;1.1058080196380615;0.0;0.0;0.0
2095;0.0;0.0;0.0;0.5768159627914429;-0.13663999736309052;1.10971200466156;0.0;0.0;0.0
2097;0.45237597823143005;0.024643998593091965;0.9896639585494995;0.5768159627914429;-0.13663999736309052;1.10971200466156;0.5556250214576721;33.604373931884766;35.97999954223633
2099;0.0;0.0;0.0;0.5963360071182251;-0.15225599706172943;1.1546080112457275;0.0;0.0;0.0
2101;0.0;0.0;0.0;0.5846239924430847;-0.12883199751377106;1.1790080070495605;0.0;0.0;0.0
2104;0.0;0.0;0.0;0.5924319624900818;-0.12883199751377106;1.1956000328063965;0.0;0.0;0.0
2106;0.4596959948539734;-0.006587999872863293;1.0540800094604492;0.5963360071182251;-0.17958399653434753;1.1956000328063965;-2.734375;29.544376373291016;32.20000076293945
2108;0.0;0.0;0.0;0.5836479663848877;-0.17958399653434753;1.2160959243774414;0.0;0.0;0.0
2110;0.0;0.0;0.0;0.5953599810600281;-0.17177599668502808;1.1965759992599487;0.0;0.0;0.0
2112;0.0;0.0;0.0;0.5914559960365295;-0.19910399615764618;1.2082879543304443;0.0;0.0;0.0
2114;0.47384798526763916;-0.04318799823522568;1.0836039781570435;0.6100000143051147;-0.19519999623298645;1.1916959285736084;-7.844375133514404;22.754375457763672;25.059999465942383
2116;0.0;0.0;0.0;0.6217119693756104;-0.22643199563026428;1.1672959327697754;0.0;0.0;0.0
2118;0.0;0.0;0.0;0.6334239840507507;-0.22252799570560455;1.1877919435501099;0.0;0.0;0.0
2121;0.0;0.0;0.0;0.6412320137023926;-0.21862399578094482;1.1838879585266113;0.0;0.0;0.0
2123;0.5023959875106812;-0.09564799815416336;1.0662800073623657;0.6490399837493896;-0.2693759799003601;1.1721760034561157;-10.784375190734863;15.124375343322754;18.059999465942383
2125;0.0;0.0;0.0;0.6383039951324463;-0.26156800985336304;1.1712000370025635;0.0;0.0;0.0
2127;0.0;0.0;0.0;0.6656320095062256;-0.24985599517822266;1.175104022026062;0.0;0.0;0.0
2129;0.0;0.0;0.0;0.6500160098075867;-0.284991979598999;1.1672959327697754;0.0;0.0;0.0
2131;0.537775993347168;-0.13127200305461884;1.0518839359283447;0.6617279648780823;-0.26156800985336304;1.1624159812927246;-9.664375305175781;11.484375953674316;13.510000228881836
2133;0.0;0.0;0.0;0.6734399795532227;-0.2693759799003601;1.158511996269226;0.0;0.0;0.0
2135;0.0;0.0;0.0;0.6617279648780823;-0.30060797929763794;1.1868159770965576;0.0;0.0;0.0
2138;0.0;0.0;0.0;0.6578239798545837;-0.3240320086479187;1.1546080112457275;0.0;0.0;0.0
2140;0.5428999662399292;-0.15079200267791748;1.0384639501571655;0.6734399795532227;-0.2810879945755005;1.1624159812927246;-6.51437520980835;11.414375305175781;11.899999618530273
2142;0.0;0.0;0.0;0.6500160098075867;-0.2967039942741394;1.158511996269226;0.0;0.0;0.0
2144;0.0;0.0;0.0;0.6500160098075867;-0.29280000925064087;1.1546080112457275;0.0;0.0;0.0
2146;0.0;0.0;0.0;0.6500160098075867;-0.2576639950275421;1.1546080112457275;0.0;0.0;0.0
2148;0.5370439887046814;-0.14640000462532043;1.0379760265350342;0.6578239798545837;-0.28889599442481995;1.1624159812927246;-3.5043749809265137;10.994375228881836;11.619999885559082
2150;0.0;0.0;0.0;0.6539199948310852;-0.26156800985336304;1.199504017829895;0.0;0.0;0.0
2152;0.0;0.0;0.0;0.6500160098075867;-0.2537599802017212;1.1712000370025635;0.0;0.0;0.0
2155;0.0;0.0;0.0;0.6773439645767212;-0.2693759799003601;1.1868159770965576;0.0;0.0;0.0
2157;0.5468040108680725;-0.1285879909992218;1.0572519302368164;0.700767993927002;-0.27327999472618103;1.1672959327697754;-3.784374952316284;8.964375495910645;12.529999732971191
2159;0.0;0.0;0.0;0.7036960124969482;-0.284991979598999;1.1965759992599487;0.0;0.0;0.0
2161;0.0;0.0;0.0;0.6919839978218079;-0.2693759799003601;1.2121919393539429;0.0;0.0;0.0
2163;0.0;0.0;0.0;0.7544479966163635;-0.2537599802017212;1.2160959243774414;0.0;0.0;0.0
2165;0.5848680138587952;-0.13395600020885468;1.0850679874420166;0.6919839978218079;-0.2810879945755005;1.2287839651107788;-7.844375133514404;6.094375133514404;13.789999961853027
2167;0.0;0.0;0.0;0.7388319969177246;-0.2967039942741394;1.2121919393539429;0.0;0.0;0.0
2169;0.0;0.0;0.0;0.7271199822425842;-0.2967039942741394;1.2444000244140625;0.0;0.0;0.0
2172;0.0;0.0;0.0;0.7427359819412231;-0.33183997869491577;1.2209759950637817;0.0;0.0;0.0
2174;0.6121959686279297;-0.17641200125217438;1.0967799425125122;0.7544479966163635;-0.3786879777908325;1.2082879543304443;-12.534375190734863;5.464375019073486;14.069999694824219
2176;0.0;0.0;0.0;0.750544011592865;-0.3903999924659729;1.2160959243774414;0.0;0.0;0.0
2178;0.0;0.0;0.0;0.7466399669647217;-0.37088000774383545;1.2365919351577759;0.0;0.0;0.0
2180;0.0;0.0;0.0;0.7271199822425842;-0.39820799231529236;1.2404959201812744;0.0;0.0;0.0
2182;0.619271993637085;-0.24473199248313904;1.1104439496994019;0.7466399669647217;-0.4021120071411133;1.2570879459381104;-12.954375267028809;5.744375228881836;12.180000305175781
2184;0.0;0.0;0.0;0.7271199822425842;-0.42163199186325073;1.2609919309616089;0.0;0.0;0.0
2186;0.0;0.0;0.0;0.7154079675674438;-0.4294399917125702;1.2531839609146118;0.0;0.0;0.0
2189;0.0;0.0;0.0;0.7115039825439453;-0.4450559914112091;1.285391926765442;0.0;0.0;0.0
2191;0.6043879985809326;-0.2862119972705841;1.1428959369659424;0.7310239672660828;-0.42553597688674927;1.2932000160217285;-9.174375534057617;5.114375114440918;9.730000495910645
2193;0.0;0.0;0.0;0.7202879786491394;-0.460671991109848;1.2883199453353882;0.0;0.0;0.0
2195;0.0;0.0;0.0;0.7319999933242798;-0.4567679762840271;1.2678239345550537;0.0;0.0;0.0
2197;0.0;0.0;0.0;0.7202879786491394;-0.44896000623703003;1.2766079902648926;0.0;0.0;0.0
2199;0.5858439803123474;-0.3147599995136261;1.1580239534378052;0.6734399795532227;-0.47628799080848694;1.2844159603118896;-2.664375066757202;2.9443750381469727;6.720000267028809
2201;0.0;0.0;0.0;0.6812480092048645;-0.460671991109848;1.2844159603118896;0.0;0.0;0.0
2203;0.0;0.0;0.0;0.6734399795532227;-0.44896000623703003;1.2766079902648926;0.0;0.0;0.0
2206;0.0;0.0;0.0;0.6656320095062256;-0.46457600593566895;1.2805119752883911;0.0;0.0;0.0
2208;0.559004008769989;-0.33842799067497253;1.1599760055541992;0.6656320095062256;-0.47628799080848694;1.3088159561157227;5.105625152587891;-0.4156250059604645;1.9600000381469727
2210;0.0;0.0;0.0;0.6617279648780823;-0.48799997568130493;1.3010079860687256;0.0;0.0;0.0
2212;0.0;0.0;0.0;0.6656320095062256;-0.46457600593566895;1.256111979484558;0.0;0.0;0.0
2214;0.0;0.0;0.0;0.6344000101089478;-0.48019200563430786;1.272704005241394;0.0;0.0;0.0
2216;0.5324079990386963;-0.334524005651474;1.1663199663162231;0.6304959654808044;-0.4684799909591675;1.2844159603118896;10.145624160766602;-1.1856250762939453;-4.900000095367432
2219;0.0;0.0;0.0;0.6422079801559448;-0.45286399126052856;1.2639199495315552;0.0;0.0;0.0
2220;0.0;0.0;0.0;0.6265919804573059;-0.4294399917125702;1.256111979484558;0.0;0.0;0.0
2223;0.0;0.0;0.0;0.6041439771652222;-0.4567679762840271;1.2639199495315552;0.0;0.0;0.0
2225;0.48970797657966614;-0.31500399112701416;1.150704026222229;0.5914559960365295;-0.4294399917125702;1.2688000202178955;12.035624504089355;-2.515625;-11.899999618530273
2227;0.0;0.0;0.0;0.5914559960365295;-0.4411519765853882;1.2697759866714478;0.0;0.0;0.0
2229;0.0;0.0;0.0;0.5836479663848877;-0.4177280068397522;1.2404959201812744;0.0;0.0;0.0
2231;0.0;0.0;0.0;0.5953599810600281;-0.39430397748947144;1.2570879459381104;0.0;0.0;0.0
2233;0.4589639902114868;-0.2896279990673065;1.1314280033111572;0.5836479663848877;-0.4411519765853882;1.2365919351577759;11.545624732971191;-5.875625133514404;-17.360000610351562
2235;0.0;0.0;0.0;0.5797439813613892;-0.42553597688674927;1.2326879501342773;0.0;0.0;0.0
2237;0.0;0.0;0.0;0.5719360113143921;-0.4060159921646118;1.2287839651107788;0.0;0.0;0.0
2240;0.0;0.0;0.0;0.5485119819641113;-0.38259199261665344;1.2326879501342773;0.0;0.0;0.0
2242;0.43895599246025085;-0.27132800221443176;1.1089799404144287;0.5289919972419739;-0.4138239920139313;1.2404959201812744;9.725625038146973;-8.465624809265137;-21.280000686645508
2244;0.0;0.0;0.0;0.5690079927444458;-0.4684799909591675;1.1790080070495605;0.0;0.0;0.0
2246;0.0;0.0;0.0;0.522159993648529;-0.460671991109848;1.1790080070495605;0.0;0.0;0.0
2248;0.0;0.0;0.0;0.46750399470329285;-0.374783992767334;1.256111979484558;0.0;0.0;0.0
2250;0.39991599321365356;-0.2757200002670288;1.0931199789047241;0.4753119945526123;-0.37088000774383545;1.2600159645080566;9.795624732971191;-8.745624542236328;-24.290000915527344
2253;0.0;0.0;0.0;0.4870239794254303;-0.3786879777908325;1.2112159729003906;0.0;0.0;0.0
2254;0.0;0.0;0.0;0.48311999440193176;-0.3240320086479187;1.231711983680725;0.0;0.0;0.0
2257;0.0;0.0;0.0;0.5065439939498901;-0.40991997718811035;1.2034080028533936;0.0;0.0;0.0
2259;0.374783992767334;-0.22740799188613892;1.107759952545166;0.5026400089263916;-0.3903999924659729;1.199504017829895;7.135624885559082;-10.285624504089355;-28.139999389648438
2261;0.0;0.0;0.0;0.42455998063087463;-0.35916799306869507;1.2278079986572266;0.0;0.0;0.0
2263;0.0;0.0;0.0;0.42455998063087463;-0.35526400804519653;1.2190239429473877;0.0;0.0;0.0
2265;0.0;0.0;0.0;0.44017598032951355;-0.374783992767334;1.2395199537277222;0.0;0.0;0.0
2267;0.32085999846458435;-0.22545599937438965;1.0909240245819092;0.436271995306015;-0.374783992767334;1.2190239429473877;5.805624961853027;-12.945624351501465;-29.469999313354492
2270;0.0;0.0;0.0;0.4323679804801941;-0.4060159921646118;1.2112159729003906;0.0;0.0;0.0
2272;0.0;0.0;0.0;0.40113598108291626;-0.38259199261665344;1.1907199621200562;0.0;0.0;0.0
2274;0.0;0.0;0.0;0.3777119815349579;-0.37088000774383545;1.1790080070495605;0.0;0.0;0.0
2276;0.28767600655555725;-0.25034400820732117;1.0760400295257568;0.42846399545669556;-0.374783992767334;1.182911992073059;7.275625228881836;-15.885624885559082;-33.7400016784668
2278;0.0;0.0;0.0;0.3806400001049042;-0.3201279938220978;1.2043839693069458;0.0;0.0;0.0
2280;0.0;0.0;0.0;0.4001599848270416;-0.34355199337005615;1.1799839735031128;0.0;0.0;0.0
2282;0.0;0.0;0.0;0.39235198497772217;-0.3513599932193756;1.2082879543304443;0.0;0.0;0.0
2284;0.2652280032634735;-0.21959999203681946;1.0662800073623657;0.3845439851284027;-0.35526400804519653;1.1555839776992798;7.345624923706055;-17.635623931884766;-38.92000198364258
2287;0.0;0.0;0.0;0.4001599848270416;-0.3513599932193756;1.1799839735031128;0.0;0.0;0.0
2289;0.0;0.0;0.0;0.37673598527908325;-0.3240320086479187;1.1633919477462769;0.0;0.0;0.0
2291;0.0;0.0;0.0;0.37673598527908325;-0.3123199939727783;1.1555839776992798;0.0;0.0;0.0
2293;0.2642520070075989;-0.18861199915409088;1.0516400337219238;0.37673598527908325;-0.28889599442481995;1.1516799926757812;4.895625114440918;-18.685625076293945;-41.439998626708984
2295;0.0;0.0;0.0;0.3513599932193756;-0.27718400955200195;1.150704026222229;0.0;0.0;0.0
2297;0.0;0.0;0.0;0.34355199337005615;-0.30451199412345886;1.1672959327697754;0.0;0.0;0.0
2299;0.0;0.0;0.0;0.32793599367141724;-0.26156800985336304;1.150704026222229;0.0;0.0;0.0
2301;0.22667600214481354;-0.1483519971370697;1.0474920272827148;0.3396480083465576;-0.27718400955200195;1.150704026222229;2.3056249618530273;-19.245624542236328;-40.810001373291016
2304;0.0;0.0;0.0;0.34355199337005615;-0.27327999472618103;1.1712000370025635;0.0;0.0;0.0
2306;0.0;0.0;0.0;0.3201279938220978;-0.284991979598999;1.158511996269226;0.0;0.0;0.0
2308;0.0;0.0;0.0;0.32793599367141724;-0.2654719948768616;1.1663199663162231;0.0;0.0;0.0
2310;0.20447199046611786;-0.14103199541568756;1.0367560386657715;0.3396480083465576;-0.26156800985336304;1.122399926185608;0.8356250524520874;-16.865625381469727;-42.90999984741211
2312;0.0;0.0;0.0;0.3084160089492798;-0.27718400955200195;1.150704026222229;0.0;0.0;0.0
2314;0.0;0.0;0.0;0.3084160089492798;-0.24595199525356293;1.1624159812927246;0.0;0.0;0.0
2316;0.0;0.0;0.0;0.27327999472618103;-0.24985599517822266;1.146799921989441;0.0;0.0;0.0
2318;0.177387997508049;-0.1256600022315979;1.0313879251480103;0.29280000925064087;-0.230335995554924;1.175104022026062;0.90562504529953;-15.395624160766602;-45.0099983215332
2321;0.0;0.0;0.0;0.2537599802017212;-0.23423999547958374;1.1546080112457275;0.0;0.0;0.0
2323;0.0;0.0;0.0;0.22643199563026428;-0.2147199958562851;1.1956000328063965;0.0;0.0;0.0
2325;0.0;0.0;0.0;0.20691199600696564;-0.187391996383667;1.1916959285736084;0.0;0.0;0.0
2327;0.10589599609375;-0.07612799853086472;1.0601799488067627;0.2147199958562851;-0.19129599630832672;1.1907199621200562;1.0456249713897705;-14.625624656677246;-46.27000045776367
2329;0.0;0.0;0.0;0.20691199600696564;-0.18348799645900726;1.199504017829895;0.0;0.0;0.0
2331;0.0;0.0;0.0;0.15615999698638916;-0.22252799570560455;1.175104022026062;0.0;0.0;0.0
2333;0.0;0.0;0.0;0.16787199676036835;-0.22643199563026428;1.175104022026062;0.0;0.0;0.0
2335;0.052216000854969025;-0.0710039958357811;1.0538359880447388;0.15225599706172943;-0.187391996383667;1.182911992073059;-0.21437500417232513;-13.575624465942383;-48.58000183105469
2338;0.0;0.0;0.0;0.10931199789047241;-0.20691199600696564;1.175104022026062;0.0;0.0;0.0
2340;0.0;0.0;0.0;0.1327359974384308;-0.187391996383667;1.1868159770965576;0.0;0.0;0.0
2342;0.0;0.0;0.0;0.10931199789047241;-0.15615999698638916;1.1956000328063965;0.0;0.0;0.0
2344;-0.006587999872863293;-0.04318799823522568;1.0611560344696045;0.10931199789047241;-0.17958399653434753;1.207311987876892;1.7456250190734863;-14.135624885559082;-48.09000015258789
2346;0.0;0.0;0.0;0.09467199444770813;-0.14054399728775024;1.199504017829895;0.0;0.0;0.0
2348;0.0;0.0;0.0;0.05563199892640114;-0.16787199676036835;1.199504017829895;0.0;0.0;0.0
2350;0.0;0.0;0.0;0.04782399907708168;-0.15615999698638916;1.182911992073059;0.0;0.0;0.0
2352;-0.06270799785852432;-0.026108000427484512;1.0674999952316284;0.05953599885106087;-0.16787199676036835;1.1907199621200562;2.7956249713897705;-15.325624465942383;-47.18000030517578
2355;0.0;0.0;0.0;0.01659199967980385;-0.19910399615764618;1.1624159812927246;0.0;0.0;0.0
2357;0.0;0.0;0.0;0.0009759999811649323;-0.17958399653434753;1.1790080070495605;0.0;0.0;0.0
2359;0.0;0.0;0.0;-0.018543999642133713;-0.16396799683570862;1.1790080070495605;0.0;0.0;0.0
2361;-0.14273999631404877;-0.03001200035214424;1.0482239723205566;-0.03415999934077263;-0.15225599706172943;1.146799921989441;5.245625019073486;-17.285625457763672;-47.95000076293945
2363;0.0;0.0;0.0;-0.058559998869895935;-0.15225599706172943;1.1760799884796143;0.0;0.0;0.0
2365;0.0;0.0;0.0;-0.08198399841785431;-0.1210239976644516;1.1594879627227783;0.0;0.0;0.0
2367;0.0;0.0;0.0;-0.0663679987192154;-0.11711999773979187;1.1633919477462769;0.0;0.0;0.0
2369;-0.19641999900341034;-0.0026839999482035637;1.0416359901428223;-0.07027199864387512;-0.10540799796581268;1.1633919477462769;7.555624961853027;-19.315624237060547;-49.560001373291016
2372;0.0;0.0;0.0;-0.09759999811649323;-0.10150399804115295;1.1633919477462769;0.0;0.0;0.0
2374;0.0;0.0;0.0;-0.0936959981918335;-0.0663679987192154;1.1633919477462769;0.0;0.0;0.0
2376;0.0;0.0;0.0;-0.1327359974384308;-0.05075199902057648;1.1633919477462769;0.0;0.0;0.0
2378;-0.22252799570560455;0.06026799976825714;1.0357799530029297;-0.11711999773979187;-0.03513599932193756;1.1633919477462769;7.625625133514404;-19.80562400817871;-49.4900016784668
2380;0.0;0.0;0.0;-0.1239520013332367;-0.04294399917125702;1.1712000370025635;0.0;0.0;0.0
2382;0.0;0.0;0.0;-0.13566400110721588;-0.03903999924659729;1.158511996269226;0.0;0.0;0.0
2384;0.0;0.0;0.0;-0.15811198949813843;-0.015615999698638916;1.1624159812927246;0.0;0.0;0.0
2386;-0.2622999846935272;0.10467600077390671;1.0377320051193237;-0.18544000387191772;-0.019519999623298645;1.1624159812927246;5.315625190734863;-18.545623779296875;-46.27000045776367
2389;0.0;0.0;0.0;-0.17763200402259827;-0.03513599932193756;1.1624159812927246;0.0;0.0;0.0
2391;0.0;0.0;0.0;-0.19715198874473572;-0.019519999623298645;1.1380159854888916;0.0;0.0;0.0
2393;0.0;0.0;0.0;-0.19324800372123718;-0.04294399917125702;1.1136159896850586;0.0;0.0;0.0
2395;-0.3198840022087097;0.11004399508237839;1.017967939376831;-0.2088640034198761;-0.031231999397277832;1.126304030418396;3.2856249809265137;-17.985624313354492;-41.93000030517578
2397;0.0;0.0;0.0;-0.21374399960041046;0.007807999849319458;1.1311839818954468;0.0;0.0;0.0
2399;0.0;0.0;0.0;-0.25278398394584656;-0.023423999547958374;1.1311839818954468;0.0;0.0;0.0
2401;0.0;0.0;0.0;-0.2566879987716675;-0.023423999547958374;1.1311839818954468;0.0;0.0;0.0
2403;-0.3794199824333191;0.11248400062322617;1.0050359964370728;-0.29572799801826477;0.0;1.1311839818954468;3.005625009536743;-18.33562469482422;-38.36000061035156
2406;0.0;0.0;0.0;-0.30353599786758423;-0.03513599932193756;1.1145919561386108;0.0;0.0;0.0
2408;0.0;0.0;0.0;-0.29572799801826477;-0.007807999849319458;1.1106879711151123;0.0;0.0;0.0
2410;0.0;0.0;0.0;-0.3113439977169037;-0.019519999623298645;1.1311839818954468;0.0;0.0;0.0
2412;-0.42675599455833435;0.11834000051021576;0.9894199967384338;-0.3152479827404022;-0.031231999397277832;1.1145919561386108;3.005625009536743;-20.08562469482422;-36.68000030517578
2414;0.0;0.0;0.0;-0.3142719864845276;0.011711999773979187;1.1145919561386108;0.0;0.0;0.0
2416;0.0;0.0;0.0;-0.3142719864845276;-0.011711999773979187;1.097999930381775;0.0;0.0;0.0
2418;0.0;0.0;0.0;-0.31036800146102905;-0.007807999849319458;1.0940959453582764;0.0;0.0;0.0
2420;-0.43553999066352844;0.1298079937696457;0.9806360006332397;-0.30646398663520813;0.011711999773979187;1.0775039196014404;1.7456250190734863;-22.115625381469727;-35.349998474121094
2423;0.0;0.0;0.0;-0.32598400115966797;0.015615999698638916;1.097999930381775;0.0;0.0;0.0
2425;0.0;0.0;0.0;-0.30646398663520813;0.003903999924659729;1.097999930381775;0.0;0.0;0.0
2427;0.0;0.0;0.0;-0.32207998633384705;0.015615999698638916;1.0901919603347778;0.0;0.0;0.0
2429;-0.43846797943115234;0.14127600193023682;0.9703879952430725;-0.3181760013103485;0.011711999773979187;1.0940959453582764;-0.0043750000186264515;-21.69562530517578;-33.7400016784668
2431;0.0;0.0;0.0;-0.31036800146102905;0.007807999849319458;1.101904034614563;0.0;0.0;0.0
2433;0.0;0.0;0.0;-0.3533119857311249;0.003903999924659729;1.085312008857727;0.0;0.0;0.0
