Timestamp(ms);LG-Accel x(g);LG-Accel y(g);LG-Accel z(g);HG-Accel x(g);HG-Accel y(g);HG-Accel z(g);Gyro x(dps);Gyro y(dps);Gyro z(dps)
74;0.0;0.0;0.0;0.2596159875392914;-0.19324800372123718;1.1594879627227783;0.0;0.0;0.0
77;0.0;0.0;0.0;0.236191987991333;-0.19324800372123718;1.1389919519424438;0.0;0.0;0.0
79;0.0;0.0;0.0;0.22838398814201355;-0.20495998859405518;1.1350879669189453;0.0;0.0;0.0
81;0.0;0.0;0.0;0.24009600281715393;-0.24009600281715393;1.1311839818954468;0.0;0.0;0.0
83;0.0;0.0;0.0;0.2518079876899719;-0.23228800296783447;1.1272799968719482;0.0;0.0;0.0
85;0.0;0.0;0.0;0.20788799226284027;-0.2537599802017212;1.1331360340118408;0.0;0.0;0.0
87;0.0;0.0;0.0;0.21959999203681946;-0.2693759799003601;1.1214239597320557;0.0;0.0;0.0
89;0.0;0.0;0.0;0.19227199256420135;-0.2967039942741394;1.1009279489517212;0.0;0.0;0.0
91;0.08710800111293793;-0.13663999736309052;0.9828319549560547;0.17665599286556244;-0.30451199412345886;1.1214239597320557;0.0;0.0;0.0
93;0.0;0.0;0.0;0.1571359932422638;-0.29280000925064087;1.1048319339752197;0.0;0.0;0.0
96;0.0;0.0;0.0;0.13078400492668152;-0.28889599442481995;1.1380159854888916;0.0;0.0;0.0
98;0.0;0.0;0.0;0.10345599800348282;-0.2654719948768616;1.1702239513397217;0.0;0.0;0.0
100;0.013175999745726585;-0.15323199331760406;0.9974719882011414;0.0878399983048439;-0.2654719948768616;1.1370400190353394;0.0;0.0;0.0
102;0.0;0.0;0.0;0.06441599875688553;-0.2967039942741394;1.1497279405593872;0.0;0.0;0.0
104;0.0;0.0;0.0;0.044895999133586884;-0.2967039942741394;1.1497279405593872;0.0;0.0;0.0
106;0.0;0.0;0.0;0.06441599875688553;-0.3123199939727783;1.1663199663162231;0.0;0.0;0.0
108;-0.054655998945236206;-0.17202000319957733;1.0211399793624878;0.044895999133586884;-0.3123199939727783;1.1536319255828857;0.0;0.0;0.0
111;0.0;0.0;0.0;0.06441599875688553;-0.32793599367141724;1.1780319213867188;0.0;0.0;0.0
113;0.0;0.0;0.0;0.04879999905824661;-0.31622397899627686;1.1780319213867188;0.0;0.0;0.0
115;0.0;0.0;0.0;0.0605119988322258;-0.31622397899627686;1.1819360256195068;0.0;0.0;0.0
117;-0.07197999954223633;-0.18714798986911774;1.0418800115585327;0.040991999208927155;-0.3123199939727783;1.2063360214233398;0.0;0.0;0.0
119;0.0;0.0;0.0;0.04879999905824661;-0.30451199412345886;1.1702239513397217;0.0;0.0;0.0
121;0.0;0.0;0.0;0.029279999434947968;-0.3474559783935547;1.2102400064468384;0.0;0.0;0.0
123;0.0;0.0;0.0;0.05270399898290634;-0.3396480083465576;1.2063360214233398;0.0;0.0;0.0
125;-0.09662400186061859;-0.20081199705600739;1.065303921699524;0.0019519999623298645;-0.3513599932193756;1.214143991470337;0.0;0.0;0.0
127;0.0;0.0;0.0;-0.013663999736309052;-0.35916799306869507;1.2190239429473877;0.0;0.0;0.0
130;0.0;0.0;0.0;-0.0058559998869895935;-0.33183997869491577;1.1985279321670532;0.0;0.0;0.0
132;0.0;0.0;0.0;-0.07222399860620499;-0.3474559783935547;1.2268320322036743;0.0;0.0;0.0
134;-0.15347599983215332;-0.21276798844337463;1.0799440145492554;-0.09857599437236786;-0.35526400804519653;1.2190239429473877;-13.164375305175781;35.31500244140625;12.678750038146973
136;0.0;0.0;0.0;-0.10247999429702759;-0.3630719780921936;1.2424479722976685;0.0;0.0;0.0
138;0.0;0.0;0.0;-0.09467199444770813;-0.3240320086479187;1.2551360130310059;0.0;0.0;0.0
140;0.0;0.0;0.0;-0.06441599875688553;-0.3201279938220978;1.2307360172271729;0.0;0.0;0.0
142;-0.2130119949579239;-0.20495998859405518;1.10971200466156;-0.09857599437236786;-0.3240320086479187;1.2756320238113403;-14.494375228881836;31.115001678466797;0.7087500095367432
145;0.0;0.0;0.0;-0.1180959939956665;-0.33183997869491577;1.2795360088348389;0.0;0.0;0.0
147;0.0;0.0;0.0;-0.1298079937696457;-0.3240320086479187;1.287343978881836;0.0;0.0;0.0
149;0.0;0.0;0.0;-0.13371199369430542;-0.30060797929763794;1.287343978881836;0.0;0.0;0.0
151;-0.24399998784065247;-0.18104799091815948;1.1470439434051514;-0.12199999392032623;-0.284991979598999;1.2795360088348389;-17.504375457763672;22.575000762939453;-12.451250076293945
153;0.0;0.0;0.0;-0.14151999354362488;-0.28889599442481995;1.287343978881836;0.0;0.0;0.0
155;0.0;0.0;0.0;-0.1454239934682846;-0.2810879945755005;1.287343978881836;0.0;0.0;0.0
157;0.0;0.0;0.0;-0.14932799339294434;-0.2967039942741394;1.287343978881836;0.0;0.0;0.0
159;-0.2635200023651123;-0.15811198949813843;1.156559944152832;-0.16494399309158325;-0.28889599442481995;1.3039360046386719;-21.3543758392334;11.514999389648438;-24.841251373291016
162;0.0;0.0;0.0;-0.12590399384498596;-0.284991979598999;1.2590399980545044;0.0;0.0;0.0
164;0.0;0.0;0.0;-0.1298079937696457;-0.284991979598999;1.2590399980545044;0.0;0.0;0.0
166;0.0;0.0;0.0;-0.12199999392032623;-0.2967039942741394;1.2346400022506714;0.0;0.0;0.0
168;-0.2518079876899719;-0.15103599429130554;1.1211799383163452;-0.12199999392032623;-0.284991979598999;1.214143991470337;-23.734375;1.7850000858306885;-34.01124954223633
170;0.0;0.0;0.0;-0.10735999792814255;-0.260591983795166;1.1985279321670532;0.0;0.0;0.0
172;0.0;0.0;0.0;-0.04196799919009209;-0.2683999836444855;1.1858400106430054;0.0;0.0;0.0
174;0.0;0.0;0.0;-0.06929600238800049;-0.26449599862098694;1.1819360256195068;0.0;0.0;0.0
176;-0.2012999951839447;-0.14420399069786072;1.059448003768921;-0.045871999114751816;-0.2683999836444855;1.1575360298156738;-22.754375457763672;-3.4649999141693115;-38.28125
179;0.0;0.0;0.0;-0.014639999717473984;-0.2683999836444855;1.1331360340118408;0.0;0.0;0.0
181;0.0;0.0;0.0;-0.02635199949145317;-0.25278398394584656;1.1458239555358887;0.0;0.0;0.0
183;0.0;0.0;0.0;0.004879999905824661;-0.2683999836444855;1.1458239555358887;0.0;0.0;0.0
185;-0.12639199197292328;-0.12712399661540985;1.0089399814605713;0.01659199967980385;-0.2683999836444855;1.1214239597320557;-18.69437599182129;-2.9049999713897705;-37.37125015258789
187;0.0;0.0;0.0;0.028303999453783035;-0.24887999892234802;1.1048319339752197;0.0;0.0;0.0
189;0.0;0.0;0.0;0.05563199892640114;-0.2449759989976883;1.1175199747085571;0.0;0.0;0.0
191;0.0;0.0;0.0;0.03611199930310249;-0.22545599937438965;1.1253279447555542;0.0;0.0;0.0
193;-0.0634399950504303;-0.10613999515771866;0.9928359985351562;0.0634399950504303;-0.2176479995250702;1.1175199747085571;-13.864375114440918;2.3450000286102295;-32.33124923706055
196;0.0;0.0;0.0;0.11028799414634705;-0.22545599937438965;1.1214239597320557;0.0;0.0;0.0
198;0.0;0.0;0.0;0.1298079937696457;-0.22545599937438965;1.1214239597320557;0.0;0.0;0.0
200;0.0;0.0;0.0;0.09467199444770813;-0.22545599937438965;1.1292319297790527;0.0;0.0;0.0
202;-0.018543999642133713;-0.08832799643278122;0.9886879920959473;0.12199999392032623;-0.22155199944972992;1.1136159896850586;-9.384374618530273;9.904999732971191;-23.231250762939453
204;0.0;0.0;0.0;0.1268799901008606;-0.21081599593162537;1.1175199747085571;0.0;0.0;0.0
206;0.0;0.0;0.0;0.1268799901008606;-0.2030079960823059;1.1175199747085571;0.0;0.0;0.0
208;0.0;0.0;0.0;0.12297599762678146;-0.21862399578094482;1.0970239639282227;0.0;0.0;0.0
210;-0.009759999811649323;-0.08442399650812149;0.9921039938926697;0.10735999792814255;-0.22643199563026428;1.1175199747085571;-4.134374618530273;17.045000076293945;-11.681249618530273
213;0.0;0.0;0.0;0.08393599838018417;-0.2030079960823059;1.1497279405593872;0.0;0.0;0.0
215;0.0;0.0;0.0;0.115167997777462;-0.230335995554924;1.1614400148391724;0.0;0.0;0.0
217;0.0;0.0;0.0;0.07222399860620499;-0.2147199958562851;1.1497279405593872;0.0;0.0;0.0
219;-0.02513200044631958;-0.08710800111293793;1.0201640129089355;0.07222399860620499;-0.23423999547958374;1.1575360298156738;1.6056249141693115;22.365001678466797;0.21875
221;0.0;0.0;0.0;0.05660799890756607;-0.230335995554924;1.1458239555358887;0.0;0.0;0.0
223;0.0;0.0;0.0;0.05270399898290634;-0.24985599517822266;1.1419199705123901;0.0;0.0;0.0
225;0.0;0.0;0.0;0.0605119988322258;-0.2420479953289032;1.1946239471435547;0.0;0.0;0.0
227;-0.062463998794555664;-0.09906399995088577;1.0299240350723267;0.05660799890756607;-0.21862399578094482;1.1780319213867188;6.29562520980835;24.954999923706055;10.158750534057617
230;0.0;0.0;0.0;0.05270399898290634;-0.2576639950275421;1.1780319213867188;0.0;0.0;0.0
232;0.0;0.0;0.0;0.04879999905824661;-0.2693759799003601;1.1858400106430054;0.0;0.0;0.0
234;0.0;0.0;0.0;0.040991999208927155;-0.284991979598999;1.2102400064468384;0.0;0.0;0.0
236;-0.08979199826717377;-0.13346800208091736;1.052616000175476;0.0019519999623298645;-0.27327999472618103;1.2151199579238892;9.795625686645508;24.7450008392334;14.568750381469727
238;0.0;0.0;0.0;0.0019519999623298645;-0.3084160089492798;1.23854398727417;0.0;0.0;0.0
240;0.0;0.0;0.0;0.02537599951028824;-0.3201279938220978;1.2346400022506714;0.0;0.0;0.0
242;0.0;0.0;0.0;-0.0331839993596077;-0.3240320086479187;1.2307360172271729;0.0;0.0;0.0
244;-0.12151199579238892;-0.18226799368858337;1.0906800031661987;-0.05270399898290634;-0.3240320086479187;1.2473279237747192;11.965624809265137;20.33500099182129;14.70875072479248
247;0.0;0.0;0.0;-0.044895999133586884;-0.3669759929180145;1.2346400022506714;0.0;0.0;0.0
249;0.0;0.0;0.0;0.0019519999623298645;-0.35526400804519653;1.2346400022506714;0.0;0.0;0.0
251;0.0;0.0;0.0;-0.0019519999623298645;-0.37088000774383545;1.2190239429473877;0.0;0.0;0.0
253;-0.1285879909992218;-0.22496800124645233;1.0914119482040405;-0.0019519999623298645;-0.3474559783935547;1.1946239471435547;12.805624961853027;12.21500015258789;9.5287504196167
255;0.0;0.0;0.0;0.029279999434947968;-0.4060159921646118;1.1907199621200562;0.0;0.0;0.0
257;0.0;0.0;0.0;0.05270399898290634;-0.34355199337005615;1.1858400106430054;0.0;0.0;0.0
259;0.0;0.0;0.0;0.07222399860620499;-0.35916799306869507;1.1419199705123901;0.0;0.0;0.0
261;-0.07466399669647217;-0.23058000206947327;1.0462720394134521;0.06441599875688553;-0.3669759929180145;1.1536319255828857;13.785625457763672;4.514999866485596;1.1287500858306885
264;0.0;0.0;0.0;0.10735999792814255;-0.374783992767334;1.1253279447555542;0.0;0.0;0.0
266;0.0;0.0;0.0;0.13468798995018005;-0.3474559783935547;1.1419199705123901;0.0;0.0;0.0
268;0.0;0.0;0.0;0.12297599762678146;-0.3240320086479187;1.0970239639282227;0.0;0.0;0.0
270;-0.0058559998869895935;-0.21252399682998657;0.9884439706802368;0.1424959897994995;-0.3240320086479187;1.0843359231948853;15.67562484741211;0.03500001132488251;-5.871250152587891
272;0.0;0.0;0.0;0.13761599361896515;-0.29572799801826477;1.0931199789047241;0.0;0.0;0.0
274;0.0;0.0;0.0;0.15615999698638916;-0.2840159833431244;1.0892159938812256;0.0;0.0;0.0
276;0.0;0.0;0.0;0.14932799339294434;-0.23716799914836884;1.1009279489517212;0.0;0.0;0.0
278;0.02781599946320057;-0.15518400073051453;0.9550159573554993;0.16787199676036835;-0.2566879987716675;1.0843359231948853;17.495624542236328;-1.9249999523162842;-10.141249656677246
281;0.0;0.0;0.0;0.14151999354362488;-0.27620798349380493;1.0726239681243896;0.0;0.0;0.0
283;0.0;0.0;0.0;0.17958399653434753;-0.2683999836444855;1.0482239723205566;0.0;0.0;0.0
285;0.0;0.0;0.0;0.17958399653434753;-0.21374399960041046;1.0560319423675537;0.0;0.0;0.0
287;0.06002400070428848;-0.11589999496936798;0.929639995098114;0.19129599630832672;-0.2449759989976883;1.060912013053894;18.33562469482422;-3.815000057220459;-12.731249809265137
289;0.0;0.0;0.0;0.21862399578094482;-0.2176479995250702;1.0482239723205566;0.0;0.0;0.0
291;0.0;0.0;0.0;0.19910399615764618;-0.19422399997711182;1.0726239681243896;0.0;0.0;0.0
293;0.0;0.0;0.0;0.187391996383667;-0.19422399997711182;1.0560319423675537;0.0;0.0;0.0
295;0.08393599838018417;-0.08051999658346176;0.9147560000419617;0.21862399578094482;-0.205935999751091;1.0482239723205566;18.475624084472656;-5.425000190734863;-13.011249542236328
298;0.0;0.0;0.0;0.2030079960823059;-0.2176479995250702;1.0277279615402222;0.0;0.0;0.0
300;0.0;0.0;0.0;0.22643199563026428;-0.20983999967575073;1.0033279657363892;0.0;0.0;0.0
302;0.0;0.0;0.0;0.23423999547958374;-0.19422399997711182;0.9955199956893921;0.0;0.0;0.0
304;0.11541199684143066;-0.06709999591112137;0.8835240006446838;0.2693759799003601;-0.17080000042915344;1.0238239765167236;16.795623779296875;-6.825000286102295;-14.201250076293945
306;0.0;0.0;0.0;0.2820639908313751;-0.15225599706172943;0.9916160106658936;0.0;0.0;0.0
308;0.0;0.0;0.0;0.30158400535583496;-0.17958399653434753;0.9750239849090576;0.0;0.0;0.0
310;0.0;0.0;0.0;0.3054879903793335;-0.15615999698638916;0.9672159552574158;0.0;0.0;0.0
312;0.18104799091815948;-0.03928399831056595;0.8466799855232239;0.32891198992729187;-0.1600639969110489;0.9467200040817261;15.885624885559082;-5.285000324249268;-14.411250114440918
315;0.0;0.0;0.0;0.3172000050544739;-0.16396799683570862;0.9789279699325562;0.0;0.0;0.0
317;0.0;0.0;0.0;0.35233598947525024;-0.13663999736309052;0.9916160106658936;0.0;0.0;0.0
319;0.0;0.0;0.0;0.31329599022865295;-0.10931199789047241;0.9877119660377502;0.0;0.0;0.0
321;0.1995919942855835;-0.010247999802231789;0.8483879566192627;0.32891198992729187;-0.12492799758911133;0.9711199998855591;15.885624885559082;-3.674999952316284;-10.141249656677246
323;0.0;0.0;0.0;0.2781600058078766;-0.12492799758911133;0.9877119660377502;0.0;0.0;0.0
325;0.0;0.0;0.0;0.28596800565719604;-0.12883199751377106;0.9994239807128906;0.0;0.0;0.0
327;0.0;0.0;0.0;0.3054879903793335;-0.11321599781513214;1.0033279657363892;0.0;0.0;0.0
329;0.18544000387191772;0.0226919986307621;0.8608319759368896;0.2781600058078766;-0.08979199826717377;1.0238239765167236;15.885624885559082;-4.164999961853027;-4.261250019073486
332;0.0;0.0;0.0;0.31329599022865295;-0.10150399804115295;1.0160160064697266;0.0;0.0;0.0
334;0.0;0.0;0.0;0.29767999053001404;-0.08979199826717377;1.0326080322265625;0.0;0.0;0.0
336;0.0;0.0;0.0;0.32891198992729187;-0.08198399841785431;1.0160160064697266;0.0;0.0;0.0
338;0.1878799945116043;0.05197199806571007;0.8857199549674988;0.32891198992729187;-0.08198399841785431;1.0160160064697266;13.435625076293945;-8.4350004196167;1.1987500190734863
340;0.0;0.0;0.0;0.3396480083465576;-0.057583998888731;1.0277279615402222;0.0;0.0;0.0
342;0.0;0.0;0.0;0.35526400804519653;-0.08100800216197968;1.036512017250061;0.0;0.0;0.0
344;0.0;0.0;0.0;0.38259199261665344;-0.06539200246334076;1.036512017250061;0.0;0.0;0.0
347;0.23838800191879272;0.05319199711084366;0.892795979976654;0.38259199261665344;-0.06929600238800049;1.0072319507598877;8.745625495910645;-15.295000076293945;5.678750038146973
349;0.0;0.0;0.0;0.3972319960594177;-0.09272000193595886;1.0033279657363892;0.0;0.0;0.0
351;0.0;0.0;0.0;0.41284799575805664;-0.11224000155925751;1.0082080364227295;0.0;0.0;0.0
353;0.0;0.0;0.0;0.4596959948539734;-0.11614400148391724;1.012112021446228;0.0;0.0;0.0
355;0.30646398663520813;0.019276000559329987;0.8818159699440002;0.4753119945526123;-0.1239520013332367;1.0082080364227295;3.215625047683716;-22.154998779296875;9.038750648498535
357;0.0;0.0;0.0;0.4596959948539734;-0.1239520013332367;0.9955199956893921;0.0;0.0;0.0
359;0.0;0.0;0.0;0.45188799500465393;-0.1512800008058548;1.0033279657363892;0.0;0.0;0.0
361;0.0;0.0;0.0;0.4206559956073761;-0.14737600088119507;0.9789279699325562;0.0;0.0;0.0
364;0.33647599816322327;-0.015371999703347683;0.854487955570221;0.4753119945526123;-0.15908800065517426;0.9750239849090576;-1.1243751049041748;-26.635000228881836;9.948750495910645
366;0.0;0.0;0.0;0.5065439939498901;-0.18251200020313263;0.9750239849090576;0.0;0.0;0.0
368;0.0;0.0;0.0;0.49483197927474976;-0.15518400073051453;0.9594079852104187;0.0;0.0;0.0
370;0.0;0.0;0.0;0.522159993648529;-0.17470400035381317;0.9555040001869202;0.0;0.0;0.0
372;0.3879599869251251;-0.04196799919009209;0.8337479829788208;0.545583963394165;-0.18251200020313263;0.9467200040817261;-4.414374828338623;-29.994998931884766;7.428750038146973
374;0.0;0.0;0.0;0.545583963394165;-0.18641600012779236;0.9545279741287231;0.0;0.0;0.0
376;0.0;0.0;0.0;0.5572959780693054;-0.1668960005044937;0.9350079894065857;0.0;0.0;0.0
378;0.0;0.0;0.0;0.5690079927444458;-0.1786080002784729;0.9184159636497498;0.0;0.0;0.0
381;0.4462759792804718;-0.03757599741220474;0.7995879650115967;0.5846239924430847;-0.1512800008058548;0.9018239974975586;-7.074374675750732;-30.344999313354492;7.008749961853027
383;0.0;0.0;0.0;0.6041439771652222;-0.13566400110721588;0.9184159636497498;0.0;0.0;0.0
385;0.0;0.0;0.0;0.6158559918403625;-0.1512800008058548;0.8940159678459167;0.0;0.0;0.0
387;0.0;0.0;0.0;0.611952006816864;-0.11614400148391724;0.9184159636497498;0.0;0.0;0.0
389;0.4853159785270691;-0.018300000578165054;0.7778719663619995;0.6197599768638611;-0.13566400110721588;0.9145119786262512;-8.264374732971191;-28.594999313354492;9.038750648498535
391;0.0;0.0;0.0;0.6207360029220581;-0.15225599706172943;0.9145119786262512;0.0;0.0;0.0
393;0.0;0.0;0.0;0.6090239882469177;-0.14054399728775024;0.9262239933013916;0.0;0.0;0.0
395;0.0;0.0;0.0;0.6441599726676941;-0.1327359974384308;0.9428159594535828;0.0;0.0;0.0
398;0.513375997543335;-0.018300000578165054;0.7976359724998474;0.6441599726676941;-0.1756799966096878;0.9389119744300842;-9.384374618530273;-28.174999237060547;11.978750228881836
400;0.0;0.0;0.0;0.6441599726676941;-0.17177599668502808;0.9428159594535828;0.0;0.0;0.0
402;0.0;0.0;0.0;0.6744160056114197;-0.1483519971370697;0.9506239891052246;0.0;0.0;0.0
404;0.0;0.0;0.0;0.6822239756584167;-0.1483519971370697;0.9350079894065857;0.0;0.0;0.0
406;0.5297240018844604;-0.027327999472618103;0.806663990020752;0.6548959612846375;-0.16787199676036835;0.9262239933013916;-12.464374542236328;-27.7549991607666;14.288750648498535
408;0.0;0.0;0.0;0.6666079759597778;-0.15615999698638916;0.9184159636497498;0.0;0.0;0.0
410;0.0;0.0;0.0;0.6588000059127808;-0.1483519971370697;0.9145119786262512;0.0;0.0;0.0
412;0.0;0.0;0.0;0.6939359903335571;-0.1756799966096878;0.9262239933013916;0.0;0.0;0.0
415;0.5494880080223083;-0.03513599932193756;0.8027600049972534;0.6636799573898315;-0.187391996383667;0.9467200040817261;-16.524375915527344;-26.28499984741211;17.018749237060547
417;0.0;0.0;0.0;0.6744160056114197;-0.16396799683570862;0.9389119744300842;0.0;0.0;0.0
419;0.0;0.0;0.0;0.6558719873428345;-0.15615999698638916;0.9311040043830872;0.0;0.0;0.0
421;0.0;0.0;0.0;0.6744160056114197;-0.16396799683570862;0.9467200040817261;0.0;0.0;0.0
423;0.5563200116157532;-0.034648001194000244;0.8122760057449341;0.6861279606819153;-0.1756799966096878;0.9555040001869202;-20.724376678466797;-24.46500015258789;19.748748779296875
425;0.0;0.0;0.0;0.6656320095062256;-0.18641600012779236;0.9555040001869202;0.0;0.0;0.0
427;0.0;0.0;0.0;0.6812480092048645;-0.15518400073051453;0.9506239891052246;0.0;0.0;0.0
429;0.0;0.0;0.0;0.685151994228363;-0.17080000042915344;0.9633119702339172;0.0;0.0;0.0
432;0.5492439866065979;-0.03952799737453461;0.8288679718971252;0.6812480092048645;-0.18251200020313263;0.9711199998855591;-24.924375534057617;-22.5049991607666;20.588748931884766
434;0.0;0.0;0.0;0.6617279648780823;-0.18251200020313263;1.0082080364227295;0.0;0.0;0.0
436;0.0;0.0;0.0;0.6812480092048645;-0.18641600012779236;1.0082080364227295;0.0;0.0;0.0
438;0.0;0.0;0.0;0.6890559792518616;-0.1786080002784729;1.0238239765167236;0.0;0.0;0.0
440;0.5492439866065979;-0.05831599980592728;0.8669319748878479;0.6734399795532227;-0.2176479995250702;1.044319987297058;-28.564376831054688;-21.454999923706055;21.638750076293945
442;0.0;0.0;0.0;0.6705119609832764;-0.22252799570560455;1.0316319465637207;0.0;0.0;0.0
444;0.0;0.0;0.0;0.6480640172958374;-0.22252799570560455;1.0482239723205566;0.0;0.0;0.0
446;0.0;0.0;0.0;0.6744160056114197;-0.230335995554924;1.036512017250061;0.0;0.0;0.0
449;0.5529040098190308;-0.1000399962067604;0.9167079925537109;0.6666079759597778;-0.2654719948768616;1.0648159980773926;-32.06437683105469;-21.104999542236328;22.96875
451;0.0;0.0;0.0;0.7173599600791931;-0.3786879777908325;0.9838079810142517;0.0;0.0;0.0
453;0.0;0.0;0.0;0.6861279606819153;-0.26156800985336304;1.0843359231948853;0.0;0.0;0.0
455;0.0;0.0;0.0;0.5504639744758606;-0.284991979598999;1.1136159896850586;0.0;0.0;0.0
457;0.5314319729804993;-0.1600639969110489;0.9523319602012634;0.6392799615859985;-0.27327999472618103;1.1497279405593872;-33.46437454223633;-19.844999313354492;24.298749923706055
459;0.0;0.0;0.0;0.7212640047073364;-0.2967039942741394;1.0970239639282227;0.0;0.0;0.0
461;0.0;0.0;0.0;0.6783199906349182;-0.34355199337005615;1.1136159896850586;0.0;0.0;0.0
463;0.0;0.0;0.0;0.6129279732704163;-0.3240320086479187;1.1253279447555542;0.0;0.0;0.0
466;0.5431439876556396;-0.1983719915151596;0.9921039938926697;0.6939359903335571;-0.4060159921646118;1.1087360382080078;-37.66437530517578;-20.404998779296875;24.088748931884766
468;0.0;0.0;0.0;0.6012159585952759;-0.3630719780921936;1.1087360382080078;0.0;0.0;0.0
470;0.0;0.0;0.0;0.6207360029220581;-0.3786879777908325;1.1175199747085571;0.0;0.0;0.0
472;0.0;0.0;0.0;0.6129279732704163;-0.4021120071411133;1.0970239639282227;0.0;0.0;0.0
474;0.5036159753799438;-0.25912800431251526;0.9608719944953918;0.5934079885482788;-0.42553597688674927;1.0726239681243896;-36.26437759399414;-18.654998779296875;26.678749084472656
476;0.0;0.0;0.0;0.5543680191040039;-0.4411519765853882;1.0726239681243896;0.0;0.0;0.0
478;0.0;0.0;0.0;0.5465599894523621;-0.45286399126052856;1.0560319423675537;0.0;0.0;0.0
480;0.0;0.0;0.0;0.5738880038261414;-0.4450559914112091;1.0599359273910522;0.0;0.0;0.0
483;0.4416399896144867;-0.3193959891796112;0.9401319622993469;0.5387519598007202;-0.49190399050712585;1.0843359231948853;-24.504375457763672;-13.895000457763672;21.778749465942383
485;0.0;0.0;0.0;0.5231360197067261;-0.48799997568130493;1.1087360382080078;0.0;0.0;0.0
487;0.0;0.0;0.0;0.5231360197067261;-0.4958080053329468;1.1087360382080078;0.0;0.0;0.0
489;0.0;0.0;0.0;0.5153279900550842;-0.48019200563430786;1.1136159896850586;0.0;0.0;0.0
491;0.40235599875450134;-0.36917200684547424;0.9762439727783203;0.5270400047302246;-0.5114240050315857;1.1214239597320557;-9.314374923706055;-8.855000495910645;12.258749961853027
493;0.0;0.0;0.0;0.49190399050712585;-0.48799997568130493;1.1985279321670532;0.0;0.0;0.0
495;0.0;0.0;0.0;0.43724799156188965;-0.47628799080848694;1.1946239471435547;0.0;0.0;0.0
497;0.0;0.0;0.0;0.44896000623703003;-0.472383975982666;1.1663199663162231;0.0;0.0;0.0
500;0.34355199337005615;-0.3525799810886383;1.0416359901428223;0.45286399126052856;-0.460671991109848;1.1419199705123901;1.325624942779541;-7.805000305175781;3.5087499618530273
502;0.0;0.0;0.0;0.41870400309562683;-0.49190399050712585;1.1331360340118408;0.0;0.0;0.0
504;0.0;0.0;0.0;0.40991997718811035;-0.472383975982666;1.1458239555358887;0.0;0.0;0.0
506;0.0;0.0;0.0;0.4021120071411133;-0.4567679762840271;1.1458239555358887;0.0;0.0;0.0
508;0.2989000082015991;-0.33647599816322327;0.9991799592971802;0.40991997718811035;-0.42553597688674927;1.1087360382080078;9.025625228881836;-8.085000038146973;-5.941250324249268
510;0.0;0.0;0.0;0.38649600744247437;-0.447983980178833;1.1292319297790527;0.0;0.0;0.0
512;0.0;0.0;0.0;0.35916799306869507;-0.4089439809322357;1.1497279405593872;0.0;0.0;0.0
515;0.0;0.0;0.0;0.4050399959087372;-0.3542879819869995;1.1136159896850586;0.0;0.0;0.0
517;0.2701079845428467;-0.2564440071582794;0.9962520003318787;0.38649600744247437;-0.3269599974155426;1.1292319297790527;16.235624313354492;-7.455000400543213;-16.161251068115234
519;0.0;0.0;0.0;0.37088000774383545;-0.3269599974155426;1.1292319297790527;0.0;0.0;0.0
521;0.0;0.0;0.0;0.3669759929180145;-0.30743998289108276;1.1126400232315063;0.0;0.0;0.0
523;0.0;0.0;0.0;0.3630719780921936;-0.26449599862098694;1.1048319339752197;0.0;0.0;0.0
525;0.25107598304748535;-0.1768999993801117;0.9933239817619324;0.3474559783935547;-0.28011199831962585;1.1175199747085571;21.415624618530273;-6.615000247955322;-20.78125
527;0.0;0.0;0.0;0.3357439935207367;-0.28011199831962585;1.1048319339752197;0.0;0.0;0.0
529;0.0;0.0;0.0;0.34355199337005615;-0.2566879987716675;1.1136159896850586;0.0;0.0;0.0
532;0.0;0.0;0.0;0.3513599932193756;-0.21374399960041046;1.1253279447555542;0.0;0.0;0.0
534;0.2252119928598404;-0.12199999392032623;0.9759999513626099;0.31622397899627686;-0.2176479995250702;1.1292319297790527;24.845624923706055;-4.445000171661377;-20.01125144958496
536;0.0;0.0;0.0;0.2967039942741394;-0.18251200020313263;1.1497279405593872;0.0;0.0;0.0
538;0.0;0.0;0.0;0.23423999547958374;-0.1903200000524521;1.1292319297790527;0.0;0.0;0.0
540;0.0;0.0;0.0;0.230335995554924;-0.15908800065517426;1.1175199747085571;0.0;0.0;0.0
542;0.12126799672842026;-0.06368400156497955;0.9935680031776428;0.19519999623298645;-0.1512800008058548;1.1253279447555542;25.615623474121094;-3.115000009536743;-14.341249465942383
544;0.0;0.0;0.0;0.14151999354362488;-0.14347200095653534;1.1663199663162231;0.0;0.0;0.0
546;0.0;0.0;0.0;0.11419199407100677;-0.18641600012779236;1.1497279405593872;0.0;0.0;0.0
549;0.0;0.0;0.0;0.05172799900174141;-0.1395680010318756;1.1497279405593872;0.0;0.0;0.0
551;-0.011223999783396721;-0.030743999406695366;1.017967939376831;0.05172799900174141;-0.13566400110721588;1.1614400148391724;23.655624389648438;-4.375;-11.4712495803833
553;0.0;0.0;0.0;0.024399999529123306;-0.11614400148391724;1.1819360256195068;0.0;0.0;0.0
555;0.0;0.0;0.0;-0.014639999717473984;-0.09662400186061859;1.2063360214233398;0.0;0.0;0.0
557;0.0;0.0;0.0;-0.0302559994161129;-0.09662400186061859;1.2024319171905518;0.0;0.0;0.0
559;-0.11955999583005905;0.029279999434947968;1.067255973815918;-0.045871999114751816;-0.08881600201129913;1.2551360130310059;18.19562339782715;-7.455000400543213;-11.681249618530273
561;0.0;0.0;0.0;-0.07320000231266022;-0.057583998888731;1.262943983078003;0.0;0.0;0.0
563;0.0;0.0;0.0;-0.07710400223731995;-0.08100800216197968;1.2512320280075073;0.0;0.0;0.0
566;0.0;0.0;0.0;-0.10345599800348282;-0.06539200246334076;1.2512320280075073;0.0;0.0;0.0
568;-0.19129599630832672;0.0680759996175766;1.1145919561386108;-0.06539200246334076;-0.07710400223731995;1.2512320280075073;9.16562557220459;-13.195000648498535;-9.091249465942383
570;0.0;0.0;0.0;-0.07320000231266022;-0.053679998964071274;1.2512320280075073;0.0;0.0;0.0
572;0.0;0.0;0.0;-0.10735999792814255;-0.06148799881339073;1.23854398727417;0.0;0.0;0.0
574;0.0;0.0;0.0;-0.09564799815416336;-0.06929600238800049;1.2473279237747192;0.0;0.0;0.0
576;-0.2164279967546463;0.05904799699783325;1.1084920167922974;-0.10735999792814255;-0.09662400186061859;1.2512320280075073;1.1856249570846558;-18.16499900817871;-3.0712499618530273
578;0.0;0.0;0.0;-0.0878399983048439;-0.0849120020866394;1.2268320322036743;0.0;0.0;0.0
580;0.0;0.0;0.0;-0.09272000193595886;-0.10833600163459778;1.2346400022506714;0.0;0.0;0.0
583;0.0;0.0;0.0;-0.08100800216197968;-0.09272000193595886;1.2346400022506714;0.0;0.0;0.0
585;-0.2117919921875;0.0287919994443655;1.1004400253295898;-0.09272000193595886;-0.12004800140857697;1.2229279279708862;-4.694375038146973;-22.64499855041504;4.208749771118164
587;0.0;0.0;0.0;-0.07710400223731995;-0.10833600163459778;1.1985279321670532;0.0;0.0;0.0
589;0.0;0.0;0.0;-0.07710400223731995;-0.1395680010318756;1.189743995666504;0.0;0.0;0.0
591;0.0;0.0;0.0;-0.08100800216197968;-0.1786080002784729;1.1819360256195068;0.0;0.0;0.0
593;-0.18934398889541626;-0.008051999844610691;1.0587159395217896;-0.06539200246334076;-0.16299200057983398;1.1614400148391724;-8.054374694824219;-23.41499900817871;10.36875057220459
595;0.0;0.0;0.0;-0.07320000231266022;-0.18641600012779236;1.1780319213867188;0.0;0.0;0.0
597;0.0;0.0;0.0;-0.09955199807882309;-0.1903200000524521;1.1663199663162231;0.0;0.0;0.0
600;0.0;0.0;0.0;-0.08881600201129913;-0.20203199982643127;1.1819360256195068;0.0;0.0;0.0
602;-0.21154800057411194;-0.06563600152730942;1.0374879837036133;-0.13468798995018005;-0.24107199907302856;1.1907199621200562;-8.82437515258789;-18.654998779296875;14.428750038146973
604;0.0;0.0;0.0;-0.13078400492668152;-0.2449759989976883;1.1702239513397217;0.0;0.0;0.0
606;0.0;0.0;0.0;-0.1542080044746399;-0.20983999967575073;1.2024319171905518;0.0;0.0;0.0
608;0.0;0.0;0.0;-0.1542080044746399;-0.2566879987716675;1.189743995666504;0.0;0.0;0.0
610;-0.2727919816970825;-0.10613999515771866;1.0589599609375;-0.17763200402259827;-0.2723039984703064;1.2063360214233398;-8.054374694824219;-12.704999923706055;17.158748626708984
612;0.0;0.0;0.0;-0.2205759882926941;-0.24887999892234802;1.2229279279708862;0.0;0.0;0.0
615;0.0;0.0;0.0;-0.22838398814201355;-0.22155199944972992;1.2229279279708862;0.0;0.0;0.0
617;0.0;0.0;0.0;-0.24009600281715393;-0.26449599862098694;1.2512320280075073;0.0;0.0;0.0
619;-0.3350119888782501;-0.12053599953651428;1.0967799425125122;-0.21667200326919556;-0.25278398394584656;1.214143991470337;-7.004374980926514;-9.835000038146973;18.278749465942383
621;0.0;0.0;0.0;-0.2518079876899719;-0.25278398394584656;1.2307360172271729;0.0;0.0;0.0
623;0.0;0.0;0.0;-0.24399998784065247;-0.27620798349380493;1.262943983078003;0.0;0.0;0.0
625;0.0;0.0;0.0;-0.2596159875392914;-0.25278398394584656;1.23854398727417;0.0;0.0;0.0
627;-0.3730759918689728;-0.11980399489402771;1.1189839839935303;-0.2752319872379303;-0.2683999836444855;1.2678239345550537;-5.604374885559082;-8.925000190734863;18.48874855041504
629;0.0;0.0;0.0;-0.2508319914340973;-0.24985599517822266;1.2717279195785522;0.0;0.0;0.0
631;0.0;0.0;0.0;-0.2937760055065155;-0.2420479953289032;1.262943983078003;0.0;0.0;0.0
634;0.0;0.0;0.0;-0.2820639908313751;-0.2810879945755005;1.2551360130310059;0.0;0.0;0.0
636;-0.41333597898483276;-0.13127200305461884;1.1250839233398438;-0.3240320086479187;-0.26156800985336304;1.2590399980545044;-3.924375057220459;-8.855000495910645;18.3487491607666
638;0.0;0.0;0.0;-0.3172000050544739;-0.2810879945755005;1.23854398727417;0.0;0.0;0.0
640;0.0;0.0;0.0;-0.3669759929180145;-0.2810879945755005;1.2346400022506714;0.0;0.0;0.0
642;0.0;0.0;0.0;-0.32891198992729187;-0.2693759799003601;1.2512320280075073;0.0;0.0;0.0
644;-0.4631119966506958;-0.1471319943666458;1.1233760118484497;-0.35233598947525024;-0.27327999472618103;1.2434239387512207;-1.334375023841858;-9.835000038146973;15.758749961853027
646;0.0;0.0;0.0;-0.37966400384902954;-0.28011199831962585;1.287343978881836;0.0;0.0;0.0
648;0.0;0.0;0.0;-0.3757599890232086;-0.2840159833431244;1.2512320280075073;0.0;0.0;0.0
651;0.0;0.0;0.0;-0.37966400384902954;-0.2996319830417633;1.2668479681015015;0.0;0.0;0.0
653;-0.500931978225708;-0.15615999698638916;1.1319159269332886;-0.4030880033969879;-0.29572799801826477;1.2473279237747192;0.8356249928474426;-11.725000381469727;10.998750686645508
655;0.0;0.0;0.0;-0.387472003698349;-0.30353599786758423;1.2551360130310059;0.0;0.0;0.0
657;0.0;0.0;0.0;-0.4030880033969879;-0.29182398319244385;1.2268320322036743;0.0;0.0;0.0
659;0.0;0.0;0.0;-0.39528000354766846;-0.2879199981689453;1.262943983078003;0.0;0.0;0.0
661;-0.5245999693870544;-0.1664080023765564;1.1162999868392944;-0.40699198842048645;-0.3152479827404022;1.2346400022506714;1.8856250047683716;-13.61500072479248;5.328749656677246
663;0.0;0.0;0.0;-0.4421280026435852;-0.27620798349380493;1.2307360172271729;0.0;0.0;0.0
665;0.0;0.0;0.0;-0.39528000354766846;-0.2879199981689453;1.2473279237747192;0.0;0.0;0.0
668;0.0;0.0;0.0;-0.399183988571167;-0.26449599862098694;1.1985279321670532;0.0;0.0;0.0
670;-0.5324079990386963;-0.15347599983215332;1.0909240245819092;-0.4265120029449463;-0.28011199831962585;1.214143991470337;3.075624942779541;-15.155000686645508;0.6387499570846558
672;0.0;0.0;0.0;-0.40699198842048645;-0.25278398394584656;1.2063360214233398;0.0;0.0;0.0
674;0.0;0.0;0.0;-0.4147999882698059;-0.2449759989976883;1.2063360214233398;0.0;0.0;0.0
676;0.0;0.0;0.0;-0.40699198842048645;-0.2566879987716675;1.2063360214233398;0.0;0.0;0.0
678;-0.5402159690856934;-0.12248799949884415;1.0823839902877808;-0.4147999882698059;-0.24887999892234802;1.1946239471435547;3.635624885559082;-15.015000343322754;-3.211250066757202
681;0.0;0.0;0.0;-0.4108960032463074;-0.21374399960041046;1.2190239429473877;0.0;0.0;0.0
682;0.0;0.0;0.0;-0.39528000354766846;-0.2176479995250702;1.1985279321670532;0.0;0.0;0.0
685;0.0;0.0;0.0;-0.4030880033969879;-0.22935999929904938;1.2063360214233398;0.0;0.0;0.0
687;-0.5331400036811829;-0.10199199616909027;1.069451928138733;-0.40699198842048645;-0.21374399960041046;1.189743995666504;1.9556249380111694;-14.805000305175781;-6.641250133514404
689;0.0;0.0;0.0;-0.3601439893245697;-0.20983999967575073;1.1741279363632202;0.0;0.0;0.0
691;0.0;0.0;0.0;-0.39137598872184753;-0.2176479995250702;1.1741279363632202;0.0;0.0;0.0
693;0.0;0.0;0.0;-0.4108960032463074;-0.24107199907302856;1.189743995666504;0.0;0.0;0.0
695;-0.5199639797210693;-0.1000399962067604;1.0438319444656372;-0.3835679888725281;-0.21374399960041046;1.1663199663162231;-0.21437500417232513;-14.735000610351562;-9.511249542236328
698;0.0;0.0;0.0;-0.35624000430107117;-0.24107199907302856;1.1575360298156738;0.0;0.0;0.0
699;0.0;0.0;0.0;-0.3757599890232086;-0.20983999967575073;1.1536319255828857;0.0;0.0;0.0
702;0.0;0.0;0.0;-0.3445279896259308;-0.21374399960041046;1.1136159896850586;0.0;0.0;0.0
704;-0.48726800084114075;-0.09442799538373947;1.009671926498413;-0.32207998633384705;-0.23716799914836884;1.1214239597320557;-1.26437509059906;-14.875;-12.521249771118164
706;0.0;0.0;0.0;-0.32207998633384705;-0.22545599937438965;1.1253279447555542;0.0;0.0;0.0
708;0.0;0.0;0.0;-0.30646398663520813;-0.23716799914836884;1.0931199789047241;0.0;0.0;0.0
710;0.0;0.0;0.0;-0.3181760013103485;-0.24107199907302856;1.0843359231948853;0.0;0.0;0.0
712;-0.4357839822769165;-0.09784399718046188;0.9740479588508606;-0.2869440019130707;-0.23716799914836884;1.0843359231948853;-0.7743750214576721;-12.985000610351562;-15.461249351501465
714;0.0;0.0;0.0;-0.2791360020637512;-0.19812799990177155;1.0726239681243896;0.0;0.0;0.0
717;0.0;0.0;0.0;-0.24399998784065247;-0.2449759989976883;1.0726239681243896;0.0;0.0;0.0
719;0.0;0.0;0.0;-0.24009600281715393;-0.22155199944972992;1.0765279531478882;0.0;0.0;0.0
721;-0.37039199471473694;-0.10223599523305893;0.9420839548110962;-0.2596159875392914;-0.2332639992237091;1.0599359273910522;1.8156249523162842;-8.855000495910645;-16.791250228881836
723;0.0;0.0;0.0;-0.20495998859405518;-0.24887999892234802;1.0648159980773926;0.0;0.0;0.0
725;0.0;0.0;0.0;-0.22838398814201355;-0.2176479995250702;1.060912013053894;0.0;0.0;0.0
727;0.0;0.0;0.0;-0.21667200326919556;-0.2176479995250702;1.044319987297058;0.0;0.0;0.0
729;-0.3350119888782501;-0.08979199826717377;0.9318360090255737;-0.20105600357055664;-0.20203199982643127;1.060912013053894;6.29562520980835;-4.445000171661377;-15.601249694824219
732;0.0;0.0;0.0;-0.2205759882926941;-0.21374399960041046;1.0726239681243896;0.0;0.0;0.0
734;0.0;0.0;0.0;-0.20105600357055664;-0.18641600012779236;1.0560319423675537;0.0;0.0;0.0
736;0.0;0.0;0.0;-0.18934398889541626;-0.21374399960041046;1.0482239723205566;0.0;0.0;0.0
738;-0.32378798723220825;-0.08003199845552444;0.9269559979438782;-0.20495998859405518;-0.22155199944972992;1.060912013053894;9.865625381469727;-0.17499999701976776;-15.461249351501465
740;0.0;0.0;0.0;-0.1815359890460968;-0.19422399997711182;1.060912013053894;0.0;0.0;0.0
742;0.0;0.0;0.0;-0.15030398964881897;-0.2176479995250702;1.060912013053894;0.0;0.0;0.0
744;0.0;0.0;0.0;-0.16201600432395935;-0.21374399960041046;1.0843359231948853;0.0;0.0;0.0
746;-0.2989000082015991;-0.07881199568510056;0.9311040043830872;-0.15811198949813843;-0.21374399960041046;1.0648159980773926;11.895625114440918;3.674999952316284;-17.001251220703125
749;0.0;0.0;0.0;-0.17763200402259827;-0.18641600012779236;1.0648159980773926;0.0;0.0;0.0
751;0.0;0.0;0.0;-0.15030398964881897;-0.19422399997711182;1.0726239681243896;0.0;0.0;0.0
753;0.0;0.0;0.0;-0.16201600432395935;-0.22155199944972992;1.0765279531478882;0.0;0.0;0.0
755;-0.28011199831962585;-0.07466399669647217;0.9403759837150574;-0.13078400492668152;-0.19422399997711182;1.0687199831008911;12.455625534057617;7.524999618530273;-18.4012508392334
757;0.0;0.0;0.0;-0.16201600432395935;-0.22155199944972992;1.0560319423675537;0.0;0.0;0.0
759;0.0;0.0;0.0;-0.17763200402259827;-0.1903200000524521;1.0765279531478882;0.0;0.0;0.0
761;0.0;0.0;0.0;-0.14640000462532043;-0.19422399997711182;1.0804319381713867;0.0;0.0;0.0
763;-0.281576007604599;-0.06661199778318405;0.9557479619979858;-0.1542080044746399;-0.205935999751091;1.0970239639282227;12.66562557220459;10.184999465942383;-18.541250228881836
766;0.0;0.0;0.0;-0.18544000387191772;-0.19422399997711182;1.1136159896850586;0.0;0.0;0.0
768;0.0;0.0;0.0;-0.15811198949813843;-0.18251200020313263;1.0970239639282227;0.0;0.0;0.0
770;0.0;0.0;0.0;-0.1424959897994995;-0.1512800008058548;1.1253279447555542;0.0;0.0;0.0
772;-0.2681559920310974;-0.05441199988126755;0.9716079831123352;-0.13468798995018005;-0.18251200020313263;1.1087360382080078;12.455625534057617;10.394999504089355;-17.841251373291016
774;0.0;0.0;0.0;-0.0878399983048439;-0.16299200057983398;1.1214239597320557;0.0;0.0;0.0
776;0.0;0.0;0.0;-0.09174399822950363;-0.1395680010318756;1.1214239597320557;0.0;0.0;0.0
778;0.0;0.0;0.0;-0.03806399926543236;-0.15518400073051453;1.1214239597320557;0.0;0.0;0.0
780;-0.1995919942855835;-0.03537999838590622;0.9806360006332397;-0.057583998888731;-0.14737600088119507;1.1214239597320557;11.195625305175781;8.925000190734863;-16.301250457763672
783;0.0;0.0;0.0;0.00878399983048439;-0.16299200057983398;1.0970239639282227;0.0;0.0;0.0
785;0.0;0.0;0.0;0.020495999604463577;-0.1512800008058548;1.1048319339752197;0.0;0.0;0.0
787;0.0;0.0;0.0;0.024399999529123306;-0.15908800065517426;1.0970239639282227;0.0;0.0;0.0
789;-0.10150399804115295;-0.023180000483989716;0.9779520034790039;0.04391999915242195;-0.1512800008058548;1.0970239639282227;8.3256254196167;8.574999809265137;-13.78125
791;0.0;0.0;0.0;0.05953599885106087;-0.1395680010318756;1.1136159896850586;0.0;0.0;0.0
793;0.0;0.0;0.0;0.08295999467372894;-0.17470400035381317;1.1087360382080078;0.0;0.0;0.0
795;0.0;0.0;0.0;0.11028799414634705;-0.18641600012779236;1.085312008857727;0.0;0.0;0.0
797;-0.03879600018262863;-0.03001200035214424;0.9747799634933472;0.09467199444770813;-0.18251200020313263;1.0970239639282227;4.825625419616699;10.255000114440918;-10.911250114440918
800;0.0;0.0;0.0;0.08686399459838867;-0.1668960005044937;1.1009279489517212;0.0;0.0;0.0
802;0.0;0.0;0.0;0.09467199444770813;-0.19422399997711182;1.1214239597320557;0.0;0.0;0.0
804;0.0;0.0;0.0;0.11028799414634705;-0.18641600012779236;1.1331360340118408;0.0;0.0;0.0
806;-0.00951599981635809;-0.0500199981033802;0.9840520024299622;0.13371199369430542;-0.17470400035381317;1.1292319297790527;1.675624966621399;11.864999771118164;-8.601249694824219
808;0.0;0.0;0.0;0.11419199407100677;-0.1786080002784729;1.1331360340118408;0.0;0.0;0.0
810;0.0;0.0;0.0;0.13761599361896515;-0.20203199982643127;1.1175199747085571;0.0;0.0;0.0
812;0.0;0.0;0.0;0.11419199407100677;-0.22935999929904938;1.1175199747085571;0.0;0.0;0.0
814;0.009271999821066856;-0.0773480013012886;0.9957639575004578;0.13761599361896515;-0.18251200020313263;1.1536319255828857;-0.3543750047683716;11.864999771118164;-7.621250152587891
817;0.0;0.0;0.0;0.18348799645900726;-0.260591983795166;1.1175199747085571;0.0;0.0;0.0
819;0.0;0.0;0.0;0.16787199676036835;-0.2683999836444855;1.1175199747085571;0.0;0.0;0.0
821;0.0;0.0;0.0;0.15615999698638916;-0.22935999929904938;1.1292319297790527;0.0;0.0;0.0
823;0.043431997299194336;-0.1105320006608963;0.9855159521102905;0.18348799645900726;-0.2566879987716675;1.1048319339752197;-0.8443750143051147;11.654999732971191;-7.761250019073486
825;0.0;0.0;0.0;0.19129599630832672;-0.25278398394584656;1.1175199747085571;0.0;0.0;0.0
827;0.0;0.0;0.0;0.19129599630832672;-0.2332639992237091;1.1136159896850586;0.0;0.0;0.0
829;0.0;0.0;0.0;0.21862399578094482;-0.2683999836444855;1.0804319381713867;0.0;0.0;0.0
831;0.07710400223731995;-0.13224799931049347;0.9735599756240845;0.2147199958562851;-0.26449599862098694;1.1009279489517212;0.9756250381469727;12.704999923706055;-8.321249961853027
834;0.0;0.0;0.0;0.22643199563026428;-0.2683999836444855;1.0804319381713867;0.0;0.0;0.0
836;0.0;0.0;0.0;0.23423999547958374;-0.2449759989976883;1.1331360340118408;0.0;0.0;0.0
838;0.0;0.0;0.0;0.22643199563026428;-0.26449599862098694;1.0970239639282227;0.0;0.0;0.0
840;0.10662800073623657;-0.12809999287128448;0.9735599756240845;0.230335995554924;-0.2879199981689453;1.1175199747085571;3.705625057220459;14.244999885559082;-8.811249732971191
842;0.0;0.0;0.0;0.24985599517822266;-0.2683999836444855;1.1331360340118408;0.0;0.0;0.0
844;0.0;0.0;0.0;0.2693759799003601;-0.25278398394584656;1.1331360340118408;0.0;0.0;0.0
846;0.0;0.0;0.0;0.24985599517822266;-0.22935999929904938;1.1175199747085571;0.0;0.0;0.0
848;0.14176400005817413;-0.11492399871349335;0.9889319539070129;0.2810879945755005;-0.24887999892234802;1.1370400190353394;6.575625419616699;15.295000076293945;-7.971250057220459
851;0.0;0.0;0.0;0.2693759799003601;-0.24107199907302856;1.1009279489517212;0.0;0.0;0.0
853;0.0;0.0;0.0;0.28889599442481995;-0.24887999892234802;1.1370400190353394;0.0;0.0;0.0
855;0.0;0.0;0.0;0.29280000925064087;-0.205935999751091;1.1253279447555542;0.0;0.0;0.0
857;0.1820240020751953;-0.10077200084924698;1.0001559257507324;0.3123199939727783;-0.22155199944972992;1.1331360340118408;9.025625228881836;16.345001220703125;-4.751250267028809
859;0.0;0.0;0.0;0.31622397899627686;-0.19422399997711182;1.1458239555358887;0.0;0.0;0.0
861;0.0;0.0;0.0;0.3201279938220978;-0.22155199944972992;1.1419199705123901;0.0;0.0;0.0
863;0.0;0.0;0.0;0.35916799306869507;-0.22545599937438965;1.1214239597320557;0.0;0.0;0.0
865;0.21667200326919556;-0.09003599733114243;1.0057679414749146;0.3357439935207367;-0.22545599937438965;1.1370400190353394;9.445625305175781;16.76500129699707;-0.3412500023841858
868;0.0;0.0;0.0;0.374783992767334;-0.2332639992237091;1.1253279447555542;0.0;0.0;0.0
870;0.0;0.0;0.0;0.3786879777908325;-0.22155199944972992;1.1175199747085571;0.0;0.0;0.0
872;0.0;0.0;0.0;0.37088000774383545;-0.23716799914836884;1.1370400190353394;0.0;0.0;0.0
874;0.2483920007944107;-0.09589199721813202;0.9969840049743652;0.35526400804519653;-0.22935999929904938;1.1331360340118408;9.935625076293945;16.83500099182129;2.598750114440918
876;0.0;0.0;0.0;0.3786879777908325;-0.22155199944972992;1.1497279405593872;0.0;0.0;0.0
878;0.0;0.0;0.0;0.35526400804519653;-0.21374399960041046;1.1458239555358887;0.0;0.0;0.0
880;0.0;0.0;0.0;0.34355199337005615;-0.23716799914836884;1.1380159854888916;0.0;0.0;0.0
882;0.23009198904037476;-0.09174399822950363;1.012355923652649;0.33183997869491577;-0.23716799914836884;1.1536319255828857;8.045624732971191;15.855000495910645;2.528749942779541
885;0.0;0.0;0.0;0.3669759929180145;-0.22155199944972992;1.1663199663162231;0.0;0.0;0.0
887;0.0;0.0;0.0;0.3474559783935547;-0.24107199907302856;1.1614400148391724;0.0;0.0;0.0
889;0.0;0.0;0.0;0.3240320086479187;-0.22935999929904938;1.1575360298156738;0.0;0.0;0.0
891;0.2227720022201538;-0.09272000193595886;1.0277279615402222;0.3513599932193756;-0.24887999892234802;1.1497279405593872;3.9156248569488525;12.984999656677246;-3.28125
893;0.0;0.0;0.0;0.374783992767334;-0.23716799914836884;1.1253279447555542;0.0;0.0;0.0
895;0.0;0.0;0.0;0.4089439809322357;-0.2449759989976883;1.1458239555358887;0.0;0.0;0.0
897;0.0;0.0;0.0;0.3903999924659729;-0.260591983795166;1.1331360340118408;0.0;0.0;0.0
899;0.26742398738861084;-0.11321599781513214;1.0055240392684937;0.4050399959087372;-0.2449759989976883;1.1370400190353394;-0.004375003278255463;8.925000190734863;-10.63124942779541
902;0.0;0.0;0.0;0.4440799951553345;-0.260591983795166;1.1175199747085571;0.0;0.0;0.0
904;0.0;0.0;0.0;0.4635999798774719;-0.24887999892234802;1.1048319339752197;0.0;0.0;0.0
906;0.0;0.0;0.0;0.47921597957611084;-0.2449759989976883;1.0892159938812256;0.0;0.0;0.0
908;0.3362320065498352;-0.10711599886417389;0.9799039959907532;0.48311999440193176;-0.22545599937438965;1.0892159938812256;-2.174375057220459;6.684999942779541;-14.551249504089355
910;0.0;0.0;0.0;0.4714079797267914;-0.20983999967575073;1.0931199789047241;0.0;0.0;0.0
912;0.0;0.0;0.0;0.5182560086250305;-0.18641600012779236;1.0804319381713867;0.0;0.0;0.0
914;0.0;0.0;0.0;0.4987359941005707;-0.18251200020313263;1.0804319381713867;0.0;0.0;0.0
916;0.38185998797416687;-0.08906000107526779;0.9603840112686157;0.5260639786720276;-0.20983999967575073;1.085312008857727;-2.804375171661377;6.684999942779541;-15.251250267028809
919;0.0;0.0;0.0;0.5182560086250305;-0.205935999751091;1.0765279531478882;0.0;0.0;0.0
921;0.0;0.0;0.0;0.4909279942512512;-0.2176479995250702;1.0726239681243896;0.0;0.0;0.0
923;0.0;0.0;0.0;0.5299679636955261;-0.19422399997711182;1.0804319381713867;0.0;0.0;0.0
925;0.4030880033969879;-0.07710400223731995;0.9515999555587769;0.5299679636955261;-0.21374399960041046;1.0648159980773926;-3.1543750762939453;6.964999675750732;-17.21125030517578
927;0.0;0.0;0.0;0.5260639786720276;-0.18641600012779236;1.0687199831008911;0.0;0.0;0.0
929;0.0;0.0;0.0;0.5494880080223083;-0.21374399960041046;1.0687199831008911;0.0;0.0;0.0
931;0.0;0.0;0.0;0.5651040077209473;-0.22935999929904938;1.1009279489517212;0.0;0.0;0.0
933;0.4323679804801941;-0.09149999916553497;0.9445239901542664;0.5729119777679443;-0.24107199907302856;1.0687199831008911;-2.874375104904175;6.545000076293945;-19.801250457763672
936;0.0;0.0;0.0;0.5963360071182251;-0.22545599937438965;1.0843359231948853;0.0;0.0;0.0
938;0.0;0.0;0.0;0.5729119777679443;-0.24107199907302856;1.060912013053894;0.0;0.0;0.0
940;0.0;0.0;0.0;0.6002399921417236;-0.24107199907302856;1.0521279573440552;0.0;0.0;0.0
942;0.4714079797267914;-0.10199199616909027;0.9318360090255737;0.6041439771652222;-0.22935999929904938;1.036512017250061;-0.8443750143051147;7.315000057220459;-18.33125114440918
944;0.0;0.0;0.0;0.5807200074195862;-0.2176479995250702;1.0482239723205566;0.0;0.0;0.0
946;0.0;0.0;0.0;0.6158559918403625;-0.22545599937438965;1.0277279615402222;0.0;0.0;0.0
948;0.0;0.0;0.0;0.6197599768638611;-0.22545599937438965;1.0521279573440552;0.0;0.0;0.0
950;0.49361199140548706;-0.09052399545907974;0.9154880046844482;0.6158559918403625;-0.23716799914836884;1.0277279615402222;2.515625;8.854999542236328;-16.301250457763672
953;0.0;0.0;0.0;0.6002399921417236;-0.21374399960041046;1.060912013053894;0.0;0.0;0.0
955;0.0;0.0;0.0;0.6314719915390015;-0.17470400035381317;1.0560319423675537;0.0;0.0;0.0
957;0.0;0.0;0.0;0.6080479621887207;-0.1786080002784729;1.0482239723205566;0.0;0.0;0.0
959;0.49361199140548706;-0.07515199482440948;0.9149999618530273;0.6392799615859985;-0.19422399997711182;1.0482239723205566;5.875625133514404;10.324999809265137;-15.181249618530273
961;0.0;0.0;0.0;0.6392799615859985;-0.19812799990177155;1.0765279531478882;0.0;0.0;0.0
963;0.0;0.0;0.0;0.6236639618873596;-0.21374399960041046;1.0521279573440552;0.0;0.0;0.0
965;0.0;0.0;0.0;0.6431840062141418;-0.2176479995250702;1.0277279615402222;0.0;0.0;0.0
967;0.5058119893074036;-0.07978799939155579;0.9191479682922363;0.6197599768638611;-0.22155199944972992;1.0521279573440552;7.415625095367432;10.885000228881836;-17.141250610351562
970;0.0;0.0;0.0;0.6509919762611389;-0.21374399960041046;1.0687199831008911;0.0;0.0;0.0
972;0.0;0.0;0.0;0.6588000059127808;-0.20203199982643127;1.0560319423675537;0.0;0.0;0.0
974;0.0;0.0;0.0;0.6353759765625;-0.205935999751091;1.0482239723205566;0.0;0.0;0.0
976;0.525331974029541;-0.07832399755716324;0.9220759868621826;0.6695359945297241;-0.18641600012779236;1.0482239723205566;8.255624771118164;11.095000267028809;-18.26125144958496
978;0.0;0.0;0.0;0.6734399795532227;-0.17470400035381317;1.0648159980773926;0.0;0.0;0.0
980;0.0;0.0;0.0;0.6392799615859985;-0.17080000042915344;1.0804319381713867;0.0;0.0;0.0
982;0.0;0.0;0.0;0.6578239798545837;-0.15518400073051453;1.0687199831008911;0.0;0.0;0.0
984;0.545583963394165;-0.043431997299194336;0.9257360100746155;0.6539199948310852;-0.15518400073051453;1.0648159980773926;8.67562484741211;11.095000267028809;-18.611249923706055
987;0.0;0.0;0.0;0.6578239798545837;-0.1512800008058548;1.0765279531478882;0.0;0.0;0.0
989;0.0;0.0;0.0;0.6617279648780823;-0.1668960005044937;1.085312008857727;0.0;0.0;0.0
991;0.0;0.0;0.0;0.6734399795532227;-0.14737600088119507;1.0726239681243896;0.0;0.0;0.0
993;0.5387519598007202;-0.020739998668432236;0.9386679530143738;0.6509919762611389;-0.14737600088119507;1.0687199831008911;8.045624732971191;9.764999389648438;-18.26125144958496
995;0.0;0.0;0.0;0.6666079759597778;-0.1239520013332367;1.0648159980773926;0.0;0.0;0.0
997;0.0;0.0;0.0;0.6509919762611389;-0.1395680010318756;1.0843359231948853;0.0;0.0;0.0
999;0.0;0.0;0.0;0.6617279648780823;-0.14737600088119507;1.0892159938812256;0.0;0.0;0.0
1001;0.5482679605484009;-0.008295999839901924;0.9435479640960693;0.6695359945297241;-0.12785600125789642;1.0648159980773926;5.945625305175781;7.384999752044678;-17.561250686645508
1004;0.0;0.0;0.0;0.6812480092048645;-0.1395680010318756;1.0892159938812256;0.0;0.0;0.0
1006;0.0;0.0;0.0;0.6890559792518616;-0.13566400110721588;1.0726239681243896;0.0;0.0;0.0
1008;0.0;0.0;0.0;0.6968640089035034;-0.1239520013332367;1.0931199789047241;0.0;0.0;0.0
1010;0.5660799741744995;0.0009759999811649323;0.9518439769744873;0.6968640089035034;-0.12004800140857697;1.0892159938812256;3.4256250858306885;5.074999809265137;-16.861249923706055
1012;0.0;0.0;0.0;0.6812480092048645;-0.10833600163459778;1.0804319381713867;0.0;0.0;0.0
1014;0.0;0.0;0.0;0.685151994228363;-0.1395680010318756;1.1009279489517212;0.0;0.0;0.0
1016;0.0;0.0;0.0;0.7124800086021423;-0.12004800140857697;1.0726239681243896;0.0;0.0;0.0
1018;0.583404004573822;0.0009759999811649323;0.9518439769744873;0.6890559792518616;-0.11614400148391724;1.0726239681243896;0.4856250286102295;2.765000104904175;-15.811249732971191
1021;0.0;0.0;0.0;0.7046719789505005;-0.1395680010318756;1.1087360382080078;0.0;0.0;0.0
1023;0.0;0.0;0.0;0.7319999933242798;-0.1512800008058548;1.0804319381713867;0.0;0.0;0.0
1025;0.0;0.0;0.0;0.700767993927002;-0.13176000118255615;1.085312008857727;0.0;0.0;0.0
1027;0.5934079885482788;-0.0056119998916983604;0.9437919855117798;0.7163839936256409;-0.15908800065517426;1.0970239639282227;-1.9643750190734863;1.6450001001358032;-14.9712495803833
1029;0.0;0.0;0.0;0.708575963973999;-0.1512800008058548;1.0843359231948853;0.0;0.0;0.0
1031;0.0;0.0;0.0;0.700767993927002;-0.14737600088119507;1.0648159980773926;0.0;0.0;0.0
1033;0.0;0.0;0.0;0.6812480092048645;-0.15908800065517426;1.060912013053894;0.0;0.0;0.0
1035;0.5882840156555176;-0.018055999651551247;0.9430599808692932;0.6929599642753601;-0.15908800065517426;1.0560319423675537;-3.1543750762939453;1.4350000619888306;-14.62125015258789
1038;0.0;0.0;0.0;0.685151994228363;-0.1786080002784729;1.0970239639282227;0.0;0.0;0.0
1040;0.0;0.0;0.0;0.6812480092048645;-0.16299200057983398;1.0931199789047241;0.0;0.0;0.0
1042;0.0;0.0;0.0;0.6890559792518616;-0.15908800065517426;1.0843359231948853;0.0;0.0;0.0
1044;0.5719360113143921;-0.030988000333309174;0.95306396484375;0.685151994228363;-0.15908800065517426;1.0843359231948853;-3.224375009536743;1.2950000762939453;-14.62125015258789
1046;0.0;0.0;0.0;0.6431840062141418;-0.15518400073051453;1.0892159938812256;0.0;0.0;0.0
1048;0.0;0.0;0.0;0.6617279648780823;-0.1786080002784729;1.1214239597320557;0.0;0.0;0.0
1050;0.0;0.0;0.0;0.6314719915390015;-0.15908800065517426;1.0892159938812256;0.0;0.0;0.0
1052;0.5426560044288635;-0.037087999284267426;0.9691680073738098;0.6392799615859985;-0.15908800065517426;1.1292319297790527;-2.664375066757202;1.0850000381469727;-14.831250190734863
1055;0.0;0.0;0.0;0.611952006816864;-0.1668960005044937;1.1087360382080078;0.0;0.0;0.0
1057;0.0;0.0;0.0;0.6353759765625;-0.1903200000524521;1.1136159896850586;0.0;0.0;0.0
1059;0.0;0.0;0.0;0.611952006816864;-0.15908800065517426;1.1175199747085571;0.0;0.0;0.0
1061;0.5038599967956543;-0.03171999752521515;0.985759973526001;0.6275680065155029;-0.15518400073051453;1.1497279405593872;-2.104375123977661;-0.10499999672174454;-15.53125
1063;0.0;0.0;0.0;0.6041439771652222;-0.16299200057983398;1.1370400190353394;0.0;0.0;0.0
1065;0.0;0.0;0.0;0.5651040077209473;-0.17080000042915344;1.1536319255828857;0.0;0.0;0.0
1067;0.0;0.0;0.0;0.5729119777679443;-0.15908800065517426;1.1497279405593872;0.0;0.0;0.0
1070;0.45871999859809875;-0.020739998668432236;1.0113799571990967;0.545583963394165;-0.16299200057983398;1.1985279321670532;-2.104375123977661;-2.134999990463257;-16.791250228881836
1072;0.0;0.0;0.0;0.5494880080223083;-0.13566400110721588;1.1780319213867188;0.0;0.0;0.0
1074;0.0;0.0;0.0;0.545583963394165;-0.12004800140857697;1.1702239513397217;0.0;0.0;0.0
1076;0.0;0.0;0.0;0.5182560086250305;-0.14347200095653534;1.1946239471435547;0.0;0.0;0.0
1078;0.41040799021720886;-0.014151999726891518;1.0389519929885864;0.5104479789733887;-0.14737600088119507;1.189743995666504;-3.0843751430511475;-5.705000400543213;-17.001251220703125
1080;0.0;0.0;0.0;0.5182560086250305;-0.14737600088119507;1.1780319213867188;0.0;0.0;0.0
1082;0.0;0.0;0.0;0.5026400089263916;-0.14347200095653534;1.1819360256195068;0.0;0.0;0.0
1084;0.0;0.0;0.0;0.4909279942512512;-0.18641600012779236;1.1741279363632202;0.0;0.0;0.0
1087;0.3867399990558624;-0.02903600037097931;1.044808030128479;0.47921597957611084;-0.16299200057983398;1.1819360256195068;-4.134374618530273;-9.625;-15.811249732971191
1089;0.0;0.0;0.0;0.4870239794254303;-0.15908800065517426;1.1741279363632202;0.0;0.0;0.0
1091;0.0;0.0;0.0;0.5143519639968872;-0.15908800065517426;1.1536319255828857;0.0;0.0;0.0
1093;0.0;0.0;0.0;0.4987359941005707;-0.19422399997711182;1.1702239513397217;0.0;0.0;0.0
1095;0.3806400001049042;-0.05197199806571007;1.0399279594421387;0.4753119945526123;-0.1903200000524521;1.1907199621200562;-4.344374656677246;-12.494999885559082;-14.481249809265137
1097;0.0;0.0;0.0;0.545583963394165;-0.27620798349380493;1.1087360382080078;0.0;0.0;0.0
1099;0.0;0.0;0.0;0.5104479789733887;-0.2332639992237091;1.1380159854888916;0.0;0.0;0.0
1101;0.0;0.0;0.0;0.4596959948539734;-0.13176000118255615;1.2268320322036743;0.0;0.0;0.0
1103;0.37551599740982056;-0.07539600133895874;1.0321199893951416;0.447983980178833;-0.18641600012779236;1.2190239429473877;-1.614375114440918;-13.125;-13.2212495803833
1106;0.0;0.0;0.0;0.5299679636955261;-0.22155199944972992;1.1614400148391724;0.0;0.0;0.0
1108;0.0;0.0;0.0;0.4987359941005707;-0.2176479995250702;1.1536319255828857;0.0;0.0;0.0
1110;0.0;0.0;0.0;0.5299679636955261;-0.19422399997711182;1.1819360256195068;0.0;0.0;0.0
1112;0.38088399171829224;-0.08295999467372894;1.047003984451294;0.5026400089263916;-0.205935999751091;1.1946239471435547;-1.6843750476837158;-14.385000228881836;-13.361249923706055
1114;0.0;0.0;0.0;0.4596959948539734;-0.24887999892234802;1.1819360256195068;0.0;0.0;0.0
1116;0.0;0.0;0.0;0.4987359941005707;-0.22935999929904938;1.1253279447555542;0.0;0.0;0.0
1118;0.0;0.0;0.0;0.447983980178833;-0.23716799914836884;1.1292319297790527;0.0;0.0;0.0
1121;0.3472119867801666;-0.10174799710512161;1.0187000036239624;0.4440799951553345;-0.2566879987716675;1.1175199747085571;0.9756250381469727;-14.315000534057617;-11.541250228881836
1123;0.0;0.0;0.0;0.4167519807815552;-0.24887999892234802;1.1087360382080078;0.0;0.0;0.0
1125;0.0;0.0;0.0;0.41284799575805664;-0.23716799914836884;1.1253279447555542;0.0;0.0;0.0
1127;0.0;0.0;0.0;0.3669759929180145;-0.2723039984703064;1.0931199789047241;0.0;0.0;0.0
1129;0.28767600655555725;-0.12541599571704865;0.9828319549560547;0.38649600744247437;-0.260591983795166;1.1380159854888916;9.725625038146973;-12.28499984741211;-16.44124984741211
1131;0.0;0.0;0.0;0.3669759929180145;-0.25278398394584656;1.1331360340118408;0.0;0.0;0.0
1133;0.0;0.0;0.0;0.35526400804519653;-0.24887999892234802;1.1702239513397217;0.0;0.0;0.0
1135;0.0;0.0;0.0;0.35526400804519653;-0.22935999929904938;1.1663199663162231;0.0;0.0;0.0
1138;0.24692799150943756;-0.11882799863815308;1.0160160064697266;0.3396480083465576;-0.22935999929904938;1.1741279363632202;18.12562370300293;-10.885000228881836;-21.9012508392334
1140;0.0;0.0;0.0;0.3123199939727783;-0.22155199944972992;1.1780319213867188;0.0;0.0;0.0
1142;0.0;0.0;0.0;0.374783992767334;-0.1786080002784729;1.1819360256195068;0.0;0.0;0.0
1144;0.0;0.0;0.0;0.3201279938220978;-0.19422399997711182;1.1702239513397217;0.0;0.0;0.0
1146;0.2210640013217926;-0.07515199482440948;1.0450519323349;0.29280000925064087;-0.17470400035381317;1.1497279405593872;20.505624771118164;-12.425000190734863;-23.44124984741211
1148;0.0;0.0;0.0;0.2810879945755005;-0.16299200057983398;1.165343999862671;0.0;0.0;0.0
1150;0.0;0.0;0.0;0.2693759799003601;-0.15908800065517426;1.1575360298156738;0.0;0.0;0.0
1152;0.0;0.0;0.0;0.26156800985336304;-0.1668960005044937;1.1614400148391724;0.0;0.0;0.0
1155;0.15689200162887573;-0.029767999425530434;1.0269960165023804;0.23423999547958374;-0.15908800065517426;1.1575360298156738;20.6456241607666;-13.895000457763672;-23.861249923706055
1157;0.0;0.0;0.0;0.22643199563026428;-0.17080000042915344;1.1292319297790527;0.0;0.0;0.0
1159;0.0;0.0;0.0;0.22643199563026428;-0.1395680010318756;1.1536319255828857;0.0;0.0;0.0
1161;0.0;0.0;0.0;0.20691199600696564;-0.12004800140857697;1.1370400190353394;0.0;0.0;0.0
1163;0.09418399631977081;0.0021959999576210976;1.016260027885437;0.19519999623298645;-0.11614400148391724;1.1780319213867188;20.85562515258789;-14.385000228881836;-25.33125114440918
1165;0.0;0.0;0.0;0.19129599630832672;-0.1239520013332367;1.1702239513397217;0.0;0.0;0.0
1167;0.0;0.0;0.0;0.16103999316692352;-0.0849120020866394;1.1741279363632202;0.0;0.0;0.0
1169;0.0;0.0;0.0;0.1571359932422638;-0.0849120020866394;1.189743995666504;0.0;0.0;0.0
1172;0.050995998084545135;0.034648001194000244;1.0438319444656372;0.13371199369430542;-0.0849120020866394;1.1985279321670532;18.545623779296875;-15.085000038146973;-23.931251525878906
1174;0.0;0.0;0.0;0.1180959939956665;-0.057583998888731;1.1858400106430054;0.0;0.0;0.0
1176;0.0;0.0;0.0;0.11419199407100677;-0.057583998888731;1.1858400106430054;0.0;0.0;0.0
1178;0.0;0.0;0.0;0.09857599437236786;-0.049775999039411545;1.1819360256195068;0.0;0.0;0.0
1180;-0.01195599976927042;0.060999996960163116;1.0618879795074463;0.07905599474906921;-0.06148799881339073;1.1946239471435547;13.50562572479248;-17.814998626708984;-20.78125
1182;0.0;0.0;0.0;0.07515199482440948;-0.053679998964071274;1.2102400064468384;0.0;0.0;0.0
1184;0.0;0.0;0.0;0.04001599922776222;-0.06929600238800049;1.1946239471435547;0.0;0.0;0.0
1186;0.0;0.0;0.0;0.0634399950504303;-0.06929600238800049;1.1780319213867188;0.0;0.0;0.0
1189;-0.054899998009204865;0.0697840005159378;1.0589599609375;0.03611199930310249;-0.06539200246334076;1.1907199621200562;8.395625114440918;-21.454999923706055;-16.791250228881836
1191;0.0;0.0;0.0;0.03611199930310249;-0.06539200246334076;1.2063360214233398;0.0;0.0;0.0
1193;0.0;0.0;0.0;0.04391999915242195;-0.057583998888731;1.1868159770965576;0.0;0.0;0.0
1195;0.0;0.0;0.0;0.04391999915242195;-0.053679998964071274;1.1702239513397217;0.0;0.0;0.0
1197;-0.08051999658346176;0.0697840005159378;1.0621320009231567;0.028303999453783035;-0.053679998964071274;1.1907199621200562;3.565624952316284;-24.2549991607666;-11.331250190734863
1199;0.0;0.0;0.0;0.028303999453783035;-0.06929600238800049;1.1819360256195068;0.0;0.0;0.0
1201;0.0;0.0;0.0;0.004879999905824661;-0.06148799881339073;1.2024319171905518;0.0;0.0;0.0
1203;0.0;0.0;0.0;-0.006831999868154526;-0.07710400223731995;1.1985279321670532;0.0;0.0;0.0
1206;-0.11907199770212173;0.05270399898290634;1.0687199831008911;-0.045871999114751816;-0.12004800140857697;1.2102400064468384;-1.1943750381469727;-26.28499984741211;-5.31125020980835
1208;0.0;0.0;0.0;-0.03806399926543236;-0.11224000155925751;1.214143991470337;0.0;0.0;0.0
1210;0.0;0.0;0.0;-0.049775999039411545;-0.11614400148391724;1.2190239429473877;0.0;0.0;0.0
1212;0.0;0.0;0.0;-0.07320000231266022;-0.1239520013332367;1.2102400064468384;0.0;0.0;0.0
1214;-0.17714399099349976;0.024156000465154648;1.0787240266799927;-0.07710400223731995;-0.14737600088119507;1.214143991470337;-6.234375;-28.524999618530273;-1.6012499332427979
1216;0.0;0.0;0.0;-0.07710400223731995;-0.12004800140857697;1.2102400064468384;0.0;0.0;0.0
1218;0.0;0.0;0.0;-0.09272000193595886;-0.14737600088119507;1.1985279321670532;0.0;0.0;0.0
1220;0.0;0.0;0.0;-0.0878399983048439;-0.1512800008058548;1.2024319171905518;0.0;0.0;0.0
1223;-0.20471599698066711;-0.014151999726891518;1.073599934577942;-0.09174399822950363;-0.16299200057983398;1.2063360214233398;-10.9243745803833;-30.764999389648438;-0.8312499523162842
1225;0.0;0.0;0.0;-0.06929600238800049;-0.17080000042915344;1.189743995666504;0.0;0.0;0.0
1227;0.0;0.0;0.0;-0.06929600238800049;-0.17080000042915344;1.1819360256195068;0.0;0.0;0.0
1229;0.0;0.0;0.0;-0.06148799881339073;-0.18641600012779236;1.2063360214233398;0.0;0.0;0.0
1231;-0.20325200259685516;-0.05148399993777275;1.0674999952316284;-0.057583998888731;-0.18641600012779236;1.2102400064468384;-13.514374732971191;-31.53499984741211;-1.1112499237060547
1233;0.0;0.0;0.0;-0.053679998964071274;-0.20203199982643127;1.1946239471435547;0.0;0.0;0.0
1235;0.0;0.0;0.0;-0.09272000193595886;-0.20983999967575073;1.2024319171905518;0.0;0.0;0.0
1237;0.0;0.0;0.0;-0.10052800178527832;-0.22545599937438965;1.2024319171905518;0.0;0.0;0.0
1240;-0.20739999413490295;-0.09272000193595886;1.069208025932312;-0.08100800216197968;-0.22935999929904938;1.214143991470337;-14.14437484741211;-29.924999237060547;-0.3412500023841858
1242;0.0;0.0;0.0;-0.09272000193595886;-0.24107199907302856;1.2063360214233398;0.0;0.0;0.0
1244;0.0;0.0;0.0;-0.12297599762678146;-0.2566879987716675;1.2268320322036743;0.0;0.0;0.0
1246;0.0;0.0;0.0;-0.14640000462532043;-0.25278398394584656;1.2102400064468384;0.0;0.0;0.0
1248;-0.24765999615192413;-0.12029200047254562;1.083847999572754;-0.1698240041732788;-0.2840159833431244;1.2229279279708862;-12.814374923706055;-27.404998779296875;0.7787500619888306
1250;0.0;0.0;0.0;-0.19715198874473572;-0.25278398394584656;1.2268320322036743;0.0;0.0;0.0
1252;0.0;0.0;0.0;-0.2205759882926941;-0.2723039984703064;1.23854398727417;0.0;0.0;0.0
1255;0.0;0.0;0.0;-0.23228800296783447;-0.2723039984703064;1.2590399980545044;0.0;0.0;0.0
1257;-0.3340359926223755;-0.13712799549102783;1.1050759553909302;-0.2791360020637512;-0.27620798349380493;1.2434239387512207;-9.944375038146973;-26.494998931884766;3.088750123977661
1259;0.0;0.0;0.0;-0.2752319872379303;-0.2840159833431244;1.2434239387512207;0.0;0.0;0.0
1261;0.0;0.0;0.0;-0.2752319872379303;-0.3113439977169037;1.2307360172271729;0.0;0.0;0.0
1263;0.0;0.0;0.0;-0.3025600016117096;-0.27620798349380493;1.2434239387512207;0.0;0.0;0.0
1265;-0.39601197838783264;-0.1471319943666458;1.107759952545166;-0.29475200176239014;-0.2879199981689453;1.2229279279708862;-6.444375038146973;-27.474998474121094;5.398749828338623
1267;0.0;0.0;0.0;-0.2752319872379303;-0.2879199981689453;1.2346400022506714;0.0;0.0;0.0
1269;0.0;0.0;0.0;-0.2791360020637512;-0.2840159833431244;1.2434239387512207;0.0;0.0;0.0
1271;0.0;0.0;0.0;-0.2752319872379303;-0.2683999836444855;1.2268320322036743;0.0;0.0;0.0
1274;-0.39942798018455505;-0.14737600088119507;1.1006839275360107;-0.2635200023651123;-0.28011199831962585;1.23854398727417;-3.364375114440918;-27.7549991607666;7.358749866485596
1276;0.0;0.0;0.0;-0.27132800221443176;-0.2879199981689453;1.214143991470337;0.0;0.0;0.0
1278;0.0;0.0;0.0;-0.27132800221443176;-0.29182398319244385;1.2102400064468384;0.0;0.0;0.0
1280;0.0;0.0;0.0;-0.24009600281715393;-0.2840159833431244;1.2229279279708862;0.0;0.0;0.0
1282;-0.38088399171829224;-0.14444799721240997;1.0897040367126465;-0.2635200023651123;-0.29182398319244385;1.2063360214233398;-1.4043750762939453;-26.91499900817871;9.388750076293945
1284;0.0;0.0;0.0;-0.23228800296783447;-0.2566879987716675;1.2102400064468384;0.0;0.0;0.0
1286;0.0;0.0;0.0;-0.25571200251579285;-0.2879199981689453;1.2024319171905518;0.0;0.0;0.0
1289;0.0;0.0;0.0;-0.2596159875392914;-0.28011199831962585;1.1985279321670532;0.0;0.0;0.0
1291;-0.3840560019016266;-0.14444799721240997;1.0753079652786255;-0.26742398738861084;-0.2879199981689453;1.1946239471435547;-1.4743750095367432;-25.44499969482422;10.928750038146973
1293;0.0;0.0;0.0;-0.29865598678588867;-0.2996319830417633;1.2102400064468384;0.0;0.0;0.0
1295;0.0;0.0;0.0;-0.27132800221443176;-0.28011199831962585;1.2024319171905518;0.0;0.0;0.0
1297;0.0;0.0;0.0;-0.2752319872379303;-0.26449599862098694;1.1780319213867188;0.0;0.0;0.0
1299;-0.3921079933643341;-0.15225599706172943;1.0565199851989746;-0.24399998784065247;-0.2879199981689453;1.1702239513397217;-2.9443750381469727;-23.974998474121094;9.948750495910645
1301;0.0;0.0;0.0;-0.2752319872379303;-0.30743998289108276;1.1946239471435547;0.0;0.0;0.0
1303;0.0;0.0;0.0;-0.2596159875392914;-0.2840159833431244;1.1985279321670532;0.0;0.0;0.0
1306;0.0;0.0;0.0;-0.2869440019130707;-0.30743998289108276;1.1702239513397217;0.0;0.0;0.0
1308;-0.39064398407936096;-0.1571359932422638;1.0360239744186401;-0.26742398738861084;-0.2723039984703064;1.1536319255828857;-4.484375;-22.224998474121094;7.568749904632568
1310;0.0;0.0;0.0;-0.26742398738861084;-0.30353599786758423;1.1458239555358887;0.0;0.0;0.0
1312;0.0;0.0;0.0;-0.2635200023651123;-0.29572799801826477;1.1575360298156738;0.0;0.0;0.0
1314;0.0;0.0;0.0;-0.27132800221443176;-0.29182398319244385;1.1380159854888916;0.0;0.0;0.0
1316;-0.3857640027999878;-0.16274799406528473;1.0155279636383057;-0.25571200251579285;-0.30743998289108276;1.1331360340118408;-5.184374809265137;-20.404998779296875;5.538749694824219
1318;0.0;0.0;0.0;-0.236191987991333;-0.3113439977169037;1.1331360340118408;0.0;0.0;0.0
1320;0.0;0.0;0.0;-0.24399998784065247;-0.2996319830417633;1.1380159854888916;0.0;0.0;0.0
1323;0.0;0.0;0.0;-0.21276798844337463;-0.3113439977169037;1.1048319339752197;0.0;0.0;0.0
1325;-0.36038798093795776;-0.1647000014781952;0.9947879910469055;-0.24009600281715393;-0.2996319830417633;1.1136159896850586;-4.134374618530273;-18.44499969482422;3.4387500286102295
1327;0.0;0.0;0.0;-0.20495998859405518;-0.29182398319244385;1.1087360382080078;0.0;0.0;0.0
1329;0.0;0.0;0.0;-0.21667200326919556;-0.2840159833431244;1.1380159854888916;0.0;0.0;0.0
1331;0.0;0.0;0.0;-0.2205759882926941;-0.29182398319244385;1.1087360382080078;0.0;0.0;0.0
1333;-0.333547979593277;-0.15615999698638916;0.9764879941940308;-0.21667200326919556;-0.28011199831962585;1.0970239639282227;-2.034374952316284;-15.4350004196167;1.8287500143051147
1335;0.0;0.0;0.0;-0.21276798844337463;-0.28011199831962585;1.0843359231948853;0.0;0.0;0.0
1337;0.0;0.0;0.0;-0.20495998859405518;-0.2840159833431244;1.1136159896850586;0.0;0.0;0.0
1340;0.0;0.0;0.0;-0.1815359890460968;-0.2566879987716675;1.0765279531478882;0.0;0.0;0.0
1342;-0.32085999846458435;-0.1420079916715622;0.9620919823646545;-0.2088640034198761;-0.2723039984703064;1.1009279489517212;-0.3543750047683716;-12.355000495910645;-0.7612500190734863
1344;0.0;0.0;0.0;-0.20105600357055664;-0.24107199907302856;1.0687199831008911;0.0;0.0;0.0
1346;0.0;0.0;0.0;-0.16591998934745789;-0.26449599862098694;1.0726239681243896;0.0;0.0;0.0
1348;0.0;0.0;0.0;-0.17763200402259827;-0.2332639992237091;1.060912013053894;0.0;0.0;0.0
1350;-0.30109599232673645;-0.1210239976644516;0.9323239922523499;-0.18934398889541626;-0.22155199944972992;1.044319987297058;0.5556250214576721;-8.994999885559082;-4.681250095367432
1352;0.0;0.0;0.0;-0.14640000462532043;-0.23716799914836884;1.044319987297058;0.0;0.0;0.0
1354;0.0;0.0;0.0;-0.15030398964881897;-0.24887999892234802;1.0316319465637207;0.0;0.0;0.0
1357;0.0;0.0;0.0;-0.12297599762678146;-0.19812799990177155;1.0482239723205566;0.0;0.0;0.0
1359;-0.2630319893360138;-0.09418399631977081;0.9071919918060303;-0.13078400492668152;-0.2332639992237091;1.0560319423675537;1.3956249952316284;-4.305000305175781;-8.53125
1361;0.0;0.0;0.0;-0.07710400223731995;-0.19812799990177155;1.019919991493225;0.0;0.0;0.0
1363;0.0;0.0;0.0;-0.12297599762678146;-0.1786080002784729;1.019919991493225;0.0;0.0;0.0
1365;0.0;0.0;0.0;-0.08881600201129913;-0.18251200020313263;1.0560319423675537;0.0;0.0;0.0
1367;-0.22667600214481354;-0.06368400156497955;0.9047519564628601;-0.09955199807882309;-0.18251200020313263;1.0482239723205566;1.8156249523162842;0.24500001966953278;-10.001249313354492
1369;0.0;0.0;0.0;-0.09174399822950363;-0.15518400073051453;1.0277279615402222;0.0;0.0;0.0
1371;0.0;0.0;0.0;-0.0849120020866394;-0.14737600088119507;1.0277279615402222;0.0;0.0;0.0
1374;0.0;0.0;0.0;-0.08100800216197968;-0.15908800065517426;1.019919991493225;0.0;0.0;0.0
1376;-0.21325600147247314;-0.02757199853658676;0.9040200114250183;-0.10345599800348282;-0.15908800065517426;1.044319987297058;1.7456250190734863;4.024999618530273;-9.7212495803833
1378;0.0;0.0;0.0;-0.08100800216197968;-0.1512800008058548;1.019919991493225;0.0;0.0;0.0
1380;0.0;0.0;0.0;-0.07710400223731995;-0.1395680010318756;1.0160160064697266;0.0;0.0;0.0
1382;0.0;0.0;0.0;-0.07710400223731995;-0.1512800008058548;1.0482239723205566;0.0;0.0;0.0
1384;-0.19519999623298645;-0.003903999924659729;0.9103639721870422;-0.03806399926543236;-0.12004800140857697;1.0404160022735596;0.5556250214576721;7.034999847412109;-7.831250190734863
1386;0.0;0.0;0.0;-0.07710400223731995;-0.1239520013332367;1.0277279615402222;0.0;0.0;0.0
1388;0.0;0.0;0.0;-0.049775999039411545;-0.11614400148391724;1.0277279615402222;0.0;0.0;0.0
1391;0.0;0.0;0.0;-0.04196799919009209;-0.14347200095653534;1.0560319423675537;0.0;0.0;0.0
1393;-0.1647000014781952;-0.0004879999905824661;0.9169519543647766;-0.04196799919009209;-0.12785600125789642;1.0482239723205566;-1.614375114440918;10.184999465942383;-4.051249980926514
1395;0.0;0.0;0.0;-0.02635199949145317;-0.14347200095653534;1.0482239723205566;0.0;0.0;0.0
1397;0.0;0.0;0.0;-0.010735999792814255;-0.1512800008058548;1.044319987297058;0.0;0.0;0.0
1399;0.0;0.0;0.0;-0.010735999792814255;-0.14347200095653534;1.0648159980773926;0.0;0.0;0.0
1401;-0.13981199264526367;-0.009271999821066856;0.9264679551124573;0.004879999905824661;-0.15518400073051453;1.0599359273910522;-3.854375123977661;12.984999656677246;0.35875001549720764
1403;0.0;0.0;0.0;0.0009759999811649323;-0.14737600088119507;1.0521279573440552;0.0;0.0;0.0
1405;0.0;0.0;0.0;0.0009759999811649323;-0.1512800008058548;1.0804319381713867;0.0;0.0;0.0
1408;0.0;0.0;0.0;0.024399999529123306;-0.1668960005044937;1.060912013053894;0.0;0.0;0.0
1410;-0.11663199961185455;-0.023180000483989716;0.9364719986915588;0.032207999378442764;-0.1668960005044937;1.0931199789047241;-5.534374713897705;14.875;3.9987499713897705
1412;0.0;0.0;0.0;0.032207999378442764;-0.1668960005044937;1.0804319381713867;0.0;0.0;0.0
1414;0.0;0.0;0.0;0.01268799975514412;-0.17080000042915344;1.0765279531478882;0.0;0.0;0.0
1416;0.0;0.0;0.0;0.05953599885106087;-0.1786080002784729;1.0970239639282227;0.0;0.0;0.0
1418;-0.07832399755716324;-0.04318799823522568;0.9513559937477112;0.03611199930310249;-0.18641600012779236;1.0726239681243896;-6.584374904632568;16.55500030517578;7.008749961853027
1420;0.0;0.0;0.0;0.05563199892640114;-0.22155199944972992;1.1009279489517212;0.0;0.0;0.0
1422;0.0;0.0;0.0;0.08295999467372894;-0.20203199982643127;1.1087360382080078;0.0;0.0;0.0
1425;0.0;0.0;0.0;0.09467199444770813;-0.21374399960041046;1.0970239639282227;0.0;0.0;0.0
1427;-0.04172400012612343;-0.06661199778318405;0.9657520055770874;0.07515199482440948;-0.20983999967575073;1.1087360382080078;-7.424375057220459;18.235000610351562;9.388750076293945
1429;0.0;0.0;0.0;0.11028799414634705;-0.2176479995250702;1.1175199747085571;0.0;0.0;0.0
1431;0.0;0.0;0.0;0.12199999392032623;-0.22155199944972992;1.1126400232315063;0.0;0.0;0.0
1433;0.0;0.0;0.0;0.10638399422168732;-0.20983999967575073;1.1175199747085571;0.0;0.0;0.0
1435;-0.019276000559329987;-0.08564399927854538;0.9813680052757263;0.09857599437236786;-0.21374399960041046;1.1419199705123901;-8.264374732971191;19.42500114440918;10.018750190734863
1438;0.0;0.0;0.0;0.1298079937696457;-0.26449599862098694;1.1370400190353394;0.0;0.0;0.0
1439;0.0;0.0;0.0;0.1298079937696457;-0.2332639992237091;1.1419199705123901;0.0;0.0;0.0
1442;0.0;0.0;0.0;0.1298079937696457;-0.24887999892234802;1.1497279405593872;0.0;0.0;0.0
1444;-0.004391999915242195;-0.11077599972486496;0.9955199956893921;0.13371199369430542;-0.25278398394584656;1.1214239597320557;-8.684374809265137;19.565000534057617;8.898750305175781
1446;0.0;0.0;0.0;0.1454239934682846;-0.26449599862098694;1.1214239597320557;0.0;0.0;0.0
1448;0.0;0.0;0.0;0.14932799339294434;-0.25278398394584656;1.1253279447555542;0.0;0.0;0.0
1450;0.0;0.0;0.0;0.16787199676036835;-0.23716799914836884;1.1087360382080078;0.0;0.0;0.0
1452;0.022204000502824783;-0.12809999287128448;0.9906399846076965;0.15323199331760406;-0.260591983795166;1.1175199747085571;-8.194375038146973;18.935001373291016;6.798749923706055
1455;0.0;0.0;0.0;0.17958399653434753;-0.260591983795166;1.1175199747085571;0.0;0.0;0.0
1456;0.0;0.0;0.0;0.19129599630832672;-0.24887999892234802;1.1175199747085571;0.0;0.0;0.0
1459;0.0;0.0;0.0;0.21862399578094482;-0.26449599862098694;1.1009279489517212;0.0;0.0;0.0
1461;0.07295599579811096;-0.12517200410366058;0.9740479588508606;0.21862399578094482;-0.26449599862098694;1.0970239639282227;-6.86437463760376;18.655000686645508;4.908749580383301
1463;0.0;0.0;0.0;0.24595199525356293;-0.26449599862098694;1.1009279489517212;0.0;0.0;0.0
1465;0.0;0.0;0.0;0.2537599802017212;-0.2723039984703064;1.1175199747085571;0.0;0.0;0.0
1467;0.0;0.0;0.0;0.2576639950275421;-0.260591983795166;1.1253279447555542;0.0;0.0;0.0
1469;0.12761199474334717;-0.12443999946117401;0.966484010219574;0.2576639950275421;-0.260591983795166;1.0765279531478882;-4.904374599456787;19.845001220703125;3.648750066757202
1471;0.0;0.0;0.0;0.3123199939727783;-0.2566879987716675;1.0765279531478882;0.0;0.0;0.0
1474;0.0;0.0;0.0;0.284991979598999;-0.205935999751091;1.1087360382080078;0.0;0.0;0.0
1476;0.0;0.0;0.0;0.29280000925064087;-0.18251200020313263;1.1009279489517212;0.0;0.0;0.0
1478;0.1698240041732788;-0.07807999849319458;0.9752680063247681;0.2654719948768616;-0.14737600088119507;1.1419199705123901;-3.364375114440918;21.2450008392334;4.908749580383301
1480;0.0;0.0;0.0;0.31622397899627686;-0.22155199944972992;1.0804319381713867;0.0;0.0;0.0
1482;0.0;0.0;0.0;0.32793599367141724;-0.2176479995250702;1.0482239723205566;0.0;0.0;0.0
1484;0.0;0.0;0.0;0.2967039942741394;-0.12004800140857697;1.1136159896850586;0.0;0.0;0.0
1486;0.19227199256420135;-0.05319199711084366;0.9677039980888367;0.30451199412345886;-0.13176000118255615;1.1370400190353394;-3.29437518119812;21.385000228881836;6.868749618530273
1489;0.0;0.0;0.0;0.3396480083465576;-0.15908800065517426;1.1292319297790527;0.0;0.0;0.0
1491;0.0;0.0;0.0;0.3357439935207367;-0.15908800065517426;1.1048319339752197;0.0;0.0;0.0
1493;0.0;0.0;0.0;0.3357439935207367;-0.13176000118255615;1.1497279405593872;0.0;0.0;0.0
1495;0.20569199323654175;-0.013175999745726585;0.9925919771194458;0.3201279938220978;-0.12004800140857697;1.1497279405593872;-6.164374828338623;20.825000762939453;9.248750686645508
1497;0.0;0.0;0.0;0.3357439935207367;-0.15908800065517426;1.1214239597320557;0.0;0.0;0.0
1499;0.0;0.0;0.0;0.34355199337005615;-0.15908800065517426;1.1087360382080078;0.0;0.0;0.0
1501;0.0;0.0;0.0;0.3669759929180145;-0.19422399997711182;1.1087360382080078;0.0;0.0;0.0
1503;0.22740799188613892;-0.028060000389814377;0.9886879920959473;0.38649600744247437;-0.19422399997711182;1.1175199747085571;-11.554374694824219;18.44500160217285;7.428750038146973
1506;0.0;0.0;0.0;0.42163199186325073;-0.20203199982643127;1.0843359231948853;0.0;0.0;0.0
1508;0.0;0.0;0.0;0.4021120071411133;-0.19812799990177155;1.0843359231948853;0.0;0.0;0.0
1510;0.0;0.0;0.0;0.4167519807815552;-0.2449759989976883;1.060912013053894;0.0;0.0;0.0
1512;0.2962159812450409;-0.07539600133895874;0.944767951965332;0.4167519807815552;-0.2566879987716675;1.0765279531478882;-13.374375343322754;17.885000228881836;4.418749809265137
1514;0.0;0.0;0.0;0.45579198002815247;-0.23716799914836884;1.044319987297058;0.0;0.0;0.0
1516;0.0;0.0;0.0;0.4635999798774719;-0.2566879987716675;1.060912013053894;0.0;0.0;0.0
1518;0.0;0.0;0.0;0.47921597957611084;-0.22545599937438965;1.036512017250061;0.0;0.0;0.0
1520;0.34135597944259644;-0.10809199512004852;0.9118279814720154;0.4714079797267914;-0.2332639992237091;1.0277279615402222;-10.014374732971191;20.05500030517578;4.698750019073486
1523;0.0;0.0;0.0;0.4909279942512512;-0.2449759989976883;1.044319987297058;0.0;0.0;0.0
1525;0.0;0.0;0.0;0.5143519639968872;-0.24887999892234802;1.044319987297058;0.0;0.0;0.0
1527;0.0;0.0;0.0;0.5104479789733887;-0.205935999751091;1.0482239723205566;0.0;0.0;0.0
1529;0.3803959786891937;-0.0832040011882782;0.9108519554138184;0.5494880080223083;-0.17080000042915344;1.0404160022735596;-3.924375057220459;22.92500114440918;5.398749828338623
1531;0.0;0.0;0.0;0.5260639786720276;-0.1903200000524521;1.0648159980773926;0.0;0.0;0.0
1533;0.0;0.0;0.0;0.5104479789733887;-0.1786080002784729;1.0560319423675537;0.0;0.0;0.0
1535;0.0;0.0;0.0;0.5260639786720276;-0.15908800065517426;1.0765279531478882;0.0;0.0;0.0
1537;0.40577200055122375;-0.04904399812221527;0.933788001537323;0.537775993347168;-0.1668960005044937;1.0521279573440552;1.0456249713897705;24.535001754760742;6.448750019073486
1540;0.0;0.0;0.0;0.522159993648529;-0.1668960005044937;1.0482239723205566;0.0;0.0;0.0
1542;0.0;0.0;0.0;0.561199963092804;-0.16299200057983398;1.0726239681243896;0.0;0.0;0.0
1544;0.0;0.0;0.0;0.5651040077209473;-0.1512800008058548;1.060912013053894;0.0;0.0;0.0
1546;0.4304159879684448;-0.04440800100564957;0.9298839569091797;0.561199963092804;-0.18251200020313263;1.0521279573440552;3.4256250858306885;24.954999923706055;8.05875015258789
1548;0.0;0.0;0.0;0.5651040077209473;-0.17080000042915344;1.0482239723205566;0.0;0.0;0.0
1550;0.0;0.0;0.0;0.5494880080223083;-0.20983999967575073;1.060912013053894;0.0;0.0;0.0
1552;0.0;0.0;0.0;0.5651040077209473;-0.18251200020313263;1.044319987297058;0.0;0.0;0.0
1554;0.4450559914112091;-0.04782399907708168;0.9237839579582214;0.5690079927444458;-0.18641600012779236;1.0648159980773926;5.175625324249268;25.655000686645508;8.758749961853027
1557;0.0;0.0;0.0;0.5846239924430847;-0.1903200000524521;1.0404160022735596;0.0;0.0;0.0
1559;0.0;0.0;0.0;0.5924319624900818;-0.19422399997711182;1.060912013053894;0.0;0.0;0.0
1561;0.0;0.0;0.0;0.6080479621887207;-0.1668960005044937;1.0521279573440552;0.0;0.0;0.0
1563;0.47091999650001526;-0.04879999905824661;0.9306159615516663;0.5885279774665833;-0.1786080002784729;1.0726239681243896;7.485625267028809;26.35500144958496;9.80875015258789
1565;0.0;0.0;0.0;0.5885279774665833;-0.15908800065517426;1.0560319423675537;0.0;0.0;0.0
1567;0.0;0.0;0.0;0.6236639618873596;-0.1512800008058548;1.0765279531478882;0.0;0.0;0.0
1569;0.0;0.0;0.0;0.6158559918403625;-0.17470400035381317;1.0521279573440552;0.0;0.0;0.0
1571;0.4958080053329468;-0.03660000115633011;0.9406200051307678;0.611952006816864;-0.18251200020313263;1.0648159980773926;9.445625305175781;25.795000076293945;10.71875
1574;0.0;0.0;0.0;0.6197599768638611;-0.1512800008058548;1.0892159938812256;0.0;0.0;0.0
1576;0.0;0.0;0.0;0.6353759765625;-0.15908800065517426;1.085312008857727;0.0;0.0;0.0
1578;0.0;0.0;0.0;0.6734399795532227;-0.15908800065517426;1.0648159980773926;0.0;0.0;0.0
1580;0.5267959833145142;-0.024887999519705772;0.9420839548110962;0.6422079801559448;-0.16299200057983398;1.0687199831008911;10.215624809265137;24.395000457763672;9.948750495910645
1582;0.0;0.0;0.0;0.6695359945297241;-0.13566400110721588;1.0599359273910522;0.0;0.0;0.0
1584;0.0;0.0;0.0;0.6812480092048645;-0.14737600088119507;1.0560319423675537;0.0;0.0;0.0
1586;0.0;0.0;0.0;0.6773439645767212;-0.15518400073051453;1.0648159980773926;0.0;0.0;0.0
1588;0.5592479705810547;-0.019276000559329987;0.9406200051307678;0.6929599642753601;-0.1668960005044937;1.0687199831008911;9.235625267028809;23.065000534057617;9.80875015258789
1591;0.0;0.0;0.0;0.6773439645767212;-0.14347200095653534;1.0970239639282227;0.0;0.0;0.0
1593;0.0;0.0;0.0;0.6812480092048645;-0.14347200095653534;1.0931199789047241;0.0;0.0;0.0
1595;0.0;0.0;0.0;0.6656320095062256;-0.14737600088119507;1.0687199831008911;0.0;0.0;0.0
1597;0.5570520162582397;-0.008295999839901924;0.941107988357544;0.685151994228363;-0.10833600163459778;1.0726239681243896;6.925625324249268;21.035001754760742;8.408750534057617
1599;0.0;0.0;0.0;0.6578239798545837;-0.1395680010318756;1.0560319423675537;0.0;0.0;0.0
1601;0.0;0.0;0.0;0.6734399795532227;-0.14347200095653534;1.0521279573440552;0.0;0.0;0.0
1603;0.0;0.0;0.0;0.6890559792518616;-0.13176000118255615;1.0648159980773926;0.0;0.0;0.0
1605;0.5655919909477234;-0.007563999854028225;0.9386679530143738;0.6773439645767212;-0.14737600088119507;1.0726239681243896;3.8456249237060547;17.46500015258789;4.838749885559082
1608;0.0;0.0;0.0;0.7163839936256409;-0.1395680010318756;1.0560319423675537;0.0;0.0;0.0
1610;0.0;0.0;0.0;0.7280960083007812;-0.13566400110721588;1.0726239681243896;0.0;0.0;0.0
1612;0.0;0.0;0.0;0.7202879786491394;-0.15518400073051453;1.0560319423675537;0.0;0.0;0.0
1614;0.6007279753684998;-0.011711999773979187;0.9247599840164185;0.7398079633712769;-0.1395680010318756;1.044319987297058;1.2556250095367432;13.96500015258789;1.2687500715255737
1616;0.0;0.0;0.0;0.7241919636726379;-0.14347200095653534;1.044319987297058;0.0;0.0;0.0
1618;0.0;0.0;0.0;0.7476159930229187;-0.1512800008058548;1.0277279615402222;0.0;0.0;0.0
1620;0.0;0.0;0.0;0.7398079633712769;-0.15908800065517426;1.036512017250061;0.0;0.0;0.0
1622;0.6319599747657776;-0.007563999854028225;0.9101200103759766;0.774944007396698;-0.1239520013332367;1.0316319465637207;-0.3543750047683716;12.21500015258789;-1.53125
1625;0.0;0.0;0.0;0.7866559624671936;-0.1239520013332367;1.0316319465637207;0.0;0.0;0.0
1627;0.0;0.0;0.0;0.7827519774436951;-0.1395680010318756;1.0160160064697266;0.0;0.0;0.0
1629;0.0;0.0;0.0;0.7788479924201965;-0.13566400110721588;1.0277279615402222;0.0;0.0;0.0
1631;0.6585559844970703;-0.013419999741017818;0.9020679593086243;0.7515199780464172;-0.16299200057983398;1.019919991493225;-0.8443750143051147;11.795000076293945;-2.651249885559082
1633;0.0;0.0;0.0;0.7593280076980591;-0.17080000042915344;1.019919991493225;0.0;0.0;0.0
1635;0.0;0.0;0.0;0.7632319927215576;-0.16299200057983398;1.0160160064697266;0.0;0.0;0.0
1637;0.0;0.0;0.0;0.7671359777450562;-0.17080000042915344;1.0404160022735596;0.0;0.0;0.0
1639;0.6512359976768494;-0.02659599855542183;0.9006040096282959;0.7319999933242798;-0.1512800008058548;1.0277279615402222;-0.28437501192092896;12.425000190734863;-1.8112499713897705
1642;0.0;0.0;0.0;0.7280960083007812;-0.17080000042915344;1.019919991493225;0.0;0.0;0.0
1644;0.0;0.0;0.0;0.7515199780464172;-0.15518400073051453;1.0238239765167236;0.0;0.0;0.0
1646;0.0;0.0;0.0;0.7280960083007812;-0.13566400110721588;1.0316319465637207;0.0;0.0;0.0
1648;0.6236639618873596;-0.030743999406695366;0.90938800573349;0.7398079633712769;-0.1512800008058548;1.0404160022735596;0.90562504529953;12.914999961853027;-0.48125001788139343
1650;0.0;0.0;0.0;0.7124800086021423;-0.1786080002784729;1.044319987297058;0.0;0.0;0.0
1652;0.0;0.0;0.0;0.7124800086021423;-0.14737600088119507;1.0687199831008911;0.0;0.0;0.0
1654;0.0;0.0;0.0;0.7046719789505005;-0.1512800008058548;1.0687199831008911;0.0;0.0;0.0
1656;0.6002399921417236;-0.029523998498916626;0.9271999597549438;0.7046719789505005;-0.17080000042915344;1.0648159980773926;2.585624933242798;12.354999542236328;0.7787500619888306
1659;0.0;0.0;0.0;0.700767993927002;-0.15518400073051453;1.0521279573440552;0.0;0.0;0.0
1661;0.0;0.0;0.0;0.6929599642753601;-0.1395680010318756;1.0892159938812256;0.0;0.0;0.0
1663;0.0;0.0;0.0;0.6890559792518616;-0.1512800008058548;1.0765279531478882;0.0;0.0;0.0
1665;0.5697399973869324;-0.03171999752521515;0.9474520087242126;0.7046719789505005;-0.1668960005044937;1.1087360382080078;3.9156248569488525;10.885000228881836;2.668750047683716
1667;0.0;0.0;0.0;0.6656320095062256;-0.17470400035381317;1.0970239639282227;0.0;0.0;0.0
1669;0.0;0.0;0.0;0.6548959612846375;-0.18641600012779236;1.1136159896850586;0.0;0.0;0.0
1671;0.0;0.0;0.0;0.6470879912376404;-0.1512800008058548;1.0804319381713867;0.0;0.0;0.0
1673;0.5297240018844604;-0.03513599932193756;0.9711199998855591;0.6080479621887207;-0.16299200057983398;1.1048319339752197;4.335625171661377;8.505000114440918;4.628749847412109
1676;0.0;0.0;0.0;0.6158559918403625;-0.15518400073051453;1.1214239597320557;0.0;0.0;0.0
1678;0.0;0.0;0.0;0.6236639618873596;-0.17080000042915344;1.1458239555358887;0.0;0.0;0.0
1680;0.0;0.0;0.0;0.5963360071182251;-0.17080000042915344;1.1214239597320557;0.0;0.0;0.0
1682;0.48482799530029297;-0.03660000115633011;1.0006439685821533;0.5807200074195862;-0.1903200000524521;1.1497279405593872;3.075624942779541;4.514999866485596;5.678750038146973
1684;0.0;0.0;0.0;0.5807200074195862;-0.1512800008058548;1.1419199705123901;0.0;0.0;0.0
1686;0.0;0.0;0.0;0.5807200074195862;-0.18251200020313263;1.1702239513397217;0.0;0.0;0.0
1688;0.0;0.0;0.0;0.5924319624900818;-0.1903200000524521;1.1458239555358887;0.0;0.0;0.0
1690;0.460671991109848;-0.05050799995660782;1.0213840007781982;0.5494880080223083;-0.20203199982643127;1.1419199705123901;0.4856250286102295;-1.0149999856948853;5.678750038146973
1693;0.0;0.0;0.0;0.5885279774665833;-0.22545599937438965;1.1497279405593872;0.0;0.0;0.0
1695;0.0;0.0;0.0;0.5846239924430847;-0.22155199944972992;1.1536319255828857;0.0;0.0;0.0
1697;0.0;0.0;0.0;0.5963360071182251;-0.2176479995250702;1.1702239513397217;0.0;0.0;0.0
1699;0.45871999859809875;-0.08369199931621552;1.0235799551010132;0.5885279774665833;-0.22935999929904938;1.1497279405593872;-1.824375033378601;-6.755000114440918;5.258749961853027
1701;0.0;0.0;0.0;0.5885279774665833;-0.24887999892234802;1.1419199705123901;0.0;0.0;0.0
1703;0.0;0.0;0.0;0.6002399921417236;-0.25278398394584656;1.1370400190353394;0.0;0.0;0.0
1705;0.0;0.0;0.0;0.5729119777679443;-0.27620798349380493;1.1214239597320557;0.0;0.0;0.0
1707;0.4550600051879883;-0.12126799672842026;1.0067440271377563;0.5729119777679443;-0.26449599862098694;1.1370400190353394;-2.314375162124634;-10.675000190734863;4.138749599456787
1710;0.0;0.0;0.0;0.5807200074195862;-0.25278398394584656;1.1292319297790527;0.0;0.0;0.0
1712;0.0;0.0;0.0;0.561199963092804;-0.29182398319244385;1.1253279447555542;0.0;0.0;0.0
1714;0.0;0.0;0.0;0.5260639786720276;-0.30743998289108276;1.1380159854888916;0.0;0.0;0.0
1716;0.4306599795818329;-0.15811198949813843;0.9862479567527771;0.5416799783706665;-0.3113439977169037;1.1175199747085571;-0.9143750071525574;-12.845000267028809;1.3387500047683716
1718;0.0;0.0;0.0;0.5260639786720276;-0.3113439977169037;1.1009279489517212;0.0;0.0;0.0
1720;0.0;0.0;0.0;0.5104479789733887;-0.30743998289108276;1.1009279489517212;0.0;0.0;0.0
1722;0.0;0.0;0.0;0.5143519639968872;-0.3230559825897217;1.1009279489517212;0.0;0.0;0.0
1724;0.39893999695777893;-0.17836399376392365;0.9708759784698486;0.47921597957611084;-0.29572799801826477;1.1048319339752197;1.7456250190734863;-14.03499984741211;-3.841249942779541
1727;0.0;0.0;0.0;0.5065439939498901;-0.2996319830417633;1.085312008857727;0.0;0.0;0.0
1729;0.0;0.0;0.0;0.447983980178833;-0.3113439977169037;1.1009279489517212;0.0;0.0;0.0
1731;0.0;0.0;0.0;0.4753119945526123;-0.29572799801826477;1.0931199789047241;0.0;0.0;0.0
1733;0.36160799860954285;-0.17202000319957733;0.961359977722168;0.447983980178833;-0.27620798349380493;1.0931199789047241;4.825625419616699;-14.945000648498535;-10.351249694824219
1735;0.0;0.0;0.0;0.44017598032951355;-0.29572799801826477;1.1048319339752197;0.0;0.0;0.0
1737;0.0;0.0;0.0;0.4323679804801941;-0.27620798349380493;1.0970239639282227;0.0;0.0;0.0
1739;0.0;0.0;0.0;0.4089439809322357;-0.3113439977169037;1.0892159938812256;0.0;0.0;0.0
1741;0.3189080059528351;-0.17031200230121613;0.9484279751777649;0.41284799575805664;-0.3777119815349579;0.9994239807128906;7.345625400543213;-16.065000534057617;-16.58125114440918
1744;0.0;0.0;0.0;0.42455998063087463;-0.22155199944972992;1.0648159980773926;0.0;0.0;0.0
1746;0.0;0.0;0.0;0.3474559783935547;-0.1786080002784729;1.1214239597320557;0.0;0.0;0.0
1748;0.0;0.0;0.0;0.35526400804519653;-0.23716799914836884;1.1087360382080078;0.0;0.0;0.0
1750;0.2618120014667511;-0.10687199980020523;0.9555040001869202;0.3786879777908325;-0.260591983795166;1.0726239681243896;10.845624923706055;-16.41499900817871;-21.551250457763672
1752;0.0;0.0;0.0;0.374783992767334;-0.22935999929904938;1.0560319423675537;0.0;0.0;0.0
1754;0.0;0.0;0.0;0.3123199939727783;-0.1668960005044937;1.0931199789047241;0.0;0.0;0.0
1756;0.0;0.0;0.0;0.30451199412345886;-0.1786080002784729;1.0892159938812256;0.0;0.0;0.0
1758;0.2152079939842224;-0.06856399774551392;0.9494040012359619;0.33183997869491577;-0.19812799990177155;1.0648159980773926;8.885624885559082;-18.375;-25.12125015258789
1761;0.0;0.0;0.0;0.2654719948768616;-0.14737600088119507;1.0316319465637207;0.0;0.0;0.0
1763;0.0;0.0;0.0;0.37088000774383545;-0.10833600163459778;1.0765279531478882;0.0;0.0;0.0
1765;0.0;0.0;0.0;0.30451199412345886;-0.13566400110721588;1.060912013053894;0.0;0.0;0.0
1767;0.19105198979377747;-0.021959999576210976;0.9206119775772095;0.3084160089492798;-0.1668960005044937;1.0326080322265625;8.745625495910645;-20.05499839782715;-21.131250381469727
1769;0.0;0.0;0.0;0.2810879945755005;-0.15518400073051453;1.0082080364227295;0.0;0.0;0.0
1771;0.0;0.0;0.0;0.22252799570560455;-0.10833600163459778;1.036512017250061;0.0;0.0;0.0
1773;0.0;0.0;0.0;0.19910399615764618;-0.14347200095653534;1.0648159980773926;0.0;0.0;0.0
1775;0.1273680031299591;-0.003415999934077263;0.8937720060348511;0.23814399540424347;-0.1512800008058548;1.044319987297058;13.015625;-17.954999923706055;-16.301250457763672
1778;0.0;0.0;0.0;0.22252799570560455;-0.11614400148391724;1.0316319465637207;0.0;0.0;0.0
1780;0.0;0.0;0.0;0.230335995554924;-0.11614400148391724;1.019919991493225;0.0;0.0;0.0
1782;0.0;0.0;0.0;0.20691199600696564;-0.10443200170993805;1.0482239723205566;0.0;0.0;0.0
1784;0.09101200103759766;0.01659199967980385;0.9088999629020691;0.2147199958562851;-0.08881600201129913;1.0726239681243896;15.60562515258789;-15.71500015258789;-12.731249809265137
1786;0.0;0.0;0.0;0.1600639969110489;-0.10443200170993805;1.0804319381713867;0.0;0.0;0.0
1788;0.0;0.0;0.0;0.1756799966096878;-0.09662400186061859;1.0970239639282227;0.0;0.0;0.0
1790;0.0;0.0;0.0;0.14932799339294434;-0.08881600201129913;1.0892159938812256;0.0;0.0;0.0
1792;0.03855200111865997;0.03611199930310249;0.9608719944953918;0.13371199369430542;-0.09662400186061859;1.1214239597320557;12.035625457763672;-14.735000610351562;-7.201250076293945
1795;0.0;0.0;0.0;0.08295999467372894;-0.1239520013332367;1.1292319297790527;0.0;0.0;0.0
1797;0.0;0.0;0.0;0.06734399497509003;-0.10052800178527832;1.1370400190353394;0.0;0.0;0.0
1799;0.0;0.0;0.0;0.07905599474906921;-0.11224000155925751;1.1292319297790527;0.0;0.0;0.0
1801;-0.026839999482035637;0.030988000333309174;0.9945439696311951;0.05953599885106087;-0.12785600125789642;1.1458239555358887;3.8456249237060547;-17.46500015258789;-2.4412500858306885
1803;0.0;0.0;0.0;0.03611199930310249;-0.11614400148391724;1.1780319213867188;0.0;0.0;0.0
1805;0.0;0.0;0.0;0.028303999453783035;-0.10052800178527832;1.1663199663162231;0.0;0.0;0.0
1807;0.0;0.0;0.0;-0.014639999717473984;-0.12004800140857697;1.1780319213867188;0.0;0.0;0.0
1810;-0.09711199998855591;-0.0007319999858736992;1.028216004371643;-0.014639999717473984;-0.1786080002784729;1.1614400148391724;-5.044374942779541;-20.7549991607666;1.758750081062317
1812;0.0;0.0;0.0;-0.04196799919009209;-0.15518400073051453;1.2063360214233398;0.0;0.0;0.0
1814;0.0;0.0;0.0;-0.03806399926543236;-0.19422399997711182;1.1536319255828857;0.0;0.0;0.0
1816;0.0;0.0;0.0;-0.06929600238800049;-0.18251200020313263;1.1985279321670532;0.0;0.0;0.0
1818;-0.17372798919677734;-0.058559998869895935;1.0523719787597656;-0.06539200246334076;-0.22155199944972992;1.1819360256195068;-11.344374656677246;-24.674999237060547;7.428750038146973
1820;0.0;0.0;0.0;-0.10735999792814255;-0.23716799914836884;1.1946239471435547;0.0;0.0;0.0
1822;0.0;0.0;0.0;-0.10735999792814255;-0.25278398394584656;1.1946239471435547;0.0;0.0;0.0
1824;0.0;0.0;0.0;-0.09174399822950363;-0.260591983795166;1.1614400148391724;0.0;0.0;0.0
1827;-0.22155199944972992;-0.12175599485635757;1.0579839944839478;-0.12297599762678146;-0.29572799801826477;1.2024319171905518;-14.004374504089355;-28.104999542236328;12.678750038146973
1829;0.0;0.0;0.0;-0.11907199770212173;-0.30743998289108276;1.2024319171905518;0.0;0.0;0.0
1831;0.0;0.0;0.0;-0.13468798995018005;-0.3152479827404022;1.2151199579238892;0.0;0.0;0.0
1833;0.0;0.0;0.0;-0.1542080044746399;-0.31915199756622314;1.1858400106430054;0.0;0.0;0.0
1835;-0.25107598304748535;-0.18422000110149384;1.0765279531478882;-0.15030398964881897;-0.3542879819869995;1.2268320322036743;-12.604374885559082;-28.385000228881836;16.248748779296875
1837;0.0;0.0;0.0;-0.1698240041732788;-0.3659999966621399;1.2190239429473877;0.0;0.0;0.0
1839;0.0;0.0;0.0;-0.1424959897994995;-0.3699039816856384;1.2346400022506714;0.0;0.0;0.0
1841;0.0;0.0;0.0;-0.1698240041732788;-0.38942399621009827;1.2190239429473877;0.0;0.0;0.0
1843;-0.29816800355911255;-0.23643599450588226;1.0926319360733032;-0.21276798844337463;-0.3933279812335968;1.2268320322036743;-7.354374885559082;-27.19499969482422;18.48874855041504
1846;0.0;0.0;0.0;-0.2205759882926941;-0.3972319960594177;1.2229279279708862;0.0;0.0;0.0
1848;0.0;0.0;0.0;-0.18544000387191772;-0.3933279812335968;1.23854398727417;0.0;0.0;0.0
1850;0.0;0.0;0.0;-0.17763200402259827;-0.40113598108291626;1.2151199579238892;0.0;0.0;0.0
1852;-0.3269599974155426;-0.2652280032634735;1.0887279510498047;-0.19715198874473572;-0.4206559956073761;1.2102400064468384;-0.3543750047683716;-25.864999771118164;17.438749313354492
1854;0.0;0.0;0.0;-0.20495998859405518;-0.4089439809322357;1.2190239429473877;0.0;0.0;0.0
1856;0.0;0.0;0.0;-0.18544000387191772;-0.3933279812335968;1.2102400064468384;0.0;0.0;0.0
1858;0.0;0.0;0.0;-0.21276798844337463;-0.38551998138427734;1.2229279279708862;0.0;0.0;0.0
1861;-0.31768798828125;-0.2618120014667511;1.0818959474563599;-0.20105600357055664;-0.3933279812335968;1.1985279321670532;6.435625076293945;-22.154998779296875;13.798749923706055
1863;0.0;0.0;0.0;-0.21667200326919556;-0.3230559825897217;1.2434239387512207;0.0;0.0;0.0
1865;0.0;0.0;0.0;-0.2088640034198761;-0.33086398243904114;1.2346400022506714;0.0;0.0;0.0
1867;0.0;0.0;0.0;-0.21667200326919556;-0.33086398243904114;1.2473279237747192;0.0;0.0;0.0
1869;-0.3391599953174591;-0.21276798844337463;1.1060519218444824;-0.24399998784065247;-0.29182398319244385;1.2590399980545044;10.145625114440918;-16.764999389648438;9.248750686645508
1871;0.0;0.0;0.0;-0.27132800221443176;-0.2879199981689453;1.2639199495315552;0.0;0.0;0.0
1873;0.0;0.0;0.0;-0.2635200023651123;-0.2840159833431244;1.272704005241394;0.0;0.0;0.0
1875;0.0;0.0;0.0;-0.29475200176239014;-0.2879199981689453;1.2766079902648926;0.0;0.0;0.0
1878;-0.39942798018455505;-0.16494399309158325;1.142408013343811;-0.30646398663520813;-0.30353599786758423;1.297104001045227;9.725625038146973;-12.77500057220459;3.648750066757202
1880;0.0;0.0;0.0;-0.3298879861831665;-0.28011199831962585;1.3166239261627197;0.0;0.0;0.0
1882;0.0;0.0;0.0;-0.29865598678588867;-0.2449759989976883;1.3166239261627197;0.0;0.0;0.0
1884;0.0;0.0;0.0;-0.3181760013103485;-0.26449599862098694;1.32150399684906;0.0;0.0;0.0
1886;-0.4433479905128479;-0.13688400387763977;1.176811933517456;-0.3181760013103485;-0.25278398394584656;1.3166239261627197;5.455625057220459;-10.46500015258789;-3.141249895095825
1888;0.0;0.0;0.0;-0.3298879861831665;-0.25278398394584656;1.3400479555130005;0.0;0.0;0.0
1890;0.0;0.0;0.0;-0.3328160047531128;-0.22545599937438965;1.3566399812698364;0.0;0.0;0.0
1892;0.0;0.0;0.0;-0.3484320044517517;-0.26449599862098694;1.377135992050171;0.0;0.0;0.0
1895;-0.4638440012931824;-0.11541199684143066;1.2087759971618652;-0.35624000430107117;-0.21374399960041046;1.3449280261993408;-1.1243751049041748;-9.204999923706055;-7.481250286102295
1897;0.0;0.0;0.0;-0.3484320044517517;-0.2332639992237091;1.368351936340332;0.0;0.0;0.0
1899;0.0;0.0;0.0;-0.3757599890232086;-0.21374399960041046;1.3566399812698364;0.0;0.0;0.0
1901;0.0;0.0;0.0;-0.3337920010089874;-0.23716799914836884;1.377135992050171;0.0;0.0;0.0
1903;-0.4887319803237915;-0.10345599800348282;1.234395980834961;-0.3718560039997101;-0.22935999929904938;1.3810399770736694;-8.054374694824219;-8.505000114440918;-8.671249389648438
1905;0.0;0.0;0.0;-0.3718560039997101;-0.22545599937438965;1.401535987854004;0.0;0.0;0.0
1907;0.0;0.0;0.0;-0.3640480041503906;-0.2332639992237091;1.3966559171676636;0.0;0.0;0.0
1909;0.0;0.0;0.0;-0.4030880033969879;-0.24107199907302856;1.4132479429244995;0.0;0.0;0.0
1912;-0.5089839696884155;-0.10638399422168732;1.256111979484558;-0.3757599890232086;-0.24887999892234802;1.392751932144165;-13.934374809265137;-9.695000648498535;-8.741250038146973
1914;0.0;0.0;0.0;-0.40699198842048645;-0.24887999892234802;1.3888479471206665;0.0;0.0;0.0
1916;0.0;0.0;0.0;-0.4030880033969879;-0.26449599862098694;1.3888479471206665;0.0;0.0;0.0
1918;0.0;0.0;0.0;-0.37966400384902954;-0.26449599862098694;1.3888479471206665;0.0;0.0;0.0
1920;-0.5145959854125977;-0.13371199369430542;1.2573319673538208;-0.39528000354766846;-0.2683999836444855;1.377135992050171;-17.57437515258789;-11.725000381469727;-9.161250114440918
1922;0.0;0.0;0.0;-0.387472003698349;-0.29572799801826477;1.3810399770736694;0.0;0.0;0.0
1924;0.0;0.0;0.0;-0.40699198842048645;-0.3269599974155426;1.3644479513168335;0.0;0.0;0.0
1926;0.0;0.0;0.0;-0.35624000430107117;-0.33086398243904114;1.3449280261993408;0.0;0.0;0.0
1929;-0.506056010723114;-0.177387997508049;1.232443928718567;-0.387472003698349;-0.3230559825897217;1.3488320112228394;-16.94437599182129;-12.914999961853027;-10.841249465942383
1931;0.0;0.0;0.0;-0.35233598947525024;-0.33086398243904114;1.3156479597091675;0.0;0.0;0.0
1933;0.0;0.0;0.0;-0.34062400460243225;-0.3230559825897217;1.3156479597091675;0.0;0.0;0.0
1935;0.0;0.0;0.0;-0.3328160047531128;-0.3152479827404022;1.311743974685669;0.0;0.0;0.0
1937;-0.46701598167419434;-0.19471199810504913;1.1887680292129517;-0.33769598603248596;-0.3230559825897217;1.3078399896621704;-11.344374656677246;-12.005000114440918;-12.87125015258789
1939;0.0;0.0;0.0;-0.32598400115966797;-0.31915199756622314;1.2834399938583374;0.0;0.0;0.0
1941;0.0;0.0;0.0;-0.3337920010089874;-0.2879199981689453;1.2912479639053345;0.0;0.0;0.0
1943;0.0;0.0;0.0;-0.32598400115966797;-0.29182398319244385;1.2795360088348389;0.0;0.0;0.0
1946;-0.44310399889945984;-0.17885199189186096;1.1519240140914917;-0.3337920010089874;-0.3113439977169037;1.2668479681015015;-2.9443750381469727;-9.135000228881836;-14.831250190734863
1948;0.0;0.0;0.0;-0.32207998633384705;-0.27620798349380493;1.2551360130310059;0.0;0.0;0.0
1950;0.0;0.0;0.0;-0.29475200176239014;-0.2879199981689453;1.2473279237747192;0.0;0.0;0.0
1952;0.0;0.0;0.0;-0.30646398663520813;-0.2683999836444855;1.2590399980545044;0.0;0.0;0.0
1954;-0.43187999725341797;-0.15079200267791748;1.1211799383163452;-0.2869440019130707;-0.24887999892234802;1.2346400022506714;4.825625419616699;-5.144999980926514;-18.4012508392334
1956;0.0;0.0;0.0;-0.2869440019130707;-0.26449599862098694;1.2229279279708862;0.0;0.0;0.0
1958;0.0;0.0;0.0;-0.2869440019130707;-0.24107199907302856;1.2346400022506714;0.0;0.0;0.0
1960;0.0;0.0;0.0;-0.2869440019130707;-0.22155199944972992;1.2268320322036743;0.0;0.0;0.0
1963;-0.41162797808647156;-0.11687599867582321;1.0906800031661987;-0.28303998708724976;-0.21374399960041046;1.2102400064468384;11.265625;-1.2249999046325684;-22.951250076293945
1965;0.0;0.0;0.0;-0.2752319872379303;-0.20983999967575073;1.2024319171905518;0.0;0.0;0.0
1967;0.0;0.0;0.0;-0.2752319872379303;-0.205935999751091;1.2063360214233398;0.0;0.0;0.0
1969;0.0;0.0;0.0;-0.27132800221443176;-0.18251200020313263;1.2063360214233398;0.0;0.0;0.0
1971;-0.3886919915676117;-0.0634399950504303;1.0745760202407837;-0.22838398814201355;-0.17080000042915344;1.2102400064468384;16.37562370300293;2.4850001335144043;-25.751251220703125
1973;0.0;0.0;0.0;-0.26742398738861084;-0.14737600088119507;1.2229279279708862;0.0;0.0;0.0
1975;0.0;0.0;0.0;-0.2635200023651123;-0.13176000118255615;1.2063360214233398;0.0;0.0;0.0
1977;0.0;0.0;0.0;-0.24009600281715393;-0.11614400148391724;1.2268320322036743;0.0;0.0;0.0
1980;-0.3740519881248474;-0.003415999934077263;1.089460015296936;-0.2596159875392914;-0.10833600163459778;1.2268320322036743;19.245624542236328;3.815000057220459;-24.21125030517578
1982;0.0;0.0;0.0;-0.2479040026664734;-0.08881600201129913;1.2229279279708862;0.0;0.0;0.0
1984;0.0;0.0;0.0;-0.29865598678588867;-0.08881600201129913;1.2229279279708862;0.0;0.0;0.0
1986;0.0;0.0;0.0;-0.26742398738861084;-0.06148799881339073;1.2024319171905518;0.0;0.0;0.0
1988;-0.3816159963607788;0.046115998178720474;1.085312008857727;-0.2479040026664734;-0.06929600238800049;1.1946239471435547;18.755624771118164;1.7850000858306885;-19.661251068115234
1990;0.0;0.0;0.0;-0.236191987991333;-0.053679998964071274;1.1907199621200562;0.0;0.0;0.0
1992;0.0;0.0;0.0;-0.236191987991333;-0.07320000231266022;1.199504017829895;0.0;0.0;0.0
1995;0.0;0.0;0.0;-0.20105600357055664;-0.06148799881339073;1.1868159770965576;0.0;0.0;0.0
1997;-0.3357439935207367;0.07441999763250351;1.0513960123062134;-0.1542080044746399;-0.057583998888731;1.175104022026062;15.115625381469727;-2.2049999237060547;-15.321249961853027
1999;0.0;0.0;0.0;-0.17763200402259827;-0.053679998964071274;1.1672959327697754;0.0;0.0;0.0
2001;0.0;0.0;0.0;-0.10735999792814255;-0.045871999114751816;1.146799921989441;0.0;0.0;0.0
2003;0.0;0.0;0.0;-0.09955199807882309;-0.045871999114751816;1.1145919561386108;0.0;0.0;0.0
2005;-0.2378999888896942;0.08125200122594833;1.009671926498413;-0.07320000231266022;-0.045871999114751816;1.1145919561386108;9.445625305175781;-4.025000095367432;-11.051249504089355
2007;0.0;0.0;0.0;-0.0302559994161129;-0.06929600238800049;1.1009279489517212;0.0;0.0;0.0
2009;0.0;0.0;0.0;-0.03806399926543236;-0.06929600238800049;1.0892159938812256;0.0;0.0;0.0
2011;0.0;0.0;0.0;-0.014639999717473984;-0.06148799881339073;1.1048319339752197;0.0;0.0;0.0
2014;-0.1512800008058548;0.06758800148963928;0.9701439738273621;-0.010735999792814255;-0.06929600238800049;1.0892159938812256;4.54562520980835;-3.254999876022339;-5.731250286102295
2016;0.0;0.0;0.0;0.01659199967980385;-0.08881600201129913;1.0599359273910522;0.0;0.0;0.0
2018;0.0;0.0;0.0;0.028303999453783035;-0.08881600201129913;1.0648159980773926;0.0;0.0;0.0
2020;0.0;0.0;0.0;0.03611199930310249;-0.09662400186061859;1.0560319423675537;0.0;0.0;0.0
2022;-0.09467199444770813;0.03757599741220474;0.9425719976425171;0.05172799900174141;-0.12004800140857697;1.0892159938812256;1.8856250047683716;-1.434999942779541;0.35875001549720764
2024;0.0;0.0;0.0;0.03611199930310249;-0.10052800178527832;1.0482239723205566;0.0;0.0;0.0
2026;0.0;0.0;0.0;0.0907679945230484;-0.10052800178527832;1.0521279573440552;0.0;0.0;0.0
2028;0.0;0.0;0.0;0.0907679945230484;-0.1239520013332367;1.0599359273910522;0.0;0.0;0.0
2031;-0.04758000001311302;0.008295999839901924;0.9274439811706543;0.10247999429702759;-0.14347200095653534;1.0404160022735596;0.8356249928474426;0.7350000143051147;6.93874979019165
2033;0.0;0.0;0.0;0.12590399384498596;-0.1395680010318756;1.0277279615402222;0.0;0.0;0.0
2035;0.0;0.0;0.0;0.14932799339294434;-0.15908800065517426;1.0482239723205566;0.0;0.0;0.0
2037;0.0;0.0;0.0;0.1298079937696457;-0.1668960005044937;1.0482239723205566;0.0;0.0;0.0
2039;0.011711999773979187;-0.03294000029563904;0.912559986114502;0.1600639969110489;-0.20203199982643127;1.0482239723205566;-0.07437500357627869;3.3949999809265137;13.448750495910645
2041;0.0;0.0;0.0;0.1756799966096878;-0.21374399960041046;1.0238239765167236;0.0;0.0;0.0
2043;0.0;0.0;0.0;0.2030079960823059;-0.20203199982643127;1.044319987297058;0.0;0.0;0.0
2046;0.0;0.0;0.0;0.230335995554924;-0.19422399997711182;1.0072319507598877;0.0;0.0;0.0
2048;0.09174399822950363;-0.06173199787735939;0.8925519585609436;0.23814399540424347;-0.19422399997711182;1.044319987297058;0.6256250143051147;6.404999732971191;18.978750228881836
2050;0.0;0.0;0.0;0.26156800985336304;-0.14737600088119507;1.036512017250061;0.0;0.0;0.0
2052;0.0;0.0;0.0;0.2654719948768616;-0.1903200000524521;1.012112021446228;0.0;0.0;0.0
2054;0.0;0.0;0.0;0.3396480083465576;-0.33476799726486206;0.9145119786262512;0.0;0.0;0.0
2056;0.16787199676036835;-0.07197999954223633;0.8652240037918091;0.3084160089492798;-0.17080000042915344;1.012112021446228;2.0956249237060547;9.204999923706055;23.248748779296875
2058;0.0;0.0;0.0;0.30060797929763794;-0.15908800065517426;1.0169919729232788;0.0;0.0;0.0
2060;0.0;0.0;0.0;0.3474559783935547;-0.17080000042915344;1.0130879878997803;0.0;0.0;0.0
2063;0.0;0.0;0.0;0.34355199337005615;-0.19422399997711182;0.9925919771194458;0.0;0.0;0.0
2065;0.20276398956775665;-0.049775999039411545;0.875715970993042;0.3201279938220978;-0.15518400073051453;1.0130879878997803;5.105625152587891;13.265000343322754;25.698749542236328
2067;0.0;0.0;0.0;0.284991979598999;-0.15908800065517426;1.0452959537506104;0.0;0.0;0.0
2069;0.0;0.0;0.0;0.31622397899627686;-0.19422399997711182;1.0452959537506104;0.0;0.0;0.0
2071;0.0;0.0;0.0;0.2967039942741394;-0.1786080002784729;1.0247999429702759;0.0;0.0;0.0
2073;0.18104799091815948;-0.04782399907708168;0.9037759900093079;0.30060797929763794;-0.18641600012779236;1.0287039279937744;3.145624876022339;14.104999542236328;23.03874969482422
2075;0.0;0.0;0.0;0.3240320086479187;-0.20983999967575073;1.0316319465637207;0.0;0.0;0.0
2077;0.0;0.0;0.0;0.3123199939727783;-0.1903200000524521;0.9955199956893921;0.0;0.0;0.0
2080;0.0;0.0;0.0;0.3396480083465576;-0.19422399997711182;1.0316319465637207;0.0;0.0;0.0
2082;0.20495998859405518;-0.07807999849319458;0.8962119817733765;0.32793599367141724;-0.20983999967575073;1.019919991493225;-0.9843749403953552;13.265000343322754;15.05875015258789
2084;0.0;0.0;0.0;0.33183997869491577;-0.20983999967575073;1.019919991493225;0.0;0.0;0.0
2086;0.0;0.0;0.0;0.35526400804519653;-0.22545599937438965;0.9916160106658936;0.0;0.0;0.0
2088;0.0;0.0;0.0;0.3972319960594177;-0.205935999751091;0.9994239807128906;0.0;0.0;0.0
2090;0.2508319914340973;-0.07930000126361847;0.8842560052871704;0.4206559956073761;-0.18641600012779236;0.9955199956893921;-3.6443750858306885;12.28499984741211;9.668750762939453
2092;0.0;0.0;0.0;0.42846399545669556;-0.1668960005044937;1.0160160064697266;0.0;0.0;0.0
2094;0.0;0.0;0.0;0.4635999798774719;-0.17080000042915344;0.9955199956893921;0.0;0.0;0.0
2097;0.0;0.0;0.0;0.4909279942512512;-0.18641600012779236;1.0082080364227295;0.0;0.0;0.0
2099;0.3472119867801666;-0.03635599836707115;0.8710799813270569;0.5182560086250305;-0.13566400110721588;1.0082080364227295;-4.20437479019165;12.21500015258789;8.828750610351562
2101;0.0;0.0;0.0;0.4870239794254303;-0.12004800140857697;1.019919991493225;0.0;0.0;0.0
2103;0.0;0.0;0.0;0.522159993648529;-0.13176000118255615;0.9955199956893921;0.0;0.0;0.0
2105;0.0;0.0;0.0;0.5533919930458069;-0.11614400148391724;1.019919991493225;0.0;0.0;0.0
2107;0.4101639986038208;0.009271999821066856;0.8864519596099854;0.5533919930458069;-0.10052800178527832;1.036512017250061;-5.744374752044678;12.984999656677246;12.818750381469727
2109;0.0;0.0;0.0;0.5533919930458069;-0.09662400186061859;1.0238239765167236;0.0;0.0;0.0
2111;0.0;0.0;0.0;0.5885279774665833;-0.10443200170993805;1.0316319465637207;0.0;0.0;0.0
2114;0.0;0.0;0.0;0.5729119777679443;-0.1239520013332367;1.019919991493225;0.0;0.0;0.0
2116;0.44603198766708374;0.01634800061583519;0.8966999650001526;0.561199963092804;-0.11614400148391724;1.0277279615402222;-10.154375076293945;12.914999961853027;18.768749237060547
2118;0.0;0.0;0.0;0.5690079927444458;-0.1395680010318756;1.019919991493225;0.0;0.0;0.0
2120;0.0;0.0;0.0;0.5533919930458069;-0.11224000155925751;1.0277279615402222;0.0;0.0;0.0
2122;0.0;0.0;0.0;0.5572959780693054;-0.1903200000524521;1.0238239765167236;0.0;0.0;0.0
2124;0.4484719932079315;-0.020983999595046043;0.8979200124740601;0.5651040077209473;-0.1903200000524521;1.0160160064697266;-15.054374694824219;12.425000190734863;22.82874870300293
2126;0.0;0.0;0.0;0.5651040077209473;-0.21374399960041046;1.0160160064697266;0.0;0.0;0.0
2128;0.0;0.0;0.0;0.5846239924430847;-0.20203199982643127;1.0404160022735596;0.0;0.0;0.0
2131;0.0;0.0;0.0;0.6158559918403625;-0.23716799914836884;1.0277279615402222;0.0;0.0;0.0
2133;0.4638440012931824;-0.08173999935388565;0.9025560021400452;0.5924319624900818;-0.20983999967575073;1.044319987297058;-17.78437614440918;11.164999961853027;21.498748779296875
2135;0.0;0.0;0.0;0.611952006816864;-0.26449599862098694;1.012112021446228;0.0;0.0;0.0
2137;0.0;0.0;0.0;0.5143519639968872;-0.2566879987716675;1.0404160022735596;0.0;0.0;0.0
2139;0.0;0.0;0.0;0.545583963394165;-0.24107199907302856;1.0560319423675537;0.0;0.0;0.0
2141;0.4492039978504181;-0.11297199875116348;0.9135359525680542;0.5729119777679443;-0.260591983795166;1.0482239723205566;-19.744375228881836;9.904999732971191;16.458749771118164
2143;0.0;0.0;0.0;0.6080479621887207;-0.260591983795166;1.0521279573440552;0.0;0.0;0.0
2145;0.0;0.0;0.0;0.6617279648780823;-0.2996319830417633;1.0326080322265625;0.0;0.0;0.0
2148;0.0;0.0;0.0;0.6314719915390015;-0.27620798349380493;1.044319987297058;0.0;0.0;0.0
2150;0.5192319750785828;-0.13688400387763977;0.9086560010910034;0.6695359945297241;-0.24107199907302856;1.0238239765167236;-21.3543758392334;6.335000038146973;6.518749713897705
2152;0.0;0.0;0.0;0.6929599642753601;-0.29572799801826477;1.012112021446228;0.0;0.0;0.0
2154;0.0;0.0;0.0;0.700767993927002;-0.27620798349380493;0.9994239807128906;0.0;0.0;0.0
2156;0.0;0.0;0.0;0.708575963973999;-0.27620798349380493;0.9955199956893921;0.0;0.0;0.0
2158;0.583404004573822;-0.14737600088119507;0.891819953918457;0.7163839936256409;-0.29182398319244385;1.0277279615402222;-21.774375915527344;5.565000057220459;1.408750057220459
2160;0.0;0.0;0.0;0.7124800086021423;-0.260591983795166;0.9994239807128906;0.0;0.0;0.0
2162;0.0;0.0;0.0;0.7359039783477783;-0.2683999836444855;1.0238239765167236;0.0;0.0;0.0
2165;0.0;0.0;0.0;0.7476159930229187;-0.2723039984703064;1.0238239765167236;0.0;0.0;0.0
2167;0.611952006816864;-0.14420399069786072;0.879863977432251;0.7398079633712769;-0.260591983795166;1.0033279657363892;-19.674375534057617;6.545000076293945;-0.971250057220459
2169;0.0;0.0;0.0;0.7476159930229187;-0.260591983795166;0.9916160106658936;0.0;0.0;0.0
2171;0.0;0.0;0.0;0.7671359777450562;-0.26449599862098694;1.0160160064697266;0.0;0.0;0.0
2173;0.0;0.0;0.0;0.7593280076980591;-0.27620798349380493;1.0404160022735596;0.0;0.0;0.0
2175;0.6439160108566284;-0.12443999946117401;0.8859639763832092;0.7788479924201965;-0.2723039984703064;1.0160160064697266;-16.384376525878906;7.734999656677246;-3.4912500381469727
2178;0.0;0.0;0.0;0.774944007396698;-0.2683999836444855;1.019919991493225;0.0;0.0;0.0
2179;0.0;0.0;0.0;0.7788479924201965;-0.2683999836444855;1.012112021446228;0.0;0.0;0.0
2182;0.0;0.0;0.0;0.7710399627685547;-0.27620798349380493;1.0238239765167236;0.0;0.0;0.0
2184;0.6678279638290405;-0.14566799998283386;0.8844999670982361;0.7827519774436951;-0.29182398319244385;0.9994239807128906;-12.814374923706055;8.505000114440918;-6.501250267028809
2186;0.0;0.0;0.0;0.7944639921188354;-0.2996319830417633;0.9916160106658936;0.0;0.0;0.0
2188;0.0;0.0;0.0;0.7866559624671936;-0.2840159833431244;0.9877119660377502;0.0;0.0;0.0
2190;0.0;0.0;0.0;0.8022719621658325;-0.29572799801826477;0.9838079810142517;0.0;0.0;0.0
2192;0.6780759692192078;-0.16884799301624298;0.8686400055885315;0.8100799918174744;-0.3152479827404022;0.9877119660377502;-7.70437479019165;10.324999809265137;-9.231249809265137
2195;0.0;0.0;0.0;0.7905600070953369;-0.28011199831962585;1.0238239765167236;0.0;0.0;0.0
2196;0.0;0.0;0.0;0.774944007396698;-0.2996319830417633;1.0033279657363892;0.0;0.0;0.0
2199;0.0;0.0;0.0;0.7827519774436951;-0.2879199981689453;1.012112021446228;0.0;0.0;0.0
2201;0.6717320084571838;-0.15664799511432648;0.871567964553833;0.7671359777450562;-0.260591983795166;0.9955199956893921;-1.4043750762939453;12.704999923706055;-11.891249656677246
2203;0.0;0.0;0.0;0.7827519774436951;-0.27620798349380493;1.0160160064697266;0.0;0.0;0.0
2205;0.0;0.0;0.0;0.7593280076980591;-0.22545599937438965;1.0277279615402222;0.0;0.0;0.0
2207;0.0;0.0;0.0;0.7476159930229187;-0.2566879987716675;1.0404160022735596;0.0;0.0;0.0
2209;0.6480640172958374;-0.11834000051021576;0.8957239985466003;0.7476159930229187;-0.2449759989976883;1.036512017250061;3.8456249237060547;13.265000343322754;-14.201250076293945
2212;0.0;0.0;0.0;0.7241919636726379;-0.205935999751091;1.0560319423675537;0.0;0.0;0.0
2214;0.0;0.0;0.0;0.7398079633712769;-0.22155199944972992;1.060912013053894;0.0;0.0;0.0
2216;0.0;0.0;0.0;0.7398079633712769;-0.20203199982643127;1.0404160022735596;0.0;0.0;0.0
2218;0.6197599768638611;-0.07881199568510056;0.9176839590072632;0.7398079633712769;-0.1786080002784729;1.0560319423675537;7.205625057220459;11.585000038146973;-15.391249656677246
2220;0.0;0.0;0.0;0.7476159930229187;-0.19422399997711182;1.0648159980773926;0.0;0.0;0.0
2222;0.0;0.0;0.0;0.7710399627685547;-0.1395680010318756;1.0560319423675537;0.0;0.0;0.0
2224;0.0;0.0;0.0;0.774944007396698;-0.10443200170993805;1.0482239723205566;0.0;0.0;0.0
2226;0.6461119651794434;-0.020983999595046043;0.9311040043830872;0.7827519774436951;-0.1239520013332367;1.0765279531478882;9.025625228881836;8.505000114440918;-15.251250267028809
2229;0.0;0.0;0.0;0.7905600070953369;-0.14347200095653534;1.0560319423675537;0.0;0.0;0.0
2231;0.0;0.0;0.0;0.8022719621658325;-0.12004800140857697;1.0560319423675537;0.0;0.0;0.0
2233;0.0;0.0;0.0;0.7944639921188354;-0.10443200170993805;1.0687199831008911;0.0;0.0;0.0
2235;0.6727079749107361;0.01439599972218275;0.925491988658905;0.8061760067939758;-0.0849120020866394;1.0521279573440552;10.005624771118164;6.054999828338623;-12.801249504089355
2237;0.0;0.0;0.0;0.7827519774436951;-0.11614400148391724;1.0804319381713867;0.0;0.0;0.0
2239;0.0;0.0;0.0;0.8022719621658325;-0.09662400186061859;1.0277279615402222;0.0;0.0;0.0
2241;0.0;0.0;0.0;0.7788479924201965;-0.10443200170993805;1.0726239681243896;0.0;0.0;0.0
2243;0.668071985244751;0.03171999752521515;0.9315919876098633;0.7827519774436951;-0.09662400186061859;1.060912013053894;10.42562484741211;4.934999942779541;-9.511249542236328
2246;0.0;0.0;0.0;0.7437120079994202;-0.10052800178527832;1.0521279573440552;0.0;0.0;0.0
2248;0.0;0.0;0.0;0.7944639921188354;-0.09272000193595886;1.1009279489517212;0.0;0.0;0.0
2250;0.0;0.0;0.0;0.7476159930229187;-0.11614400148391724;1.0931199789047241;0.0;0.0;0.0
2252;0.6429399847984314;0.02391199953854084;0.9440360069274902;0.7632319927215576;-0.1239520013332367;1.0687199831008911;10.0756254196167;3.325000047683716;-6.781250476837158
2254;0.0;0.0;0.0;0.7437120079994202;-0.13566400110721588;1.0560319423675537;0.0;0.0;0.0
2256;0.0;0.0;0.0;0.7515199780464172;-0.11614400148391724;1.0687199831008911;0.0;0.0;0.0
2258;0.0;0.0;0.0;0.700767993927002;-0.11224000155925751;1.0765279531478882;0.0;0.0;0.0
2260;0.6212239861488342;0.013175999745726585;0.9501360058784485;0.708575963973999;-0.12004800140857697;1.0892159938812256;9.935625076293945;0.9449999928474426;-6.011250019073486
2263;0.0;0.0;0.0;0.6929599642753601;-0.1239520013332367;1.0804319381713867;0.0;0.0;0.0
2265;0.0;0.0;0.0;0.7319999933242798;-0.11614400148391724;1.0804319381713867;0.0;0.0;0.0
2267;0.0;0.0;0.0;0.7202879786491394;-0.1239520013332367;1.0726239681243896;0.0;0.0;0.0
2269;0.6031680107116699;0.018055999651551247;0.9533079862594604;0.7319999933242798;-0.1395680010318756;1.1048319339752197;9.585625648498535;-1.5749999284744263;-7.341250419616699
2271;0.0;0.0;0.0;0.6968640089035034;-0.11224000155925751;1.0726239681243896;0.0;0.0;0.0
2273;0.0;0.0;0.0;0.7046719789505005;-0.10833600163459778;1.0687199831008911;0.0;0.0;0.0
2275;0.0;0.0;0.0;0.7202879786491394;-0.10052800178527832;1.0843359231948853;0.0;0.0;0.0
2277;0.5892599821090698;0.02000799961388111;0.9545279741287231;0.6968640089035034;-0.12004800140857697;1.0892159938812256;8.745625495910645;-4.025000095367432;-9.091249465942383
2280;0.0;0.0;0.0;0.6656320095062256;-0.1239520013332367;1.0931199789047241;0.0;0.0;0.0
2282;0.0;0.0;0.0;0.6890559792518616;-0.10052800178527832;1.0970239639282227;0.0;0.0;0.0
2284;0.0;0.0;0.0;0.7046719789505005;-0.13176000118255615;1.0931199789047241;0.0;0.0;0.0
2286;0.5753520131111145;0.020983999595046043;0.958187997341156;0.6929599642753601;-0.10443200170993805;1.1009279489517212;7.835625171661377;-6.055000305175781;-9.091249465942383
2288;0.0;0.0;0.0;0.700767993927002;-0.08881600201129913;1.0892159938812256;0.0;0.0;0.0
2290;0.0;0.0;0.0;0.6656320095062256;-0.13176000118255615;1.0892159938812256;0.0;0.0;0.0
2292;0.0;0.0;0.0;0.6470879912376404;-0.11614400148391724;1.0648159980773926;0.0;0.0;0.0
2294;0.5516839623451233;0.013175999745726585;0.9576999545097351;0.6578239798545837;-0.1239520013332367;1.0892159938812256;7.345625400543213;-7.805000305175781;-7.201250076293945
2297;0.0;0.0;0.0;0.6470879912376404;-0.1239520013332367;1.085312008857727;0.0;0.0;0.0
2299;0.0;0.0;0.0;0.6539199948310852;-0.1239520013332367;1.1087360382080078;0.0;0.0;0.0
2301;0.0;0.0;0.0;0.6812480092048645;-0.12785600125789642;1.1087360382080078;0.0;0.0;0.0
2303;0.5331400036811829;-0.004879999905824661;0.9635559916496277;0.6470879912376404;-0.15518400073051453;1.0970239639282227;7.485625267028809;-9.414999961853027;-4.751250267028809
2305;0.0;0.0;0.0;0.6509919762611389;-0.13566400110721588;1.1292319297790527;0.0;0.0;0.0
2307;0.0;0.0;0.0;0.6236639618873596;-0.17470400035381317;1.0843359231948853;0.0;0.0;0.0
2309;0.0;0.0;0.0;0.6392799615859985;-0.15908800065517426;1.1048319339752197;0.0;0.0;0.0
2311;0.521183967590332;-0.020495999604463577;0.9730719923973083;0.6275680065155029;-0.16299200057983398;1.0970239639282227;8.185625076293945;-11.445000648498535;-2.581249952316284
2314;0.0;0.0;0.0;0.6431840062141418;-0.1668960005044937;1.1302080154418945;0.0;0.0;0.0
2316;0.0;0.0;0.0;0.5963360071182251;-0.15518400073051453;1.1184959411621094;0.0;0.0;0.0
2318;0.0;0.0;0.0;0.5963360071182251;-0.15908800065517426;1.1145919561386108;0.0;0.0;0.0
2320;0.4862920045852661;-0.02903600037097931;0.97843998670578;0.5807200074195862;-0.17080000042915344;1.122399926185608;9.375625610351562;-14.105000495910645;-1.7412500381469727
2322;0.0;0.0;0.0;0.5768159627914429;-0.16299200057983398;1.101904034614563;0.0;0.0;0.0
2324;0.0;0.0;0.0;0.5729119777679443;-0.14347200095653534;1.1302080154418945;0.0;0.0;0.0
2326;0.0;0.0;0.0;0.5572959780693054;-0.16299200057983398;1.101904034614563;0.0;0.0;0.0
2328;0.4335879981517792;-0.03757599741220474;0.9889319539070129;0.5182560086250305;-0.15908800065517426;1.134112000465393;10.35562515258789;-17.39499855041504;-2.721250057220459
2331;0.0;0.0;0.0;0.5104479789733887;-0.18251200020313263;1.1087360382080078;0.0;0.0;0.0
2333;0.0;0.0;0.0;0.5182560086250305;-0.18251200020313263;1.1214239597320557;0.0;0.0;0.0
2335;0.0;0.0;0.0;0.4909279942512512;-0.1903200000524521;1.1253279447555542;0.0;0.0;0.0
2337;0.39015600085258484;-0.043431997299194336;0.9952759742736816;0.5026400089263916;-0.1395680010318756;1.1292319297790527;10.775625228881836;-21.66499900817871;-5.171250343322754
2339;0.0;0.0;0.0;0.49483197927474976;-0.17470400035381317;1.1087360382080078;0.0;0.0;0.0
2341;0.0;0.0;0.0;0.4987359941005707;-0.17080000042915344;1.1175199747085571;0.0;0.0;0.0
2343;0.0;0.0;0.0;0.4870239794254303;-0.17080000042915344;1.0843359231948853;0.0;0.0;0.0
2345;0.3799079954624176;-0.04147999733686447;0.9808799624443054;0.4987359941005707;-0.16299200057983398;1.1048319339752197;10.635624885559082;-26.635000228881836;-8.321249961853027
2348;0.0;0.0;0.0;0.5104479789733887;-0.1668960005044937;1.0804319381713867;0.0;0.0;0.0
2350;0.0;0.0;0.0;0.522159993648529;-0.14737600088119507;1.0765279531478882;0.0;0.0;0.0
2352;0.0;0.0;0.0;0.5104479789733887;-0.17080000042915344;1.0648159980773926;0.0;0.0;0.0
2354;0.38844799995422363;-0.031964000314474106;0.9423279762268066;0.5260639786720276;-0.13566400110721588;1.0726239681243896;10.42562484741211;-28.73499870300293;-12.101249694824219
2356;0.0;0.0;0.0;0.5065439939498901;-0.15518400073051453;1.060912013053894;0.0;0.0;0.0
2358;0.0;0.0;0.0;0.5065439939498901;-0.15518400073051453;1.0404160022735596;0.0;0.0;0.0
2360;0.0;0.0;0.0;0.4909279942512512;-0.14347200095653534;1.0521279573440552;0.0;0.0;0.0
2362;0.38722798228263855;-0.022935999557375908;0.9247599840164185;0.47921597957611084;-0.15518400073051453;1.044319987297058;10.42562484741211;-28.104999542236328;-15.53125
2365;0.0;0.0;0.0;0.46750399470329285;-0.1512800008058548;1.0531039237976074;0.0;0.0;0.0
2367;0.0;0.0;0.0;0.4870239794254303;-0.12004800140857697;1.0413919687271118;0.0;0.0;0.0
2369;0.0;0.0;0.0;0.4596959948539734;-0.15518400073051453;1.0326080322265625;0.0;0.0;0.0
2371;0.36795198917388916;-0.008295999839901924;0.9210999608039856;0.447983980178833;-0.11224000155925751;1.0413919687271118;9.515625;-26.07499885559082;-15.461249351501465
2373;0.0;0.0;0.0;0.4323679804801941;-0.14347200095653534;1.0374879837036133;0.0;0.0;0.0
2375;0.0;0.0;0.0;0.4206559956073761;-0.11224000155925751;1.0413919687271118;0.0;0.0;0.0
2377;0.0;0.0;0.0;0.436271995306015;-0.1239520013332367;1.0618879795074463;0.0;0.0;0.0
2379;0.31671199202537537;0.0007319999858736992;0.9162200093269348;0.4167519807815552;-0.1512800008058548;1.073599934577942;8.185625076293945;-23.064998626708984;-12.94124984741211
2382;0.0;0.0;0.0;0.3903999924659729;-0.11614400148391724;1.0374879837036133;0.0;0.0;0.0
