Timestamp(ms);LG-Accel x(g);LG-Accel y(g);LG-Accel z(g);HG-Accel x(g);HG-Accel y(g);HG-Accel z(g);Gyro x(dps);Gyro y(dps);Gyro z(dps)
46;0.0;0.0;0.0;0.20105600357055664;-0.18544000387191772;1.1302080154418945;0.0;0.0;0.0
49;0.0;0.0;0.0;0.20495998859405518;-0.17763200402259827;1.126304030418396;0.0;0.0;0.0
51;0.0;0.0;0.0;0.22448000311851501;-0.19715198874473572;1.101904034614563;0.0;0.0;0.0
53;0.0;0.0;0.0;0.22838398814201355;-0.20495998859405518;1.126304030418396;0.0;0.0;0.0
55;0.0;0.0;0.0;0.21667200326919556;-0.19324800372123718;1.10971200466156;0.0;0.0;0.0
57;0.0;0.0;0.0;0.18544000387191772;-0.2030079960823059;1.107759952545166;0.0;0.0;0.0
59;0.0;0.0;0.0;0.2205759882926941;-0.2147199958562851;1.099951982498169;0.0;0.0;0.0
61;0.0;0.0;0.0;0.20495998859405518;-0.2030079960823059;1.1370400190353394;0.0;0.0;0.0
63;0.08661999553442001;-0.07417599856853485;0.9884439706802368;0.2088640034198761;-0.20691199600696564;1.1038559675216675;0.0;0.0;0.0
66;0.0;0.0;0.0;0.19715198874473572;-0.2030079960823059;1.1204479932785034;0.0;0.0;0.0
68;0.0;0.0;0.0;0.1815359890460968;-0.187391996383667;1.0921440124511719;0.0;0.0;0.0
70;0.0;0.0;0.0;0.18934398889541626;-0.2030079960823059;1.1282559633255005;0.0;0.0;0.0
72;0.08442399650812149;-0.06954000145196915;0.9930799603462219;0.21667200326919556;-0.19910399615764618;1.140944004058838;0.0;0.0;0.0
74;0.0;0.0;0.0;0.19227199256420135;-0.187391996383667;1.1126400232315063;0.0;0.0;0.0
76;0.0;0.0;0.0;0.2235039919614792;-0.2147199958562851;1.124351978302002;0.0;0.0;0.0
78;0.0;0.0;0.0;0.2235039919614792;-0.230335995554924;1.140944004058838;0.0;0.0;0.0
80;0.09393999725580215;-0.06612399965524673;0.9921039938926697;0.21569599211215973;-0.20691199600696564;1.107759952545166;0.0;0.0;0.0
83;0.0;0.0;0.0;0.21959999203681946;-0.18348799645900726;1.132159948348999;0.0;0.0;0.0
85;0.0;0.0;0.0;0.19617599248886108;-0.19129599630832672;1.1126400232315063;0.0;0.0;0.0
87;0.0;0.0;0.0;0.2117919921875;-0.2030079960823059;1.1165440082550049;0.0;0.0;0.0
89;0.09857599437236786;-0.0710039958357811;0.9872239828109741;0.19227199256420135;-0.187391996383667;1.1165440082550049;0.0;0.0;0.0
91;0.0;0.0;0.0;0.22740799188613892;-0.19519999623298645;1.1165440082550049;0.0;0.0;0.0
93;0.0;0.0;0.0;0.20398399233818054;-0.21081599593162537;1.124351978302002;0.0;0.0;0.0
95;0.0;0.0;0.0;0.2117919921875;-0.23423999547958374;1.0960479974746704;0.0;0.0;0.0
97;0.09320800006389618;-0.07661599665880203;0.9838079810142517;0.2117919921875;-0.22252799570560455;1.107759952545166;0.0;0.0;0.0
100;0.0;0.0;0.0;0.2235039919614792;-0.20691199600696564;1.1165440082550049;0.0;0.0;0.0
102;0.0;0.0;0.0;0.2117919921875;-0.17958399653434753;1.1038559675216675;0.0;0.0;0.0
104;0.0;0.0;0.0;0.21959999203681946;-0.19910399615764618;1.124351978302002;0.0;0.0;0.0
106;0.09320800006389618;-0.07344400137662888;0.9833199977874756;0.21569599211215973;-0.2030079960823059;1.1360639333724976;0.42000001668930054;0.21000000834465027;0.699999988079071
108;0.0;0.0;0.0;0.23131199181079865;-0.19129599630832672;1.099951982498169;0.0;0.0;0.0
110;0.0;0.0;0.0;0.2235039919614792;-0.2147199958562851;1.124351978302002;0.0;0.0;0.0
112;0.0;0.0;0.0;0.21959999203681946;-0.2030079960823059;1.0921440124511719;0.0;0.0;0.0
114;0.09955199807882309;-0.07051599770784378;0.9791719913482666;0.20788799226284027;-0.19910399615764618;1.1116639375686646;-0.07000000029802322;0.07000000029802322;0.6299999952316284
117;0.0;0.0;0.0;0.22740799188613892;-0.21862399578094482;1.1038559675216675;0.0;0.0;0.0
119;0.0;0.0;0.0;0.24692799150943756;-0.19910399615764618;1.1165440082550049;0.0;0.0;0.0
121;0.0;0.0;0.0;0.22740799188613892;-0.22643199563026428;1.1038559675216675;0.0;0.0;0.0
123;0.10223599523305893;-0.07417599856853485;0.9752680063247681;0.2235039919614792;-0.19519999623298645;1.1038559675216675;-0.6299999952316284;0.21000000834465027;0.7699999809265137
125;0.0;0.0;0.0;0.21569599211215973;-0.22252799570560455;1.1126400232315063;0.0;0.0;0.0
127;0.0;0.0;0.0;0.23521599173545837;-0.2147199958562851;1.099951982498169;0.0;0.0;0.0
129;0.0;0.0;0.0;0.20398399233818054;-0.2147199958562851;1.1038559675216675;0.0;0.0;0.0
131;0.10174799710512161;-0.0773480013012886;0.9777079820632935;0.21569599211215973;-0.18348799645900726;1.107759952545166;-0.7699999809265137;0.6299999952316284;0.7699999809265137
134;0.0;0.0;0.0;0.23131199181079865;-0.19129599630832672;1.107759952545166;0.0;0.0;0.0
136;0.0;0.0;0.0;0.23521599173545837;-0.21862399578094482;1.1165440082550049;0.0;0.0;0.0
138;0.0;0.0;0.0;0.20788799226284027;-0.21081599593162537;1.1126400232315063;0.0;0.0;0.0
140;0.09808799624443054;-0.0785679966211319;0.9862479567527771;0.20788799226284027;-0.22643199563026428;1.148751974105835;-0.7699999809265137;0.8400000333786011;0.699999988079071
142;0.0;0.0;0.0;0.20398399233818054;-0.19519999623298645;1.1165440082550049;0.0;0.0;0.0
144;0.0;0.0;0.0;0.2235039919614792;-0.21862399578094482;1.124351978302002;0.0;0.0;0.0
146;0.0;0.0;0.0;0.19227199256420135;-0.20691199600696564;1.132159948348999;0.0;0.0;0.0
148;0.09174399822950363;-0.0785679966211319;0.98990797996521;0.19227199256420135;-0.2030079960823059;1.124351978302002;-0.8400000333786011;0.49000000953674316;0.5600000023841858
151;0.0;0.0;0.0;0.21959999203681946;-0.20691199600696564;1.124351978302002;0.0;0.0;0.0
153;0.0;0.0;0.0;0.2391199916601181;-0.21862399578094482;1.1204479932785034;0.0;0.0;0.0
155;0.0;0.0;0.0;0.2117919921875;-0.20691199600696564;1.1165440082550049;0.0;0.0;0.0
157;0.09149999916553497;-0.0785679966211319;0.9911279678344727;0.22740799188613892;-0.21081599593162537;1.1126400232315063;-0.7699999809265137;0.0;0.42000001668930054
159;0.0;0.0;0.0;0.21569599211215973;-0.18348799645900726;1.1282559633255005;0.0;0.0;0.0
161;0.0;0.0;0.0;0.20398399233818054;-0.2147199958562851;1.1282559633255005;0.0;0.0;0.0
163;0.0;0.0;0.0;0.19617599248886108;-0.19910399615764618;1.1126400232315063;0.0;0.0;0.0
165;0.09564799815416336;-0.08295999467372894;0.9896639585494995;0.2235039919614792;-0.22643199563026428;1.1204479932785034;-0.3499999940395355;0.0;0.3499999940395355
168;0.0;0.0;0.0;0.23131199181079865;-0.2147199958562851;1.1370400190353394;0.0;0.0;0.0
170;0.0;0.0;0.0;0.20398399233818054;-0.23423999547958374;1.1204479932785034;0.0;0.0;0.0
172;0.0;0.0;0.0;0.22740799188613892;-0.19519999623298645;1.1165440082550049;0.0;0.0;0.0
174;0.09930799901485443;-0.08588799834251404;0.9886879920959473;0.21959999203681946;-0.2147199958562851;1.124351978302002;0.2800000011920929;0.2800000011920929;0.49000000953674316
176;0.0;0.0;0.0;0.19617599248886108;-0.21862399578094482;1.107759952545166;0.0;0.0;0.0
178;0.0;0.0;0.0;0.21959999203681946;-0.21081599593162537;1.1126400232315063;0.0;0.0;0.0
180;0.0;0.0;0.0;0.1844639927148819;-0.2030079960823059;1.1126400232315063;0.0;0.0;0.0
182;0.09637999534606934;-0.08393599838018417;0.98990797996521;0.2391199916601181;-0.19910399615764618;1.107759952545166;0.9100000262260437;0.6299999952316284;0.5600000023841858
185;0.0;0.0;0.0;0.24302399158477783;-0.2030079960823059;1.1126400232315063;0.0;0.0;0.0
187;0.0;0.0;0.0;0.22740799188613892;-0.2030079960823059;1.124351978302002;0.0;0.0;0.0
189;0.0;0.0;0.0;0.19227199256420135;-0.23814399540424347;1.1204479932785034;0.0;0.0;0.0
191;0.09442799538373947;-0.07954400032758713;0.9874680042266846;0.20398399233818054;-0.2030079960823059;1.1126400232315063;1.190000057220459;0.7699999809265137;0.2800000011920929
193;0.0;0.0;0.0;0.19617599248886108;-0.230335995554924;1.132159948348999;0.0;0.0;0.0
195;0.0;0.0;0.0;0.21569599211215973;-0.22252799570560455;1.1204479932785034;0.0;0.0;0.0
197;0.0;0.0;0.0;0.23131199181079865;-0.19519999623298645;1.132159948348999;0.0;0.0;0.0
199;0.09784399718046188;-0.07685999572277069;0.9864919781684875;0.2235039919614792;-0.21862399578094482;1.1126400232315063;1.2599999904632568;0.9800000190734863;0.07000000029802322
202;0.0;0.0;0.0;0.20398399233818054;-0.19519999623298645;1.132159948348999;0.0;0.0;0.0
204;0.0;0.0;0.0;0.2117919921875;-0.2030079960823059;1.124351978302002;0.0;0.0;0.0
206;0.0;0.0;0.0;0.18836799263954163;-0.20691199600696564;1.1126400232315063;0.0;0.0;0.0
208;0.09516000002622604;-0.07246799767017365;0.9862479567527771;0.20788799226284027;-0.18348799645900726;1.1204479932785034;1.2599999904632568;1.0499999523162842;0.14000000059604645
210;0.0;0.0;0.0;0.2235039919614792;-0.19129599630832672;1.1038559675216675;0.0;0.0;0.0
212;0.0;0.0;0.0;0.20398399233818054;-0.2030079960823059;1.132159948348999;0.0;0.0;0.0
214;0.0;0.0;0.0;0.20788799226284027;-0.21081599593162537;1.1204479932785034;0.0;0.0;0.0
217;0.09613599628210068;-0.07002799957990646;0.9842959642410278;0.19617599248886108;-0.2147199958562851;1.1038559675216675;1.190000057220459;0.7699999809265137;0.21000000834465027
219;0.0;0.0;0.0;0.2117919921875;-0.2147199958562851;1.107759952545166;0.0;0.0;0.0
221;0.0;0.0;0.0;0.21569599211215973;-0.187391996383667;1.1126400232315063;0.0;0.0;0.0
223;0.0;0.0;0.0;0.21569599211215973;-0.19129599630832672;1.1204479932785034;0.0;0.0;0.0
225;0.09686800092458725;-0.06880799680948257;0.9830759763717651;0.20398399233818054;-0.19519999623298645;1.0960479974746704;0.699999988079071;0.6299999952316284;0.14000000059604645
227;0.0;0.0;0.0;0.20398399233818054;-0.19129599630832672;1.0921440124511719;0.0;0.0;0.0
229;0.0;0.0;0.0;0.23521599173545837;-0.2030079960823059;1.1087360382080078;0.0;0.0;0.0
231;0.0;0.0;0.0;0.21959999203681946;-0.21081599593162537;1.1116639375686646;0.0;0.0;0.0
233;0.09516000002622604;-0.07002799957990646;0.9811239838600159;0.20788799226284027;-0.21081599593162537;1.0960479974746704;0.21000000834465027;0.6299999952316284;0.21000000834465027
236;0.0;0.0;0.0;0.18836799263954163;-0.20691199600696564;1.1087360382080078;0.0;0.0;0.0
238;0.0;0.0;0.0;0.2235039919614792;-0.22643199563026428;1.1126400232315063;0.0;0.0;0.0
240;0.0;0.0;0.0;0.2000799924135208;-0.19519999623298645;1.1204479932785034;0.0;0.0;0.0
242;0.09174399822950363;-0.07295599579811096;0.9828319549560547;0.21959999203681946;-0.18348799645900726;1.1360639333724976;0.07000000029802322;0.42000001668930054;0.3499999940395355
244;0.0;0.0;0.0;0.21569599211215973;-0.20691199600696564;1.1282559633255005;0.0;0.0;0.0
246;0.0;0.0;0.0;0.21959999203681946;-0.2030079960823059;1.124351978302002;0.0;0.0;0.0
248;0.0;0.0;0.0;0.2000799924135208;-0.16396799683570862;1.1204479932785034;0.0;0.0;0.0
251;0.09003599733114243;-0.07344400137662888;0.9852719902992249;0.2117919921875;-0.20691199600696564;1.1204479932785034;0.14000000059604645;0.2800000011920929;0.6299999952316284
253;0.0;0.0;0.0;0.20398399233818054;-0.2147199958562851;1.1360639333724976;0.0;0.0;0.0
255;0.0;0.0;0.0;0.21569599211215973;-0.19910399615764618;1.1165440082550049;0.0;0.0;0.0
257;0.0;0.0;0.0;0.2235039919614792;-0.22252799570560455;1.1204479932785034;0.0;0.0;0.0
259;0.09149999916553497;-0.07393199950456619;0.9855159521102905;0.2000799924135208;-0.18348799645900726;1.1087360382080078;0.07000000029802322;0.14000000059604645;0.699999988079071
261;0.0;0.0;0.0;0.1844639927148819;-0.2030079960823059;1.1204479932785034;0.0;0.0;0.0
263;0.0;0.0;0.0;0.2235039919614792;-0.22643199563026428;1.107759952545166;0.0;0.0;0.0
265;0.0;0.0;0.0;0.23131199181079865;-0.17958399653434753;1.1165440082550049;0.0;0.0;0.0
268;0.09491600096225739;-0.07637199759483337;0.9842959642410278;0.21959999203681946;-0.230335995554924;1.132159948348999;0.07000000029802322;0.21000000834465027;0.6299999952316284
270;0.0;0.0;0.0;0.20398399233818054;-0.2030079960823059;1.1165440082550049;0.0;0.0;0.0
272;0.0;0.0;0.0;0.21569599211215973;-0.2030079960823059;1.0960479974746704;0.0;0.0;0.0
274;0.0;0.0;0.0;0.2000799924135208;-0.21081599593162537;1.1204479932785034;0.0;0.0;0.0
276;0.09467199444770813;-0.07759200036525726;0.9835639595985413;0.2117919921875;-0.19519999623298645;1.0960479974746704;0.2800000011920929;0.49000000953674316;0.49000000953674316
278;0.0;0.0;0.0;0.2117919921875;-0.20691199600696564;1.0882400274276733;0.0;0.0;0.0
280;0.0;0.0;0.0;0.19227199256420135;-0.19910399615764618;1.124351978302002;0.0;0.0;0.0
282;0.0;0.0;0.0;0.21959999203681946;-0.2147199958562851;1.132159948348999;0.0;0.0;0.0
285;0.09516000002622604;-0.07368800044059753;0.9850279688835144;0.21569599211215973;-0.21081599593162537;1.1038559675216675;0.42000001668930054;0.6299999952316284;0.42000001668930054
287;0.0;0.0;0.0;0.20398399233818054;-0.19519999623298645;1.1165440082550049;0.0;0.0;0.0
289;0.0;0.0;0.0;0.21569599211215973;-0.19519999623298645;1.1038559675216675;0.0;0.0;0.0
291;0.0;0.0;0.0;0.23131199181079865;-0.19910399615764618;1.1165440082550049;0.0;0.0;0.0
293;0.10028399527072906;-0.0710039958357811;0.9852719902992249;0.22740799188613892;-0.21862399578094482;1.107759952545166;0.0;0.6299999952316284;0.42000001668930054
295;0.0;0.0;0.0;0.21959999203681946;-0.19910399615764618;1.1204479932785034;0.0;0.0;0.0
297;0.0;0.0;0.0;0.21569599211215973;-0.21081599593162537;1.1126400232315063;0.0;0.0;0.0
299;0.0;0.0;0.0;0.19617599248886108;-0.19910399615764618;1.1126400232315063;0.0;0.0;0.0
302;0.09784399718046188;-0.0727119967341423;0.9869799613952637;0.2000799924135208;-0.19910399615764618;1.1282559633255005;-0.3499999940395355;0.699999988079071;0.6299999952316284
304;0.0;0.0;0.0;0.19227199256420135;-0.19519999623298645;1.1165440082550049;0.0;0.0;0.0
306;0.0;0.0;0.0;0.20398399233818054;-0.21081599593162537;1.1204479932785034;0.0;0.0;0.0
308;0.0;0.0;0.0;0.19617599248886108;-0.23423999547958374;1.1360639333724976;0.0;0.0;0.0
310;0.08735200017690659;-0.0773480013012886;0.9921039938926697;0.18836799263954163;-0.2147199958562851;1.124351978302002;-0.2800000011920929;0.5600000023841858;0.5600000023841858
312;0.0;0.0;0.0;0.19227199256420135;-0.2420479953289032;1.148751974105835;0.0;0.0;0.0
314;0.0;0.0;0.0;0.19227199256420135;-0.22252799570560455;1.140944004058838;0.0;0.0;0.0
316;0.0;0.0;0.0;0.2117919921875;-0.20691199600696564;1.1204479932785034;0.0;0.0;0.0
319;0.08417999744415283;-0.07685999572277069;0.9962520003318787;0.20788799226284027;-0.19519999623298645;1.1126400232315063;-0.07000000029802322;-0.07000000029802322;0.3499999940395355
321;0.0;0.0;0.0;0.2117919921875;-0.2030079960823059;1.1165440082550049;0.0;0.0;0.0
323;0.0;0.0;0.0;0.21959999203681946;-0.20691199600696564;1.1038559675216675;0.0;0.0;0.0
325;0.0;0.0;0.0;0.18836799263954163;-0.19519999623298645;1.1204479932785034;0.0;0.0;0.0
327;0.09516000002622604;-0.07515199482440948;0.9928359985351562;0.24302399158477783;-0.21081599593162537;1.124351978302002;0.07000000029802322;-0.6299999952316284;0.42000001668930054
329;0.0;0.0;0.0;0.23131199181079865;-0.19910399615764618;1.1126400232315063;0.0;0.0;0.0
331;0.0;0.0;0.0;0.2391199916601181;-0.19910399615764618;1.1165440082550049;0.0;0.0;0.0
333;0.0;0.0;0.0;0.21959999203681946;-0.19129599630832672;1.099951982498169;0.0;0.0;0.0
336;0.10662800073623657;-0.0773480013012886;0.9796599745750427;0.21959999203681946;-0.21862399578094482;1.0960479974746704;0.42000001668930054;-0.49000000953674316;0.699999988079071
338;0.0;0.0;0.0;0.20398399233818054;-0.20691199600696564;1.083359956741333;0.0;0.0;0.0
340;0.0;0.0;0.0;0.20788799226284027;-0.19519999623298645;1.107759952545166;0.0;0.0;0.0
342;0.0;0.0;0.0;0.2235039919614792;-0.2030079960823059;1.0960479974746704;0.0;0.0;0.0
344;0.1029679998755455;-0.08100800216197968;0.9747799634933472;0.2391199916601181;-0.21081599593162537;1.0921440124511719;0.9100000262260437;0.6299999952316284;0.7699999809265137
346;0.0;0.0;0.0;0.2117919921875;-0.19519999623298645;1.124351978302002;0.0;0.0;0.0
348;0.0;0.0;0.0;0.21959999203681946;-0.2030079960823059;1.1165440082550049;0.0;0.0;0.0
350;0.0;0.0;0.0;0.20398399233818054;-0.2147199958562851;1.1165440082550049;0.0;0.0;0.0
353;0.09564799815416336;-0.07978799939155579;0.9789279699325562;0.22740799188613892;-0.21081599593162537;1.124351978302002;1.190000057220459;1.3300000429153442;0.3499999940395355
355;0.0;0.0;0.0;0.18836799263954163;-0.2030079960823059;1.1038559675216675;0.0;0.0;0.0
357;0.0;0.0;0.0;0.19227199256420135;-0.19910399615764618;1.1165440082550049;0.0;0.0;0.0
359;0.0;0.0;0.0;0.20788799226284027;-0.19910399615764618;1.124351978302002;0.0;0.0;0.0
361;0.08979199826717377;-0.07393199950456619;0.985759973526001;0.23521599173545837;-0.2030079960823059;1.1165440082550049;1.0499999523162842;1.190000057220459;0.21000000834465027
363;0.0;0.0;0.0;0.18055999279022217;-0.19910399615764618;1.1116639375686646;0.0;0.0;0.0
365;0.0;0.0;0.0;0.21959999203681946;-0.20691199600696564;1.0960479974746704;0.0;0.0;0.0
367;0.0;0.0;0.0;0.2000799924135208;-0.19129599630832672;1.1165440082550049;0.0;0.0;0.0
370;0.09003599733114243;-0.06880799680948257;0.9855159521102905;0.18836799263954163;-0.2147199958562851;1.1126400232315063;0.3499999940395355;0.5600000023841858;0.21000000834465027
372;0.0;0.0;0.0;0.2117919921875;-0.19910399615764618;1.1038559675216675;0.0;0.0;0.0
374;0.0;0.0;0.0;0.23131199181079865;-0.2030079960823059;1.1126400232315063;0.0;0.0;0.0
376;0.0;0.0;0.0;0.21959999203681946;-0.19129599630832672;1.1038559675216675;0.0;0.0;0.0
378;0.09272000193595886;-0.06856399774551392;0.9838079810142517;0.2000799924135208;-0.2030079960823059;1.124351978302002;-0.3499999940395355;0.14000000059604645;0.3499999940395355
380;0.0;0.0;0.0;0.20398399233818054;-0.19910399615764618;1.1165440082550049;0.0;0.0;0.0
382;0.0;0.0;0.0;0.18836799263954163;-0.2147199958562851;1.1204479932785034;0.0;0.0;0.0
384;0.0;0.0;0.0;0.20398399233818054;-0.187391996383667;1.1204479932785034;0.0;0.0;0.0
387;0.09272000193595886;-0.07368800044059753;0.9879559874534607;0.21959999203681946;-0.19910399615764618;1.148751974105835;-0.699999988079071;0.07000000029802322;0.49000000953674316
389;0.0;0.0;0.0;0.24302399158477783;-0.20691199600696564;1.124351978302002;0.0;0.0;0.0
391;0.0;0.0;0.0;0.21959999203681946;-0.2147199958562851;1.132159948348999;0.0;0.0;0.0
393;0.0;0.0;0.0;0.19617599248886108;-0.23814399540424347;1.1526559591293335;0.0;0.0;0.0
395;0.09296400099992752;-0.07710400223731995;0.9938119649887085;0.2235039919614792;-0.2147199958562851;1.1370400190353394;-0.49000000953674316;0.14000000059604645;0.699999988079071
397;0.0;0.0;0.0;0.20398399233818054;-0.22643199563026428;1.1282559633255005;0.0;0.0;0.0
399;0.0;0.0;0.0;0.20398399233818054;-0.2147199958562851;1.1282559633255005;0.0;0.0;0.0
401;0.0;0.0;0.0;0.20788799226284027;-0.2030079960823059;1.124351978302002;0.0;0.0;0.0
404;0.08808399736881256;-0.07612799853086472;0.9977160096168518;0.20398399233818054;-0.21081599593162537;1.148751974105835;0.0;-0.14000000059604645;0.8400000333786011
406;0.0;0.0;0.0;0.23131199181079865;-0.20691199600696564;1.140944004058838;0.0;0.0;0.0
408;0.0;0.0;0.0;0.2235039919614792;-0.2147199958562851;1.0921440124511719;0.0;0.0;0.0
410;0.0;0.0;0.0;0.19617599248886108;-0.187391996383667;1.1204479932785034;0.0;0.0;0.0
412;0.09101200103759766;-0.0756400004029274;0.9911279678344727;0.2117919921875;-0.20691199600696564;1.107759952545166;0.42000001668930054;-0.49000000953674316;0.8400000333786011
414;0.0;0.0;0.0;0.21959999203681946;-0.2030079960823059;1.124351978302002;0.0;0.0;0.0
416;0.0;0.0;0.0;0.20788799226284027;-0.22643199563026428;1.1204479932785034;0.0;0.0;0.0
418;0.0;0.0;0.0;0.20788799226284027;-0.22252799570560455;1.0960479974746704;0.0;0.0;0.0
421;0.10101599991321564;-0.07783599942922592;0.9781959652900696;0.20788799226284027;-0.22643199563026428;1.0843359231948853;0.9100000262260437;-0.5600000023841858;0.699999988079071
423;0.0;0.0;0.0;0.22740799188613892;-0.19519999623298645;1.107759952545166;0.0;0.0;0.0
425;0.0;0.0;0.0;0.24692799150943756;-0.2030079960823059;1.0960479974746704;0.0;0.0;0.0
427;0.0;0.0;0.0;0.2235039919614792;-0.20691199600696564;1.1038559675216675;0.0;0.0;0.0
429;0.1029679998755455;-0.07759200036525726;0.9723399877548218;0.21569599211215973;-0.21862399578094482;1.0921440124511719;1.190000057220459;0.3499999940395355;0.5600000023841858
431;0.0;0.0;0.0;0.23521599173545837;-0.19910399615764618;1.0960479974746704;0.0;0.0;0.0
433;0.0;0.0;0.0;0.2117919921875;-0.19129599630832672;1.1370400190353394;0.0;0.0;0.0
436;0.0;0.0;0.0;0.20788799226284027;-0.19910399615764618;1.0960479974746704;0.0;0.0;0.0
438;0.09686800092458725;-0.07149200141429901;0.9759999513626099;0.2117919921875;-0.19910399615764618;1.0921440124511719;1.190000057220459;1.0499999523162842;0.2800000011920929
440;0.0;0.0;0.0;0.20788799226284027;-0.17958399653434753;1.1116639375686646;0.0;0.0;0.0
442;0.0;0.0;0.0;0.2235039919614792;-0.2147199958562851;1.124351978302002;0.0;0.0;0.0
444;0.0;0.0;0.0;0.22740799188613892;-0.17958399653434753;1.1204479932785034;0.0;0.0;0.0
446;0.0936959981918335;-0.06490399688482285;0.985759973526001;0.20398399233818054;-0.19519999623298645;1.1165440082550049;0.42000001668930054;1.1200000047683716;0.42000001668930054
448;0.0;0.0;0.0;0.21569599211215973;-0.2147199958562851;1.1126400232315063;0.0;0.0;0.0
450;0.0;0.0;0.0;0.21959999203681946;-0.2147199958562851;1.124351978302002;0.0;0.0;0.0
453;0.0;0.0;0.0;0.22740799188613892;-0.21081599593162537;1.0960479974746704;0.0;0.0;0.0
455;0.09345199912786484;-0.06417199969291687;0.9877119660377502;0.17665599286556244;-0.22252799570560455;1.1126400232315063;-0.699999988079071;0.5600000023841858;0.8400000333786011
457;0.0;0.0;0.0;0.23131199181079865;-0.18348799645900726;1.107759952545166;0.0;0.0;0.0
459;0.0;0.0;0.0;0.2000799924135208;-0.2030079960823059;1.124351978302002;0.0;0.0;0.0
461;0.0;0.0;0.0;0.20788799226284027;-0.20691199600696564;1.107759952545166;0.0;0.0;0.0
463;0.0924759954214096;-0.0727119967341423;0.9864919781684875;0.2000799924135208;-0.21081599593162537;1.1165440082550049;-1.3300000429153442;0.14000000059604645;1.2599999904632568
465;0.0;0.0;0.0;0.20398399233818054;-0.2030079960823059;1.124351978302002;0.0;0.0;0.0
467;0.0;0.0;0.0;0.20398399233818054;-0.2030079960823059;1.124351978302002;0.0;0.0;0.0
470;0.0;0.0;0.0;0.21569599211215973;-0.2147199958562851;1.132159948348999;0.0;0.0;0.0
472;0.09149999916553497;-0.08100800216197968;0.9869799613952637;0.2000799924135208;-0.23423999547958374;1.1126400232315063;-1.3300000429153442;-0.07000000029802322;1.190000057220459
474;0.0;0.0;0.0;0.2508319914340973;-0.22252799570560455;1.124351978302002;0.0;0.0;0.0
476;0.0;0.0;0.0;0.20398399233818054;-0.21081599593162537;1.132159948348999;0.0;0.0;0.0
478;0.0;0.0;0.0;0.2000799924135208;-0.230335995554924;1.148751974105835;0.0;0.0;0.0
480;0.09198799729347229;-0.08564399927854538;0.9906399846076965;0.21959999203681946;-0.21081599593162537;1.1282559633255005;-0.699999988079071;-0.07000000029802322;0.7699999809265137
482;0.0;0.0;0.0;0.21959999203681946;-0.23423999547958374;1.1360639333724976;0.0;0.0;0.0
484;0.0;0.0;0.0;0.21959999203681946;-0.21081599593162537;1.1282559633255005;0.0;0.0;0.0
487;0.0;0.0;0.0;0.22740799188613892;-0.22252799570560455;1.0921440124511719;0.0;0.0;0.0
489;0.09467199444770813;-0.08344800025224686;0.9945439696311951;0.2235039919614792;-0.21862399578094482;1.132159948348999;0.07000000029802322;-0.2800000011920929;0.42000001668930054
491;0.0;0.0;0.0;0.20788799226284027;-0.22643199563026428;1.124351978302002;0.0;0.0;0.0
493;0.0;0.0;0.0;0.2508319914340973;-0.21081599593162537;1.1116639375686646;0.0;0.0;0.0
495;0.0;0.0;0.0;0.24302399158477783;-0.20691199600696564;1.132159948348999;0.0;0.0;0.0
497;0.10345599800348282;-0.07954400032758713;0.9874680042266846;0.23521599173545837;-0.19129599630832672;1.1282559633255005;0.7699999809265137;-0.14000000059604645;0.3499999940395355
499;0.0;0.0;0.0;0.23521599173545837;-0.230335995554924;1.1038559675216675;0.0;0.0;0.0
501;0.0;0.0;0.0;0.23131199181079865;-0.21862399578094482;1.0960479974746704;0.0;0.0;0.0
504;0.0;0.0;0.0;0.19617599248886108;-0.22643199563026428;1.132159948348999;0.0;0.0;0.0
506;0.10613999515771866;-0.07832399755716324;0.9828319549560547;0.21569599211215973;-0.19910399615764618;1.1126400232315063;1.2599999904632568;0.3499999940395355;0.3499999940395355
508;0.0;0.0;0.0;0.23521599173545837;-0.21862399578094482;1.124351978302002;0.0;0.0;0.0
510;0.0;0.0;0.0;0.21959999203681946;-0.21862399578094482;1.1204479932785034;0.0;0.0;0.0
512;0.0;0.0;0.0;0.19617599248886108;-0.19910399615764618;1.0960479974746704;0.0;0.0;0.0
514;0.0983319953083992;-0.07661599665880203;0.9811239838600159;0.21569599211215973;-0.20691199600696564;1.0882400274276733;1.6100000143051147;0.9100000262260437;0.14000000059604645
516;0.0;0.0;0.0;0.20788799226284027;-0.21862399578094482;1.1282559633255005;0.0;0.0;0.0
518;0.0;0.0;0.0;0.23131199181079865;-0.2147199958562851;1.1165440082550049;0.0;0.0;0.0
521;0.0;0.0;0.0;0.21569599211215973;-0.19910399615764618;1.1038559675216675;0.0;0.0;0.0
523;0.09516000002622604;-0.07173600047826767;0.9842959642410278;0.21959999203681946;-0.21862399578094482;1.124351978302002;1.4700000286102295;1.2599999904632568;0.0
525;0.0;0.0;0.0;0.21569599211215973;-0.2030079960823059;1.1165440082550049;0.0;0.0;0.0
527;0.0;0.0;0.0;0.19617599248886108;-0.19519999623298645;1.1204479932785034;0.0;0.0;0.0
529;0.0;0.0;0.0;0.2000799924135208;-0.187391996383667;1.1126400232315063;0.0;0.0;0.0
531;0.09149999916553497;-0.06856399774551392;0.9847840070724487;0.2000799924135208;-0.19910399615764618;1.1204479932785034;0.7699999809265137;1.190000057220459;0.2800000011920929
533;0.0;0.0;0.0;0.19227199256420135;-0.2030079960823059;1.1126400232315063;0.0;0.0;0.0
535;0.0;0.0;0.0;0.21569599211215973;-0.19910399615764618;1.1038559675216675;0.0;0.0;0.0
538;0.0;0.0;0.0;0.19227199256420135;-0.17958399653434753;1.1204479932785034;0.0;0.0;0.0
540;0.08125200122594833;-0.06954000145196915;0.9845399856567383;0.20398399233818054;-0.2030079960823059;1.1038559675216675;0.2800000011920929;0.8400000333786011;0.6299999952316284
542;0.0;0.0;0.0;0.20788799226284027;-0.21081599593162537;1.107759952545166;0.0;0.0;0.0
544;0.0;0.0;0.0;0.21569599211215973;-0.19910399615764618;1.107759952545166;0.0;0.0;0.0
546;0.0;0.0;0.0;0.18836799263954163;-0.17958399653434753;1.1165440082550049;0.0;0.0;0.0
548;0.07832399755716324;-0.07075999677181244;0.9869799613952637;0.19227199256420135;-0.18348799645900726;1.1282559633255005;0.0;0.3499999940395355;0.6299999952316284
550;0.0;0.0;0.0;0.2235039919614792;-0.20691199600696564;1.1126400232315063;0.0;0.0;0.0
552;0.0;0.0;0.0;0.21569599211215973;-0.21862399578094482;1.132159948348999;0.0;0.0;0.0
555;0.0;0.0;0.0;0.19227199256420135;-0.19129599630832672;1.124351978302002;0.0;0.0;0.0
557;0.08417999744415283;-0.0697840005159378;0.9896639585494995;0.19617599248886108;-0.24595199525356293;1.1126400232315063;-0.14000000059604645;-0.21000000834465027;0.8400000333786011
559;0.0;0.0;0.0;0.19617599248886108;-0.19519999623298645;1.1282559633255005;0.0;0.0;0.0
561;0.0;0.0;0.0;0.2508319914340973;-0.19910399615764618;1.107759952545166;0.0;0.0;0.0
563;0.0;0.0;0.0;0.23521599173545837;-0.19129599630832672;1.132159948348999;0.0;0.0;0.0
565;0.09467199444770813;-0.07002799957990646;0.9879559874534607;0.2391199916601181;-0.21862399578094482;1.124351978302002;-0.21000000834465027;-0.5600000023841858;1.1200000047683716
567;0.0;0.0;0.0;0.20398399233818054;-0.19910399615764618;1.1204479932785034;0.0;0.0;0.0
569;0.0;0.0;0.0;0.21569599211215973;-0.187391996383667;1.107759952545166;0.0;0.0;0.0
572;0.0;0.0;0.0;0.20788799226284027;-0.20691199600696564;1.1282559633255005;0.0;0.0;0.0
574;0.09979599714279175;-0.07466399669647217;0.9862479567527771;0.21959999203681946;-0.21081599593162537;1.1282559633255005;-0.21000000834465027;-0.3499999940395355;1.399999976158142
576;0.0;0.0;0.0;0.22740799188613892;-0.19129599630832672;1.1360639333724976;0.0;0.0;0.0
578;0.0;0.0;0.0;0.22740799188613892;-0.21862399578094482;1.1165440082550049;0.0;0.0;0.0
580;0.0;0.0;0.0;0.23131199181079865;-0.22252799570560455;1.132159948348999;0.0;0.0;0.0
582;0.09662400186061859;-0.07954400032758713;0.9860039949417114;0.20788799226284027;-0.2030079960823059;1.124351978302002;0.2800000011920929;-0.14000000059604645;1.399999976158142
585;0.0;0.0;0.0;0.24302399158477783;-0.22643199563026428;1.132159948348999;0.0;0.0;0.0
587;0.0;0.0;0.0;0.23521599173545837;-0.20691199600696564;1.107759952545166;0.0;0.0;0.0
589;0.0;0.0;0.0;0.22740799188613892;-0.23814399540424347;1.1282559633255005;0.0;0.0;0.0
591;0.10735999792814255;-0.0802759975194931;0.9860039949417114;0.24302399158477783;-0.19910399615764618;1.1038559675216675;0.9100000262260437;0.2800000011920929;1.399999976158142
593;0.0;0.0;0.0;0.20788799226284027;-0.20691199600696564;1.107759952545166;0.0;0.0;0.0
595;0.0;0.0;0.0;0.21959999203681946;-0.19129599630832672;1.1360639333724976;0.0;0.0;0.0
597;0.0;0.0;0.0;0.18836799263954163;-0.19129599630832672;1.1204479932785034;0.0;0.0;0.0
599;0.09686800092458725;-0.07149200141429901;0.9928359985351562;0.20788799226284027;-0.21081599593162537;1.124351978302002;1.4700000286102295;0.7699999809265137;2.940000057220459
602;0.0;0.0;0.0;0.21569599211215973;-0.16787199676036835;1.1204479932785034;0.0;0.0;0.0
603;0.0;0.0;0.0;0.2117919921875;-0.2030079960823059;1.099951982498169;0.0;0.0;0.0
606;0.0;0.0;0.0;0.21959999203681946;-0.20691199600696564;1.1165440082550049;0.0;0.0;0.0
608;0.09149999916553497;-0.06880799680948257;0.9845399856567383;0.2235039919614792;-0.2030079960823059;1.1038559675216675;1.190000057220459;0.07000000029802322;1.0499999523162842
610;0.0;0.0;0.0;0.2391199916601181;-0.21862399578094482;1.0882400274276733;0.0;0.0;0.0
612;0.0;0.0;0.0;0.2117919921875;-0.22252799570560455;1.099951982498169;0.0;0.0;0.0
614;0.0;0.0;0.0;0.2117919921875;-0.20691199600696564;1.1038559675216675;0.0;0.0;0.0
616;0.10638399422168732;-0.07637199759483337;0.9803919792175293;0.2235039919614792;-0.19519999623298645;1.099951982498169;0.9800000190734863;0.3499999940395355;0.2800000011920929
619;0.0;0.0;0.0;0.23521599173545837;-0.21081599593162537;1.099951982498169;0.0;0.0;0.0
621;0.0;0.0;0.0;0.23131199181079865;-0.19519999623298645;1.1165440082550049;0.0;0.0;0.0
623;0.0;0.0;0.0;0.2235039919614792;-0.2030079960823059;1.1126400232315063;0.0;0.0;0.0
625;0.10540799796581268;-0.0697840005159378;0.9801479578018188;0.2000799924135208;-0.19129599630832672;1.1038559675216675;0.8400000333786011;0.9800000190734863;0.21000000834465027
627;0.0;0.0;0.0;0.20788799226284027;-0.2030079960823059;1.124351978302002;0.0;0.0;0.0
629;0.0;0.0;0.0;0.2000799924135208;-0.21081599593162537;1.1126400232315063;0.0;0.0;0.0
631;0.0;0.0;0.0;0.2117919921875;-0.21862399578094482;1.099951982498169;0.0;0.0;0.0
633;0.0907679945230484;-0.06441599875688553;0.9869799613952637;0.18836799263954163;-0.19519999623298645;1.124351978302002;0.49000000953674316;0.9100000262260437;0.49000000953674316
636;0.0;0.0;0.0;0.18836799263954163;-0.2030079960823059;1.1204479932785034;0.0;0.0;0.0
637;0.0;0.0;0.0;0.19617599248886108;-0.19910399615764618;1.1448479890823364;0.0;0.0;0.0
640;0.0;0.0;0.0;0.16884799301624298;-0.20691199600696564;1.1448479890823364;0.0;0.0;0.0
642;0.0785679966211319;-0.06685599684715271;0.9947879910469055;0.17665599286556244;-0.21081599593162537;1.1360639333724976;0.07000000029802322;0.21000000834465027;0.6299999952316284
644;0.0;0.0;0.0;0.20398399233818054;-0.2030079960823059;1.1282559633255005;0.0;0.0;0.0
646;0.0;0.0;0.0;0.19227199256420135;-0.2030079960823059;1.1204479932785034;0.0;0.0;0.0
648;0.0;0.0;0.0;0.2235039919614792;-0.19910399615764618;1.1038559675216675;0.0;0.0;0.0
650;0.08051999658346176;-0.06831999868154526;0.9957639575004578;0.2000799924135208;-0.17958399653434753;1.1360639333724976;-0.7699999809265137;-0.8400000333786011;0.8400000333786011
653;0.0;0.0;0.0;0.2235039919614792;-0.2030079960823059;1.124351978302002;0.0;0.0;0.0
655;0.0;0.0;0.0;0.21959999203681946;-0.19129599630832672;1.107759952545166;0.0;0.0;0.0
657;0.0;0.0;0.0;0.19617599248886108;-0.19910399615764618;1.124351978302002;0.0;0.0;0.0
659;0.09027999639511108;-0.07002799957990646;0.9874680042266846;0.2000799924135208;-0.19129599630832672;1.099951982498169;-0.9100000262260437;-1.4700000286102295;1.2599999904632568
661;0.0;0.0;0.0;0.2000799924135208;-0.21862399578094482;1.124351978302002;0.0;0.0;0.0
663;0.0;0.0;0.0;0.21569599211215973;-0.20691199600696564;1.0921440124511719;0.0;0.0;0.0
665;0.0;0.0;0.0;0.20398399233818054;-0.22252799570560455;1.107759952545166;0.0;0.0;0.0
667;0.09735599905252457;-0.07246799767017365;0.97843998670578;0.20398399233818054;-0.21081599593162537;1.1116639375686646;-0.699999988079071;-1.2599999904632568;1.190000057220459
670;0.0;0.0;0.0;0.2117919921875;-0.20691199600696564;1.1165440082550049;0.0;0.0;0.0
672;0.0;0.0;0.0;0.21959999203681946;-0.19519999623298645;1.1126400232315063;0.0;0.0;0.0
674;0.0;0.0;0.0;0.19617599248886108;-0.19910399615764618;1.099951982498169;0.0;0.0;0.0
676;0.0983319953083992;-0.07320000231266022;0.9759999513626099;0.2000799924135208;-0.2030079960823059;1.1165440082550049;-0.49000000953674316;-0.3499999940395355;0.9100000262260437
678;0.0;0.0;0.0;0.2117919921875;-0.20691199600696564;1.1282559633255005;0.0;0.0;0.0
680;0.0;0.0;0.0;0.2000799924135208;-0.19129599630832672;1.1165440082550049;0.0;0.0;0.0
682;0.0;0.0;0.0;0.2117919921875;-0.2030079960823059;1.099951982498169;0.0;0.0;0.0
684;0.09296400099992752;-0.06856399774551392;0.9835639595985413;0.20398399233818054;-0.2030079960823059;1.1165440082550049;-0.42000001668930054;0.2800000011920929;0.5600000023841858
687;0.0;0.0;0.0;0.22740799188613892;-0.2030079960823059;1.1204479932785034;0.0;0.0;0.0
689;0.0;0.0;0.0;0.2117919921875;-0.2030079960823059;1.1204479932785034;0.0;0.0;0.0
691;0.0;0.0;0.0;0.2000799924135208;-0.19129599630832672;1.1282559633255005;0.0;0.0;0.0
693;0.09198799729347229;-0.059779997915029526;0.9894199967384338;0.23131199181079865;-0.1756799966096878;1.1126400232315063;-0.5600000023841858;0.21000000834465027;0.3499999940395355
695;0.0;0.0;0.0;0.2235039919614792;-0.19129599630832672;1.132159948348999;0.0;0.0;0.0
697;0.0;0.0;0.0;0.19617599248886108;-0.19519999623298645;1.140944004058838;0.0;0.0;0.0
699;0.0;0.0;0.0;0.20398399233818054;-0.187391996383667;1.1204479932785034;0.0;0.0;0.0
701;0.09320800006389618;-0.05392399802803993;0.9955199956893921;0.20788799226284027;-0.1756799966096878;1.1204479932785034;-1.1200000047683716;-0.21000000834465027;0.699999988079071
704;0.0;0.0;0.0;0.2000799924135208;-0.18348799645900726;1.132159948348999;0.0;0.0;0.0
706;0.0;0.0;0.0;0.20788799226284027;-0.19910399615764618;1.1204479932785034;0.0;0.0;0.0
708;0.0;0.0;0.0;0.19617599248886108;-0.187391996383667;1.1360639333724976;0.0;0.0;0.0
710;0.09223199635744095;-0.05636399984359741;0.9930799603462219;0.20398399233818054;-0.16787199676036835;1.1204479932785034;-2.0999999046325684;-0.9100000262260437;1.2599999904632568
712;0.0;0.0;0.0;0.22740799188613892;-0.19910399615764618;1.140944004058838;0.0;0.0;0.0
714;0.0;0.0;0.0;0.2117919921875;-0.20691199600696564;1.107759952545166;0.0;0.0;0.0
716;0.0;0.0;0.0;0.23131199181079865;-0.2030079960823059;1.1126400232315063;0.0;0.0;0.0
718;0.09662400186061859;-0.06368400156497955;0.9864919781684875;0.23521599173545837;-0.19910399615764618;1.1165440082550049;-2.5899999141693115;-1.3300000429153442;1.6100000143051147
721;0.0;0.0;0.0;0.22740799188613892;-0.20691199600696564;1.124351978302002;0.0;0.0;0.0
723;0.0;0.0;0.0;0.22740799188613892;-0.1756799966096878;1.1038559675216675;0.0;0.0;0.0
725;0.0;0.0;0.0;0.20788799226284027;-0.2030079960823059;1.1126400232315063;0.0;0.0;0.0
727;0.09662400186061859;-0.06758800148963928;0.9850279688835144;0.23131199181079865;-0.19519999623298645;1.107759952545166;-2.7300000190734863;-1.1200000047683716;1.5399999618530273
729;0.0;0.0;0.0;0.21569599211215973;-0.19910399615764618;1.1116639375686646;0.0;0.0;0.0
731;0.0;0.0;0.0;0.19617599248886108;-0.19129599630832672;1.1126400232315063;0.0;0.0;0.0
733;0.0;0.0;0.0;0.2235039919614792;-0.19129599630832672;1.1204479932785034;0.0;0.0;0.0
735;0.09003599733114243;-0.06905199587345123;0.9913719892501831;0.19227199256420135;-0.17177599668502808;1.107759952545166;-2.6600000858306885;-0.8400000333786011;1.399999976158142
738;0.0;0.0;0.0;0.20398399233818054;-0.19519999623298645;1.156559944152832;0.0;0.0;0.0
740;0.0;0.0;0.0;0.2117919921875;-0.2030079960823059;1.1204479932785034;0.0;0.0;0.0
742;0.0;0.0;0.0;0.1844639927148819;-0.187391996383667;1.132159948348999;0.0;0.0;0.0
744;0.0832040011882782;-0.06734399497509003;1.0040600299835205;0.21959999203681946;-0.19519999623298645;1.148751974105835;-2.799999952316284;-1.2599999904632568;1.5399999618530273
746;0.0;0.0;0.0;0.2117919921875;-0.19910399615764618;1.124351978302002;0.0;0.0;0.0
748;0.0;0.0;0.0;0.20398399233818054;-0.18348799645900726;1.148751974105835;0.0;0.0;0.0
750;0.0;0.0;0.0;0.19617599248886108;-0.187391996383667;1.132159948348999;0.0;0.0;0.0
752;0.08271599560976028;-0.06929600238800049;1.0094280242919922;0.19227199256420135;-0.20691199600696564;1.1360639333724976;-3.0799999237060547;-2.309999942779541;1.8200000524520874
755;0.0;0.0;0.0;0.20398399233818054;-0.2147199958562851;1.1282559633255005;0.0;0.0;0.0
757;0.0;0.0;0.0;0.2000799924135208;-0.21862399578094482;1.1604639291763306;0.0;0.0;0.0
759;0.0;0.0;0.0;0.21959999203681946;-0.20691199600696564;1.1282559633255005;0.0;0.0;0.0
761;0.08881600201129913;-0.07344400137662888;1.0086959600448608;0.2117919921875;-0.21081599593162537;1.1526559591293335;-3.3600001335144043;-3.1500000953674316;1.8200000524520874
763;0.0;0.0;0.0;0.22740799188613892;-0.22252799570560455;1.1204479932785034;0.0;0.0;0.0
765;0.0;0.0;0.0;0.21959999203681946;-0.21081599593162537;1.124351978302002;0.0;0.0;0.0
767;0.0;0.0;0.0;0.25863999128341675;-0.21862399578094482;1.173151969909668;0.0;0.0;0.0
769;0.1000399962067604;-0.07954400032758713;1.0062559843063354;0.23521599173545837;-0.2147199958562851;1.148751974105835;-3.3600001335144043;-3.640000104904175;1.6800000667572021
772;0.0;0.0;0.0;0.23131199181079865;-0.22643199563026428;1.132159948348999;0.0;0.0;0.0
774;0.0;0.0;0.0;0.21959999203681946;-0.24985599517822266;1.1370400190353394;0.0;0.0;0.0
776;0.0;0.0;0.0;0.23521599173545837;-0.2147199958562851;1.1282559633255005;0.0;0.0;0.0
778;0.10272400081157684;-0.0861319974064827;1.0035719871520996;0.25863999128341675;-0.23423999547958374;1.1282559633255005;-2.799999952316284;-3.8499999046325684;1.399999976158142
780;0.0;0.0;0.0;0.22740799188613892;-0.21862399578094482;1.1282559633255005;0.0;0.0;0.0
782;0.0;0.0;0.0;0.20788799226284027;-0.21862399578094482;1.1448479890823364;0.0;0.0;0.0
784;0.0;0.0;0.0;0.22740799188613892;-0.2420479953289032;1.148751974105835;0.0;0.0;0.0
786;0.10613999515771866;-0.09125600010156631;0.9964959621429443;0.23521599173545837;-0.23423999547958374;1.124351978302002;-2.0999999046325684;-3.9200000762939453;1.399999976158142
789;0.0;0.0;0.0;0.23131199181079865;-0.230335995554924;1.1360639333724976;0.0;0.0;0.0
791;0.0;0.0;0.0;0.21569599211215973;-0.19129599630832672;1.1204479932785034;0.0;0.0;0.0
793;0.0;0.0;0.0;0.23131199181079865;-0.20691199600696564;1.1448479890823364;0.0;0.0;0.0
795;0.1105320006608963;-0.0878399983048439;0.9947879910469055;0.23131199181079865;-0.19910399615764618;1.140944004058838;-1.6100000143051147;-3.5;1.3300000429153442
797;0.0;0.0;0.0;0.2508319914340973;-0.20691199600696564;1.1165440082550049;0.0;0.0;0.0
799;0.0;0.0;0.0;0.21959999203681946;-0.230335995554924;1.132159948348999;0.0;0.0;0.0
801;0.0;0.0;0.0;0.20788799226284027;-0.2147199958562851;1.1165440082550049;0.0;0.0;0.0
803;0.11711999773979187;-0.08588799834251404;0.9889319539070129;0.2508319914340973;-0.230335995554924;1.099951982498169;-1.5399999618530273;-3.5;1.2599999904632568
806;0.0;0.0;0.0;0.24302399158477783;-0.2420479953289032;1.1204479932785034;0.0;0.0;0.0
808;0.0;0.0;0.0;0.25863999128341675;-0.22252799570560455;1.107759952545166;0.0;0.0;0.0
810;0.0;0.0;0.0;0.25863999128341675;-0.2147199958562851;1.099951982498169;0.0;0.0;0.0
812;0.12956400215625763;-0.09418399631977081;0.9720959663391113;0.26254400610923767;-0.23814399540424347;1.1126400232315063;-1.4700000286102295;-2.940000057220459;1.190000057220459
814;0.0;0.0;0.0;0.24302399158477783;-0.20691199600696564;1.107759952545166;0.0;0.0;0.0
816;0.0;0.0;0.0;0.2235039919614792;-0.22643199563026428;1.1038559675216675;0.0;0.0;0.0
818;0.0;0.0;0.0;0.26254400610923767;-0.2147199958562851;1.0843359231948853;0.0;0.0;0.0
820;0.13419999182224274;-0.10028399527072906;0.9679479598999023;0.2508319914340973;-0.21862399578094482;1.0960479974746704;-0.9100000262260437;-1.6800000667572021;1.6100000143051147
823;0.0;0.0;0.0;0.23521599173545837;-0.230335995554924;1.1204479932785034;0.0;0.0;0.0
825;0.0;0.0;0.0;0.25863999128341675;-0.2576639950275421;1.0960479974746704;0.0;0.0;0.0
827;0.0;0.0;0.0;0.21569599211215973;-0.230335995554924;1.0921440124511719;0.0;0.0;0.0
829;0.12614800035953522;-0.1041879951953888;0.9667279720306396;0.24302399158477783;-0.2537599802017212;1.0882400274276733;-0.699999988079071;-0.6299999952316284;1.8200000524520874
831;0.0;0.0;0.0;0.2664479911327362;-0.21862399578094482;1.099951982498169;0.0;0.0;0.0
833;0.0;0.0;0.0;0.22740799188613892;-0.22252799570560455;1.0960479974746704;0.0;0.0;0.0
835;0.0;0.0;0.0;0.22740799188613892;-0.2147199958562851;1.099951982498169;0.0;0.0;0.0
837;0.11443600058555603;-0.09882000088691711;0.9723399877548218;0.21959999203681946;-0.22252799570560455;1.1038559675216675;-0.7699999809265137;0.0;1.4700000286102295
840;0.0;0.0;0.0;0.21959999203681946;-0.23423999547958374;1.1038559675216675;0.0;0.0;0.0
842;0.0;0.0;0.0;0.23521599173545837;-0.21862399578094482;1.124351978302002;0.0;0.0;0.0
844;0.0;0.0;0.0;0.24692799150943756;-0.22643199563026428;1.099951982498169;0.0;0.0;0.0
846;0.10784799605607986;-0.09564799815416336;0.974291980266571;0.22740799188613892;-0.2147199958562851;1.1165440082550049;-1.190000057220459;0.5600000023841858;0.42000001668930054
848;0.0;0.0;0.0;0.2235039919614792;-0.23814399540424347;1.1165440082550049;0.0;0.0;0.0
850;0.0;0.0;0.0;0.2235039919614792;-0.21862399578094482;1.1204479932785034;0.0;0.0;0.0
852;0.0;0.0;0.0;0.19617599248886108;-0.230335995554924;1.1165440082550049;0.0;0.0;0.0
854;0.09662400186061859;-0.08906000107526779;0.9855159521102905;0.2117919921875;-0.23423999547958374;1.1204479932785034;-1.3300000429153442;0.9800000190734863;-0.3499999940395355
857;0.0;0.0;0.0;0.21959999203681946;-0.19519999623298645;1.132159948348999;0.0;0.0;0.0
859;0.0;0.0;0.0;0.1727519929409027;-0.19910399615764618;1.140944004058838;0.0;0.0;0.0
861;0.0;0.0;0.0;0.17665599286556244;-0.21862399578094482;1.1282559633255005;0.0;0.0;0.0
863;0.07344400137662888;-0.07417599856853485;1.0052800178527832;0.23131199181079865;-0.1756799966096878;1.148751974105835;-1.8899999856948853;0.6299999952316284;-0.7699999809265137
865;0.0;0.0;0.0;0.1844639927148819;-0.19519999623298645;1.1526559591293335;0.0;0.0;0.0
867;0.0;0.0;0.0;0.18055999279022217;-0.18348799645900726;1.173151969909668;0.0;0.0;0.0
869;0.0;0.0;0.0;0.16494399309158325;-0.17177599668502808;1.1770559549331665;0.0;0.0;0.0
871;0.06026799976825714;-0.050995998084545135;1.0269960165023804;0.1542080044746399;-0.1756799966096878;1.148751974105835;-3.1500000953674316;-0.9800000190734863;-0.6299999952316284
874;0.0;0.0;0.0;0.19227199256420135;-0.16787199676036835;1.1526559591293335;0.0;0.0;0.0
876;0.0;0.0;0.0;0.19227199256420135;-0.15615999698638916;1.1848639249801636;0.0;0.0;0.0
878;0.0;0.0;0.0;0.20788799226284027;-0.1756799966096878;1.165343999862671;0.0;0.0;0.0
880;0.06465999782085419;-0.035868000239133835;1.0411479473114014;0.2117919921875;-0.16787199676036835;1.180959939956665;-5.389999866485596;-3.1500000953674316;0.14000000059604645
882;0.0;0.0;0.0;0.20398399233818054;-0.1483519971370697;1.1692479848861694;0.0;0.0;0.0
884;0.0;0.0;0.0;0.19227199256420135;-0.1756799966096878;1.1692479848861694;0.0;0.0;0.0
886;0.0;0.0;0.0;0.2000799924135208;-0.16396799683570862;1.173151969909668;0.0;0.0;0.0
888;0.0802759975194931;-0.030988000333309174;1.0418800115585327;0.2117919921875;-0.17177599668502808;1.1692479848861694;-7.559999942779541;-5.110000133514404;1.4700000286102295
891;0.0;0.0;0.0;0.2000799924135208;-0.17177599668502808;1.148751974105835;0.0;0.0;0.0
893;0.0;0.0;0.0;0.20398399233818054;-0.1756799966096878;1.165343999862671;0.0;0.0;0.0
895;0.0;0.0;0.0;0.2117919921875;-0.17958399653434753;1.1604639291763306;0.0;0.0;0.0
897;0.08906000107526779;-0.035868000239133835;1.0299240350723267;0.23521599173545837;-0.17958399653434753;1.156559944152832;-9.380000114440918;-6.440000057220459;2.870000123977661
899;0.0;0.0;0.0;0.23131199181079865;-0.187391996383667;1.140944004058838;0.0;0.0;0.0
901;0.0;0.0;0.0;0.22740799188613892;-0.16787199676036835;1.148751974105835;0.0;0.0;0.0
903;0.0;0.0;0.0;0.23521599173545837;-0.17958399653434753;1.1526559591293335;0.0;0.0;0.0
905;0.09955199807882309;-0.04196799919009209;1.012355923652649;0.23521599173545837;-0.17177599668502808;1.1165440082550049;-10.569999694824219;-6.510000228881836;3.8499999046325684
908;0.0;0.0;0.0;0.2391199916601181;-0.19910399615764618;1.132159948348999;0.0;0.0;0.0
910;0.0;0.0;0.0;0.23521599173545837;-0.19129599630832672;1.1204479932785034;0.0;0.0;0.0
912;0.0;0.0;0.0;0.2391199916601181;-0.17177599668502808;1.1448479890823364;0.0;0.0;0.0
914;0.11736399680376053;-0.04636000096797943;0.9930799603462219;0.2391199916601181;-0.15615999698638916;1.1038559675216675;-11.550000190734863;-5.670000076293945;5.110000133514404
916;0.0;0.0;0.0;0.2547360062599182;-0.19519999623298645;1.099951982498169;0.0;0.0;0.0
918;0.0;0.0;0.0;0.2664479911327362;-0.15225599706172943;1.124351978302002;0.0;0.0;0.0
920;0.0;0.0;0.0;0.27035200595855713;-0.18348799645900726;1.107759952545166;0.0;0.0;0.0
922;0.14688800275325775;-0.058803997933864594;0.9842959642410278;0.25863999128341675;-0.19910399615764618;1.124351978302002;-12.600000381469727;-3.640000104904175;7.139999866485596
925;0.0;0.0;0.0;0.25863999128341675;-0.19519999623298645;1.1165440082550049;0.0;0.0;0.0
927;0.0;0.0;0.0;0.2781600058078766;-0.2030079960823059;1.107759952545166;0.0;0.0;0.0
929;0.0;0.0;0.0;0.26254400610923767;-0.230335995554924;1.1126400232315063;0.0;0.0;0.0
931;0.1500599980354309;-0.08710800111293793;0.9896639585494995;0.25863999128341675;-0.230335995554924;1.1282559633255005;-13.440000534057617;-1.75;9.3100004196167
933;0.0;0.0;0.0;0.2664479911327362;-0.2654719948768616;1.1087360382080078;0.0;0.0;0.0
935;0.0;0.0;0.0;0.27425599098205566;-0.2576639950275421;1.1126400232315063;0.0;0.0;0.0
937;0.0;0.0;0.0;0.2508319914340973;-0.2810879945755005;1.107759952545166;0.0;0.0;0.0
939;0.13932399451732635;-0.12151199579238892;0.9840520024299622;0.2547360062599182;-0.2654719948768616;1.107759952545166;-13.09000015258789;0.21000000834465027;10.359999656677246
942;0.0;0.0;0.0;0.23521599173545837;-0.2693759799003601;1.1282559633255005;0.0;0.0;0.0
944;0.0;0.0;0.0;0.24692799150943756;-0.27327999472618103;1.124351978302002;0.0;0.0;0.0
946;0.0;0.0;0.0;0.2391199916601181;-0.2810879945755005;1.1282559633255005;0.0;0.0;0.0
948;0.13298000395298004;-0.14127600193023682;0.9889319539070129;0.2508319914340973;-0.2810879945755005;1.1282559633255005;-12.109999656677246;2.450000047683716;9.65999984741211
950;0.0;0.0;0.0;0.25863999128341675;-0.27327999472618103;1.132159948348999;0.0;0.0;0.0
952;0.0;0.0;0.0;0.2547360062599182;-0.27327999472618103;1.1204479932785034;0.0;0.0;0.0
954;0.0;0.0;0.0;0.24302399158477783;-0.2654719948768616;1.156559944152832;0.0;0.0;0.0
956;0.12785600125789642;-0.14761999249458313;1.0089399814605713;0.25863999128341675;-0.27718400955200195;1.148751974105835;-11.480000495910645;4.409999847412109;7.909999847412109
959;0.0;0.0;0.0;0.21569599211215973;-0.28889599442481995;1.1526559591293335;0.0;0.0;0.0
961;0.0;0.0;0.0;0.24302399158477783;-0.29280000925064087;1.1692479848861694;0.0;0.0;0.0
963;0.0;0.0;0.0;0.22740799188613892;-0.28889599442481995;1.140944004058838;0.0;0.0;0.0
965;0.11492399871349335;-0.1600639969110489;1.0218719244003296;0.21569599211215973;-0.3201279938220978;1.140944004058838;-11.0600004196167;5.25;6.090000152587891
967;0.0;0.0;0.0;0.21959999203681946;-0.28889599442481995;1.1692479848861694;0.0;0.0;0.0
969;0.0;0.0;0.0;0.21959999203681946;-0.30451199412345886;1.189743995666504;0.0;0.0;0.0
971;0.0;0.0;0.0;0.2117919921875;-0.284991979598999;1.1604639291763306;0.0;0.0;0.0
973;0.09979599714279175;-0.1651879996061325;1.0348039865493774;0.2117919921875;-0.27718400955200195;1.173151969909668;-10.010000228881836;6.440000057220459;4.550000190734863
976;0.0;0.0;0.0;0.2117919921875;-0.3123199939727783;1.165343999862671;0.0;0.0;0.0
978;0.0;0.0;0.0;0.2000799924135208;-0.284991979598999;1.1770559549331665;0.0;0.0;0.0
980;0.0;0.0;0.0;0.19617599248886108;-0.28889599442481995;1.180959939956665;0.0;0.0;0.0
982;0.09027999639511108;-0.15323199331760406;1.048467993736267;0.2235039919614792;-0.284991979598999;1.180959939956665;-9.170000076293945;8.050000190734863;3.0799999237060547
984;0.0;0.0;0.0;0.20398399233818054;-0.2537599802017212;1.1936479806900024;0.0;0.0;0.0
986;0.0;0.0;0.0;0.18055999279022217;-0.284991979598999;1.197551965713501;0.0;0.0;0.0
988;0.0;0.0;0.0;0.2000799924135208;-0.27327999472618103;1.173151969909668;0.0;0.0;0.0
991;0.0832040011882782;-0.1512800008058548;1.0579839944839478;0.19227199256420135;-0.30060797929763794;1.1936479806900024;-9.449999809265137;7.490000247955322;2.0999999046325684
993;0.0;0.0;0.0;0.20398399233818054;-0.30060797929763794;1.180959939956665;0.0;0.0;0.0
995;0.0;0.0;0.0;0.2117919921875;-0.2967039942741394;1.1770559549331665;0.0;0.0;0.0
997;0.0;0.0;0.0;0.21959999203681946;-0.2967039942741394;1.165343999862671;0.0;0.0;0.0
999;0.08588799834251404;-0.16274799406528473;1.0433440208435059;0.22740799188613892;-0.3201279938220978;1.156559944152832;-11.130000114440918;5.880000114440918;0.3499999940395355
1001;0.0;0.0;0.0;0.23521599173545837;-0.30451199412345886;1.1204479932785034;0.0;0.0;0.0
1003;0.0;0.0;0.0;0.23131199181079865;-0.3513599932193756;1.107759952545166;0.0;0.0;0.0
1005;0.0;0.0;0.0;0.23131199181079865;-0.3201279938220978;1.1038559675216675;0.0;0.0;0.0
1008;0.11272799968719482;-0.1861719936132431;0.9896639585494995;0.2235039919614792;-0.28889599442481995;1.1087360382080078;-11.34000015258789;8.890000343322754;-2.5899999141693115
1010;0.0;0.0;0.0;0.2117919921875;-0.30451199412345886;1.1253279447555542;0.0;0.0;0.0
1012;0.0;0.0;0.0;0.2000799924135208;-0.26156800985336304;1.1458239555358887;0.0;0.0;0.0
1014;0.0;0.0;0.0;0.2000799924135208;-0.284991979598999;1.2024319171905518;0.0;0.0;0.0
1016;0.08906000107526779;-0.16957999765872955;1.0296800136566162;0.1727519929409027;-0.28889599442481995;1.2024319171905518;-9.100000381469727;12.390000343322754;-4.690000057220459
1018;0.0;0.0;0.0;0.16494399309158325;-0.2967039942741394;1.1858400106430054;0.0;0.0;0.0
1020;0.0;0.0;0.0;0.1424959897994995;-0.30451199412345886;1.1985279321670532;0.0;0.0;0.0
1022;0.0;0.0;0.0;0.1727519929409027;-0.30451199412345886;1.2024319171905518;0.0;0.0;0.0
1025;0.03855200111865997;-0.16152799129486084;1.070915937423706;0.15030398964881897;-0.3123199939727783;1.2102400064468384;-9.239999771118164;9.730000495910645;-6.720000267028809
1027;0.0;0.0;0.0;0.15030398964881897;-0.2810879945755005;1.1907199621200562;0.0;0.0;0.0
1029;0.0;0.0;0.0;0.13859200477600098;-0.3084160089492798;1.1780319213867188;0.0;0.0;0.0
1031;0.0;0.0;0.0;0.11907199770212173;-0.3123199939727783;1.1741279363632202;0.0;0.0;0.0
1033;0.03294000029563904;-0.17031200230121613;1.0528600215911865;0.15030398964881897;-0.30060797929763794;1.1780319213867188;-9.239999771118164;6.019999980926514;-7.980000019073486
1035;0.0;0.0;0.0;0.15811198949813843;-0.284991979598999;1.1663199663162231;0.0;0.0;0.0
1037;0.0;0.0;0.0;0.13468798995018005;-0.30451199412345886;1.1536319255828857;0.0;0.0;0.0
1039;0.0;0.0;0.0;0.18836799263954163;-0.30451199412345886;1.1575360298156738;0.0;0.0;0.0
1042;0.037331998348236084;-0.16860400140285492;1.0287039279937744;0.19617599248886108;-0.30060797929763794;1.1497279405593872;-7.139999866485596;3.430000066757202;-11.6899995803833
1044;0.0;0.0;0.0;0.18055999279022217;-0.3084160089492798;1.140944004058838;0.0;0.0;0.0
1046;0.0;0.0;0.0;0.16884799301624298;-0.284991979598999;1.1204479932785034;0.0;0.0;0.0
1048;0.0;0.0;0.0;0.1727519929409027;-0.28889599442481995;1.1204479932785034;0.0;0.0;0.0
1050;0.04928799718618393;-0.1600639969110489;0.9999119639396667;0.16591998934745789;-0.2693759799003601;1.1165440082550049;-3.990000009536743;3.9200000762939453;-15.470000267028809
1052;0.0;0.0;0.0;0.1698240041732788;-0.2693759799003601;1.1360639333724976;0.0;0.0;0.0
1054;0.0;0.0;0.0;0.16201600432395935;-0.23814399540424347;1.1370400190353394;0.0;0.0;0.0
1056;0.0;0.0;0.0;0.16884799301624298;-0.24985599517822266;1.1360639333724976;0.0;0.0;0.0
1059;0.04904399812221527;-0.1256600022315979;1.0047919750213623;0.16103999316692352;-0.22252799570560455;1.132159948348999;-1.4700000286102295;6.159999847412109;-16.8700008392334
1061;0.0;0.0;0.0;0.1424959897994995;-0.230335995554924;1.1360639333724976;0.0;0.0;0.0
1063;0.0;0.0;0.0;0.13468798995018005;-0.24595199525356293;1.165343999862671;0.0;0.0;0.0
1065;0.0;0.0;0.0;0.13078400492668152;-0.19129599630832672;1.165343999862671;0.0;0.0;0.0
1067;0.018300000578165054;-0.08198399841785431;1.0289479494094849;0.13078400492668152;-0.20691199600696564;1.1936479806900024;-1.75;6.300000190734863;-15.960000038146973
1069;0.0;0.0;0.0;0.09955199807882309;-0.187391996383667;1.1770559549331665;0.0;0.0;0.0
1071;0.0;0.0;0.0;0.10735999792814255;-0.20691199600696564;1.1692479848861694;0.0;0.0;0.0
1073;0.0;0.0;0.0;0.115167997777462;-0.19910399615764618;1.1526559591293335;0.0;0.0;0.0
1076;0.004635999910533428;-0.07588399946689606;1.0313879251480103;0.1268799901008606;-0.21862399578094482;1.180959939956665;-4.199999809265137;3.8499999046325684;-15.260000228881836
1078;0.0;0.0;0.0;0.16103999316692352;-0.2147199958562851;1.156559944152832;0.0;0.0;0.0
1080;0.0;0.0;0.0;0.16884799301624298;-0.230335995554924;1.132159948348999;0.0;0.0;0.0
1082;0.0;0.0;0.0;0.1727519929409027;-0.2030079960823059;1.1360639333724976;0.0;0.0;0.0
1084;0.0378200002014637;-0.08808399736881256;1.0145519971847534;0.17665599286556244;-0.2420479953289032;1.1526559591293335;-5.949999809265137;2.870000123977661;-14.279999732971191
1086;0.0;0.0;0.0;0.1844639927148819;-0.22252799570560455;1.132159948348999;0.0;0.0;0.0
1088;0.0;0.0;0.0;0.1727519929409027;-0.2147199958562851;1.132159948348999;0.0;0.0;0.0
1090;0.0;0.0;0.0;0.18836799263954163;-0.2147199958562851;1.140944004058838;0.0;0.0;0.0
1093;0.050995998084545135;-0.08808399736881256;1.0099159479141235;0.18836799263954163;-0.19519999623298645;1.156559944152832;-6.090000152587891;4.199999809265137;-12.180000305175781
1095;0.0;0.0;0.0;0.16884799301624298;-0.22643199563026428;1.1360639333724976;0.0;0.0;0.0
1097;0.0;0.0;0.0;0.14640000462532043;-0.2030079960823059;1.1448479890823364;0.0;0.0;0.0
1099;0.0;0.0;0.0;0.1424959897994995;-0.19519999623298645;1.1643680334091187;0.0;0.0;0.0
1101;0.028547998517751694;-0.07417599856853485;1.0211399793624878;0.14640000462532043;-0.2147199958562851;1.156559944152832;-5.880000114440918;5.039999961853027;-11.130000114440918
1103;0.0;0.0;0.0;0.13468798995018005;-0.2030079960823059;1.1770559549331665;0.0;0.0;0.0
1105;0.0;0.0;0.0;0.1268799901008606;-0.2030079960823059;1.1770559549331665;0.0;0.0;0.0
1107;0.0;0.0;0.0;0.115167997777462;-0.2030079960823059;1.1848639249801636;0.0;0.0;0.0
1110;0.011467999778687954;-0.06954000145196915;1.0394400358200073;0.14640000462532043;-0.22643199563026428;1.180959939956665;-6.789999961853027;4.199999809265137;-10.920000076293945
1112;0.0;0.0;0.0;0.1424959897994995;-0.19519999623298645;1.180959939956665;0.0;0.0;0.0
1114;0.0;0.0;0.0;0.1727519929409027;-0.22252799570560455;1.173151969909668;0.0;0.0;0.0
1116;0.0;0.0;0.0;0.1542080044746399;-0.2030079960823059;1.1770559549331665;0.0;0.0;0.0
1118;0.0287919994443655;-0.0832040011882782;1.0416359901428223;0.18055999279022217;-0.21081599593162537;1.1770559549331665;-8.050000190734863;2.5899999141693115;-10.010000228881836
1120;0.0;0.0;0.0;0.15811198949813843;-0.2147199958562851;1.1604639291763306;0.0;0.0;0.0
1122;0.0;0.0;0.0;0.1844639927148819;-0.22643199563026428;1.1848639249801636;0.0;0.0;0.0
1124;0.0;0.0;0.0;0.16103999316692352;-0.23814399540424347;1.1936479806900024;0.0;0.0;0.0
1127;0.04636000096797943;-0.09393999725580215;1.0455399751663208;0.1571359932422638;-0.23423999547958374;1.173151969909668;-7.769999980926514;2.0299999713897705;-7.699999809265137
1129;0.0;0.0;0.0;0.16103999316692352;-0.23423999547958374;1.2014559507369995;0.0;0.0;0.0
1131;0.0;0.0;0.0;0.19617599248886108;-0.21862399578094482;1.1770559549331665;0.0;0.0;0.0
1133;0.0;0.0;0.0;0.16201600432395935;-0.22252799570560455;1.1936479806900024;0.0;0.0;0.0
1135;0.04684799909591675;-0.09418399631977081;1.0521279573440552;0.16494399309158325;-0.23814399540424347;1.197551965713501;-6.369999885559082;1.6100000143051147;-5.389999866485596
1137;0.0;0.0;0.0;0.1542080044746399;-0.22643199563026428;1.2180479764938354;0.0;0.0;0.0
1139;0.0;0.0;0.0;0.13468798995018005;-0.23814399540424347;1.2092639207839966;0.0;0.0;0.0
1141;0.0;0.0;0.0;0.13468798995018005;-0.21081599593162537;1.189743995666504;0.0;0.0;0.0
1144;0.02635199949145317;-0.09564799815416336;1.0728679895401;0.17665599286556244;-0.24985599517822266;1.1858400106430054;-5.949999809265137;-0.5600000023841858;-4.480000019073486
1146;0.0;0.0;0.0;0.1542080044746399;-0.24595199525356293;1.1848639249801636;0.0;0.0;0.0
1148;0.0;0.0;0.0;0.2000799924135208;-0.23814399540424347;1.180959939956665;0.0;0.0;0.0
1150;0.0;0.0;0.0;0.20788799226284027;-0.2537599802017212;1.165343999862671;0.0;0.0;0.0
1152;0.0710039958357811;-0.10833600163459778;1.044808030128479;0.21959999203681946;-0.26156800985336304;1.180959939956665;-6.720000267028809;-2.309999942779541;-4.550000190734863
1154;0.0;0.0;0.0;0.2547360062599182;-0.2537599802017212;1.1936479806900024;0.0;0.0;0.0
1156;0.0;0.0;0.0;0.23131199181079865;-0.26156800985336304;1.189743995666504;0.0;0.0;0.0
1158;0.0;0.0;0.0;0.2235039919614792;-0.23814399540424347;1.180959939956665;0.0;0.0;0.0
1161;0.10613999515771866;-0.11394799500703812;1.050663948059082;0.21569599211215973;-0.2576639950275421;1.189743995666504;-5.740000247955322;-2.450000047683716;-3.430000066757202
1163;0.0;0.0;0.0;0.21569599211215973;-0.2654719948768616;1.1780319213867188;0.0;0.0;0.0
1165;0.0;0.0;0.0;0.22740799188613892;-0.27327999472618103;1.1614400148391724;0.0;0.0;0.0
1167;0.0;0.0;0.0;0.21569599211215973;-0.2967039942741394;1.165343999862671;0.0;0.0;0.0
1169;0.09735599905252457;-0.13712799549102783;1.0426119565963745;0.21959999203681946;-0.2810879945755005;1.1614400148391724;-4.059999942779541;-2.5199999809265137;-2.7300000190734863
1171;0.0;0.0;0.0;0.18055999279022217;-0.26156800985336304;1.1575360298156738;0.0;0.0;0.0
1173;0.0;0.0;0.0;0.2235039919614792;-0.284991979598999;1.1575360298156738;0.0;0.0;0.0
1176;0.0;0.0;0.0;0.2391199916601181;-0.2693759799003601;1.1497279405593872;0.0;0.0;0.0
1178;0.09979599714279175;-0.14883999526500702;1.032364010810852;0.2000799924135208;-0.30060797929763794;1.1536319255828857;-1.5399999618530273;-2.940000057220459;-3.2200000286102295
1180;0.0;0.0;0.0;0.24302399158477783;-0.30060797929763794;1.1458239555358887;0.0;0.0;0.0
1182;0.0;0.0;0.0;0.21959999203681946;-0.2537599802017212;1.1780319213867188;0.0;0.0;0.0
1184;0.0;0.0;0.0;0.24692799150943756;-0.27718400955200195;1.1780319213867188;0.0;0.0;0.0
1186;0.11687599867582321;-0.14225199818611145;1.0294359922409058;0.2508319914340973;-0.27327999472618103;1.1575360298156738;0.699999988079071;-3.1500000953674316;-4.199999809265137
1188;0.0;0.0;0.0;0.26254400610923767;-0.2537599802017212;1.1663199663162231;0.0;0.0;0.0
1190;0.0;0.0;0.0;0.27035200595855713;-0.2654719948768616;1.1663199663162231;0.0;0.0;0.0
1193;0.0;0.0;0.0;0.25863999128341675;-0.2576639950275421;1.1458239555358887;0.0;0.0;0.0
1195;0.13688400387763977;-0.1298079937696457;1.0230920314788818;0.2547360062599182;-0.2654719948768616;1.1614400148391724;2.240000009536743;-3.569999933242798;-5.179999828338623
1197;0.0;0.0;0.0;0.27035200595855713;-0.2537599802017212;1.1448479890823364;0.0;0.0;0.0
1199;0.0;0.0;0.0;0.2547360062599182;-0.2693759799003601;1.1448479890823364;0.0;0.0;0.0
1201;0.0;0.0;0.0;0.2547360062599182;-0.24985599517822266;1.1126400232315063;0.0;0.0;0.0
1203;0.14908400177955627;-0.1349319964647293;1.0067440271377563;0.27035200595855713;-0.2693759799003601;1.1165440082550049;3.990000009536743;-4.340000152587891;-5.320000171661377
1205;0.0;0.0;0.0;0.2781600058078766;-0.2537599802017212;1.124351978302002;0.0;0.0;0.0
1207;0.0;0.0;0.0;0.2937760055065155;-0.2810879945755005;1.107759952545166;0.0;0.0;0.0
1210;0.0;0.0;0.0;0.25863999128341675;-0.2576639950275421;1.1087360382080078;0.0;0.0;0.0
1212;0.16396799683570862;-0.13346800208091736;0.9838079810142517;0.28596800565719604;-0.23814399540424347;1.083359956741333;6.579999923706055;-4.550000190734863;-4.96999979019165
1214;0.0;0.0;0.0;0.30158400535583496;-0.284991979598999;1.124351978302002;0.0;0.0;0.0
1216;0.0;0.0;0.0;0.3054879903793335;-0.26156800985336304;1.0960479974746704;0.0;0.0;0.0
1218;0.0;0.0;0.0;0.3172000050544739;-0.24985599517822266;1.0921440124511719;0.0;0.0;0.0
1220;0.18470799922943115;-0.11955999583005905;0.9677039980888367;0.3172000050544739;-0.2654719948768616;1.1038559675216675;9.100000381469727;-4.340000152587891;-4.550000190734863
1222;0.0;0.0;0.0;0.32500800490379333;-0.23814399540424347;1.1038559675216675;0.0;0.0;0.0
1224;0.0;0.0;0.0;0.3328160047531128;-0.2576639950275421;1.099951982498169;0.0;0.0;0.0
1227;0.0;0.0;0.0;0.32500800490379333;-0.24595199525356293;1.1038559675216675;0.0;0.0;0.0
1229;0.2025199979543686;-0.1076039969921112;0.958187997341156;0.33671998977661133;-0.230335995554924;1.0843359231948853;10.640000343322754;-3.990000009536743;-3.8499999046325684
1231;0.0;0.0;0.0;0.33671998977661133;-0.22252799570560455;1.0765279531478882;0.0;0.0;0.0
1233;0.0;0.0;0.0;0.32500800490379333;-0.23423999547958374;1.0804319381713867;0.0;0.0;0.0
1235;0.0;0.0;0.0;0.3445279896259308;-0.2693759799003601;1.060912013053894;0.0;0.0;0.0
1237;0.21447598934173584;-0.10491999983787537;0.9440360069274902;0.3601439893245697;-0.22643199563026428;1.044319987297058;11.619999885559082;-4.199999809265137;-2.6600000858306885
1239;0.0;0.0;0.0;0.3445279896259308;-0.23814399540424347;1.0726239681243896;0.0;0.0;0.0
1241;0.0;0.0;0.0;0.3484320044517517;-0.22643199563026428;1.0560319423675537;0.0;0.0;0.0
1244;0.0;0.0;0.0;0.36795198917388916;-0.22643199563026428;1.0482239723205566;0.0;0.0;0.0
1246;0.2332639992237091;-0.10223599523305893;0.9247599840164185;0.35624000430107117;-0.21081599593162537;1.0599359273910522;12.25;-4.760000228881836;-1.4700000286102295
1248;0.0;0.0;0.0;0.36795198917388916;-0.23814399540424347;1.0472480058670044;0.0;0.0;0.0
1250;0.0;0.0;0.0;0.35624000430107117;-0.22643199563026428;1.0189440250396729;0.0;0.0;0.0
1252;0.0;0.0;0.0;0.3757599890232086;-0.2420479953289032;1.0394400358200073;0.0;0.0;0.0
1254;0.253028005361557;-0.09320800006389618;0.907435953617096;0.3835679888725281;-0.21862399578094482;1.0472480058670044;12.180000305175781;-5.320000171661377;-0.6299999952316284
1256;0.0;0.0;0.0;0.387472003698349;-0.22252799570560455;1.0228480100631714;0.0;0.0;0.0
1258;0.0;0.0;0.0;0.42553597688674927;-0.2147199958562851;1.0150399208068848;0.0;0.0;0.0
1261;0.0;0.0;0.0;0.399183988571167;-0.2030079960823059;1.0306559801101685;0.0;0.0;0.0
1263;0.27425599098205566;-0.07637199759483337;0.8930400013923645;0.40699198842048645;-0.19129599630832672;1.02675199508667;10.920000076293945;-6.300000190734863;0.14000000059604645
1265;0.0;0.0;0.0;0.4177280068397522;-0.187391996383667;1.0306559801101685;0.0;0.0;0.0
1267;0.0;0.0;0.0;0.460671991109848;-0.15615999698638916;1.0316319465637207;0.0;0.0;0.0
1269;0.0;0.0;0.0;0.42553597688674927;-0.17177599668502808;0.9945439696311951;0.0;0.0;0.0
1271;0.3020719885826111;-0.04684799909591675;0.8871839642524719;0.4450559914112091;-0.1756799966096878;1.0150399208068848;8.539999961853027;-8.329999923706055;0.9800000190734863
1273;0.0;0.0;0.0;0.460671991109848;-0.15615999698638916;1.0150399208068848;0.0;0.0;0.0
1275;0.0;0.0;0.0;0.4684799909591675;-0.1756799966096878;1.002351999282837;0.0;0.0;0.0
1278;0.0;0.0;0.0;0.46457600593566895;-0.1756799966096878;0.9828319549560547;0.0;0.0;0.0
1280;0.34135597944259644;-0.03391600027680397;0.868395984172821;0.47628799080848694;-0.1600639969110489;0.9740479588508606;4.760000228881836;-11.34000015258789;2.6600000858306885
1282;0.0;0.0;0.0;0.45286399126052856;-0.15615999698638916;0.9994239807128906;0.0;0.0;0.0
1284;0.0;0.0;0.0;0.4840959906578064;-0.1483519971370697;0.9750239849090576;0.0;0.0;0.0
1286;0.0;0.0;0.0;0.48799997568130493;-0.16787199676036835;0.9789279699325562;0.0;0.0;0.0
1288;0.36795198917388916;-0.02903600037097931;0.8525359630584717;0.5075199604034424;-0.1483519971370697;0.9994239807128906;0.42000001668930054;-14.699999809265137;4.480000019073486
1290;0.0;0.0;0.0;0.5387519598007202;-0.1483519971370697;0.9594079852104187;0.0;0.0;0.0
1292;0.0;0.0;0.0;0.5777919888496399;-0.14444799721240997;0.9750239849090576;0.0;0.0;0.0
1295;0.0;0.0;0.0;0.562175989151001;-0.16396799683570862;0.9916160106658936;0.0;0.0;0.0
1297;0.4416399896144867;-0.0287919994443655;0.8464359641075134;0.6012159585952759;-0.17177599668502808;0.9672159552574158;-4.760000228881836;-15.960000038146973;6.650000095367432
1299;0.0;0.0;0.0;0.6012159585952759;-0.16787199676036835;0.9750239849090576;0.0;0.0;0.0
1301;0.0;0.0;0.0;0.5895040035247803;-0.14054399728775024;0.9789279699325562;0.0;0.0;0.0
1303;0.0;0.0;0.0;0.6090239882469177;-0.16787199676036835;0.9389119744300842;0.0;0.0;0.0
1305;0.4887319803237915;-0.0302559994161129;0.8354560136795044;0.6168320178985596;-0.1756799966096878;0.9633119702339172;-10.079999923706055;-17.5;11.760000228881836
1307;0.0;0.0;0.0;0.6324479579925537;-0.1756799966096878;0.9223200082778931;0.0;0.0;0.0
1309;0.0;0.0;0.0;0.6519680023193359;-0.18348799645900726;0.9350079894065857;0.0;0.0;0.0
1312;0.0;0.0;0.0;0.6207360029220581;-0.19519999623298645;0.9106079936027527;0.0;0.0;0.0
1314;0.517035961151123;-0.06563600152730942;0.8056879639625549;0.6666079759597778;-0.21862399578094482;0.9389119744300842;-13.859999656677246;-16.170000076293945;15.960000038146973
1316;0.0;0.0;0.0;0.6480640172958374;-0.2420479953289032;0.9301279783248901;0.0;0.0;0.0
1318;0.0;0.0;0.0;0.6666079759597778;-0.22643199563026428;0.9535520076751709;0.0;0.0;0.0
1320;0.0;0.0;0.0;0.6900320053100586;-0.230335995554924;0.9662399888038635;0.0;0.0;0.0
1322;0.5533919930458069;-0.10101599991321564;0.839847981929779;0.6627039909362793;-0.24595199525356293;0.9945439696311951;-16.3799991607666;-13.859999656677246;19.600000381469727
1324;0.0;0.0;0.0;0.6588000059127808;-0.24595199525356293;0.9984479546546936;0.0;0.0;0.0
1326;0.0;0.0;0.0;0.6548959612846375;-0.2654719948768616;1.002351999282837;0.0;0.0;0.0
1329;0.0;0.0;0.0;0.6168320178985596;-0.30451199412345886;1.0062559843063354;0.0;0.0;0.0
1331;0.5319200158119202;-0.1466439962387085;0.8710799813270569;0.6519680023193359;-0.28889599442481995;1.0189440250396729;-19.31999969482422;-12.739999771118164;21.139999389648438
1333;0.0;0.0;0.0;0.6246399879455566;-0.3201279938220978;0.9984479546546936;0.0;0.0;0.0
1335;0.0;0.0;0.0;0.6129279732704163;-0.3357439935207367;1.002351999282837;0.0;0.0;0.0
1337;0.0;0.0;0.0;0.6168320178985596;-0.3474559783935547;1.0228480100631714;0.0;0.0;0.0
1339;0.49531999230384827;-0.2000799924135208;0.8788880109786987;0.5973119735717773;-0.35916799306869507;1.0150399208068848;-20.93000030517578;-11.199999809265137;18.760000228881836
1341;0.0;0.0;0.0;0.5895040035247803;-0.35916799306869507;1.0189440250396729;0.0;0.0;0.0
1343;0.0;0.0;0.0;0.5934079885482788;-0.3630719780921936;1.0472480058670044;0.0;0.0;0.0
1346;0.0;0.0;0.0;0.5934079885482788;-0.3630719780921936;1.0355359315872192;0.0;0.0;0.0
1348;0.47213998436927795;-0.22252799570560455;0.9076799750328064;0.5738880038261414;-0.3396480083465576;1.0638400316238403;-20.860000610351562;-11.130000114440918;13.789999961853027
1350;0.0;0.0;0.0;0.5738880038261414;-0.35526400804519653;1.0394400358200073;0.0;0.0;0.0
1352;0.0;0.0;0.0;0.5856000185012817;-0.39820799231529236;1.0638400316238403;0.0;0.0;0.0
1354;0.0;0.0;0.0;0.6246399879455566;-0.4177280068397522;1.0189440250396729;0.0;0.0;0.0
1356;0.46213600039482117;-0.22496800124645233;0.9240279793739319;0.5270400047302246;-0.230335995554924;1.1165440082550049;-20.020000457763672;-11.480000495910645;7.840000152587891
1358;0.0;0.0;0.0;0.5816959738731384;-0.44896000623703003;1.0472480058670044;0.0;0.0;0.0
1361;0.0;0.0;0.0;0.5465599894523621;-0.38649600744247437;1.0716480016708374;0.0;0.0;0.0
1363;0.0;0.0;0.0;0.5348479747772217;-0.3201279938220978;1.083359956741333;0.0;0.0;0.0
1365;0.43602800369262695;-0.24277999997138977;0.9418399930000305;0.5856000185012817;-0.3396480083465576;1.0716480016708374;-20.15999984741211;-11.970000267028809;3.0799999237060547
1367;0.0;0.0;0.0;0.5153279900550842;-0.38649600744247437;1.0921440124511719;0.0;0.0;0.0
1369;0.0;0.0;0.0;0.5036159753799438;-0.39430397748947144;1.0433440208435059;0.0;0.0;0.0
1371;0.0;0.0;0.0;0.48799997568130493;-0.3786879777908325;1.0716480016708374;0.0;0.0;0.0
1373;0.3984519839286804;-0.2454639971256256;0.9320799708366394;0.4958080053329468;-0.3903999924659729;1.0433440208435059;-21.559999465942383;-12.670000076293945;2.450000047683716
1375;0.0;0.0;0.0;0.472383975982666;-0.38259199261665344;1.0472480058670044;0.0;0.0;0.0
1377;0.0;0.0;0.0;0.5036159753799438;-0.38649600744247437;1.0355359315872192;0.0;0.0;0.0
1380;0.0;0.0;0.0;0.4684799909591675;-0.4021120071411133;1.0355359315872192;0.0;0.0;0.0
1382;0.3625839948654175;-0.26571598649024963;0.9027999639511108;0.472383975982666;-0.42553597688674927;1.0472480058670044;-17.079999923706055;-11.550000190734863;-1.4700000286102295
1384;0.0;0.0;0.0;0.460671991109848;-0.4060159921646118;1.0316319465637207;0.0;0.0;0.0
1386;0.0;0.0;0.0;0.47628799080848694;-0.4177280068397522;1.0316319465637207;0.0;0.0;0.0
1388;0.0;0.0;0.0;0.4567679762840271;-0.39430397748947144;1.044319987297058;0.0;0.0;0.0
1390;0.3298879861831665;-0.2810879945755005;0.9140239953994751;0.44896000623703003;-0.4021120071411133;1.0521279573440552;-8.539999961853027;-9.9399995803833;-6.860000133514404
1393;0.0;0.0;0.0;0.4411519765853882;-0.40991997718811035;1.044319987297058;0.0;0.0;0.0
1395;0.0;0.0;0.0;0.40991997718811035;-0.40991997718811035;1.044319987297058;0.0;0.0;0.0
1397;0.0;0.0;0.0;0.39528000354766846;-0.3669759929180145;1.0277279615402222;0.0;0.0;0.0
1399;0.28718799352645874;-0.26034799218177795;0.9171959757804871;0.39528000354766846;-0.35916799306869507;1.0560319423675537;-2.0999999046325684;-9.239999771118164;-11.199999809265137
1401;0.0;0.0;0.0;0.36795198917388916;-0.3474559783935547;1.0482239723205566;0.0;0.0;0.0
1403;0.0;0.0;0.0;0.3640480041503906;-0.3474559783935547;1.0277279615402222;0.0;0.0;0.0
1405;0.0;0.0;0.0;0.3445279896259308;-0.3357439935207367;1.0560319423675537;0.0;0.0;0.0
1407;0.24521999061107635;-0.21862399578094482;0.9142679572105408;0.3484320044517517;-0.3240320086479187;1.0560319423675537;2.940000057220459;-8.329999923706055;-15.609999656677246
1410;0.0;0.0;0.0;0.3484320044517517;-0.3123199939727783;1.044319987297058;0.0;0.0;0.0
1412;0.0;0.0;0.0;0.3328160047531128;-0.30451199412345886;1.036512017250061;0.0;0.0;0.0
1414;0.0;0.0;0.0;0.3445279896259308;-0.2810879945755005;1.0238239765167236;0.0;0.0;0.0
1416;0.21911199390888214;-0.17372798919677734;0.9062159657478333;0.31329599022865295;-0.2810879945755005;1.0033279657363892;6.579999923706055;-7.630000114440918;-17.43000030517578
1418;0.0;0.0;0.0;0.3484320044517517;-0.284991979598999;1.02675199508667;0.0;0.0;0.0
1420;0.0;0.0;0.0;0.30158400535583496;-0.26156800985336304;1.0228480100631714;0.0;0.0;0.0
1422;0.0;0.0;0.0;0.29767999053001404;-0.26156800985336304;1.0072319507598877;0.0;0.0;0.0
1424;0.19129599630832672;-0.1268799901008606;0.8910880088806152;0.28596800565719604;-0.19519999623298645;1.0062559843063354;9.800000190734863;-5.53000020980835;-16.170000076293945
1427;0.0;0.0;0.0;0.30158400535583496;-0.24595199525356293;1.0228480100631714;0.0;0.0;0.0
1429;0.0;0.0;0.0;0.2664479911327362;-0.19910399615764618;0.986735999584198;0.0;0.0;0.0
1431;0.0;0.0;0.0;0.24692799150943756;-0.19129599630832672;1.0433440208435059;0.0;0.0;0.0
1433;0.14347200095653534;-0.07759200036525726;0.8891359567642212;0.2547360062599182;-0.19519999623298645;1.0228480100631714;12.8100004196167;-2.380000114440918;-13.789999961853027
1435;0.0;0.0;0.0;0.2117919921875;-0.16396799683570862;1.0482239723205566;0.0;0.0;0.0
1437;0.0;0.0;0.0;0.2117919921875;-0.16787199676036835;1.0316319465637207;0.0;0.0;0.0
1439;0.0;0.0;0.0;0.19617599248886108;-0.1600639969110489;1.0560319423675537;0.0;0.0;0.0
1441;0.08857199549674988;-0.03269600123167038;0.904263973236084;0.1844639927148819;-0.15615999698638916;1.0521279573440552;13.720000267028809;-0.49000000953674316;-10.430000305175781
1443;0.0;0.0;0.0;0.1571359932422638;-0.1600639969110489;1.0521279573440552;0.0;0.0;0.0
1446;0.0;0.0;0.0;0.15323199331760406;-0.12883199751377106;1.0482239723205566;0.0;0.0;0.0
1448;0.0;0.0;0.0;0.1727519929409027;-0.1327359974384308;1.0404160022735596;0.0;0.0;0.0
1450;0.03391600027680397;-0.0021959999576210976;0.9140239953994751;0.13468798995018005;-0.12492799758911133;1.044319987297058;12.039999961853027;-0.14000000059604645;-6.440000057220459
1452;0.0;0.0;0.0;0.11907199770212173;-0.11711999773979187;1.0687199831008911;0.0;0.0;0.0
1454;0.0;0.0;0.0;0.12297599762678146;-0.11321599781513214;1.036512017250061;0.0;0.0;0.0
1456;0.0;0.0;0.0;0.10345599800348282;-0.11321599781513214;1.036512017250061;0.0;0.0;0.0
1458;-0.010003999806940556;0.01634800061583519;0.9169519543647766;0.0878399983048439;-0.0936959981918335;1.044319987297058;8.960000038146973;0.0;-2.940000057220459
1461;0.0;0.0;0.0;0.05270399898290634;-0.08979199826717377;1.036512017250061;0.0;0.0;0.0
1463;0.0;0.0;0.0;0.06831999868154526;-0.10540799796581268;1.0687199831008911;0.0;0.0;0.0
1465;0.0;0.0;0.0;0.05270399898290634;-0.08979199826717377;1.0892159938812256;0.0;0.0;0.0
1467;-0.05953599885106087;0.034648001194000244;0.9308599829673767;0.013663999736309052;-0.09759999811649323;1.0726239681243896;4.829999923706055;-0.21000000834465027;-0.49000000953674316
1469;0.0;0.0;0.0;0.013663999736309052;-0.0936959981918335;1.0892159938812256;0.0;0.0;0.0
1471;0.0;0.0;0.0;0.02147199958562851;-0.07417599856853485;1.0726239681243896;0.0;0.0;0.0
1473;0.0;0.0;0.0;-0.0019519999623298645;-0.10150399804115295;1.1009279489517212;0.0;0.0;0.0
1475;-0.11101999878883362;0.03660000115633011;0.9433040022850037;-0.0019519999623298645;-0.10540799796581268;1.0687199831008911;0.6299999952316284;-1.6100000143051147;2.5899999141693115
1478;0.0;0.0;0.0;-0.02537599951028824;-0.10150399804115295;1.0931199789047241;0.0;0.0;0.0
1480;0.0;0.0;0.0;-0.040991999208927155;-0.08588799834251404;1.0648159980773926;0.0;0.0;0.0
1482;0.0;0.0;0.0;-0.0331839993596077;-0.10150399804115295;1.0970239639282227;0.0;0.0;0.0
1484;-0.14761999249458313;0.02903600037097931;0.9557479619979858;-0.02537599951028824;-0.1210239976644516;1.0970239639282227;-2.6600000858306885;-3.569999933242798;7.349999904632568
1486;0.0;0.0;0.0;-0.044895999133586884;-0.10540799796581268;1.1136159896850586;0.0;0.0;0.0
1488;0.0;0.0;0.0;-0.04879999905824661;-0.10150399804115295;1.1175199747085571;0.0;0.0;0.0
1490;0.0;0.0;0.0;-0.029279999434947968;-0.12492799758911133;1.0970239639282227;0.0;0.0;0.0
1492;-0.16274799406528473;0.009027999825775623;0.9747799634933472;-0.037087999284267426;-0.1600639969110489;1.1292319297790527;-5.740000247955322;-6.300000190734863;12.460000038146973
1495;0.0;0.0;0.0;-0.044895999133586884;-0.15615999698638916;1.1419199705123901;0.0;0.0;0.0
1497;0.0;0.0;0.0;-0.029279999434947968;-0.18348799645900726;1.1214239597320557;0.0;0.0;0.0
1499;0.0;0.0;0.0;-0.02147199958562851;-0.16787199676036835;1.0931199789047241;0.0;0.0;0.0
1501;-0.1512800008058548;-0.028547998517751694;0.981611967086792;-0.037087999284267426;-0.17177599668502808;1.1175199747085571;-8.260000228881836;-9.449999809265137;16.940000534057617
1503;0.0;0.0;0.0;0.0058559998869895935;-0.19910399615764618;1.0970239639282227;0.0;0.0;0.0
1505;0.0;0.0;0.0;0.013663999736309052;-0.2147199958562851;1.0970239639282227;0.0;0.0;0.0
1507;0.0;0.0;0.0;0.029279999434947968;-0.22252799570560455;1.0843359231948853;0.0;0.0;0.0
1509;-0.1163880005478859;-0.08466799557209015;0.9589200019836426;0.02537599951028824;-0.2537599802017212;1.060912013053894;-8.609999656677246;-10.079999923706055;19.600000381469727
1512;0.0;0.0;0.0;0.037087999284267426;-0.27327999472618103;1.0970239639282227;0.0;0.0;0.0
1514;0.0;0.0;0.0;0.01756799966096878;-0.2576639950275421;1.0804319381713867;0.0;0.0;0.0
1516;0.0;0.0;0.0;0.0331839993596077;-0.2576639950275421;1.044319987297058;0.0;0.0;0.0
1518;-0.09149999916553497;-0.1256600022315979;0.9425719976425171;0.013663999736309052;-0.27327999472618103;1.036512017250061;-6.650000095367432;-7.490000247955322;21.06999969482422
1520;0.0;0.0;0.0;0.044895999133586884;-0.2654719948768616;1.060912013053894;0.0;0.0;0.0
1522;0.0;0.0;0.0;0.029279999434947968;-0.2654719948768616;1.0560319423675537;0.0;0.0;0.0
1524;0.0;0.0;0.0;0.02147199958562851;-0.284991979598999;1.0521279573440552;0.0;0.0;0.0
1526;-0.08930400013923645;-0.14883999526500702;0.9252479672431946;0.02537599951028824;-0.27327999472618103;1.0521279573440552;-3.5;-2.940000057220459;20.510000228881836
1529;0.0;0.0;0.0;0.013663999736309052;-0.2967039942741394;1.0765279531478882;0.0;0.0;0.0
1531;0.0;0.0;0.0;0.029279999434947968;-0.28889599442481995;1.0687199831008911;0.0;0.0;0.0
1533;0.0;0.0;0.0;-0.02537599951028824;-0.24985599517822266;1.085312008857727;0.0;0.0;0.0
1535;-0.10833600163459778;-0.15030398964881897;0.9413520097732544;-0.02147199958562851;-0.27327999472618103;1.0804319381713867;-1.1200000047683716;2.1700000762939453;17.989999771118164
1537;0.0;0.0;0.0;0.0058559998869895935;-0.27327999472618103;1.0892159938812256;0.0;0.0;0.0
1539;0.0;0.0;0.0;-0.037087999284267426;-0.28889599442481995;1.1087360382080078;0.0;0.0;0.0
1541;0.0;0.0;0.0;-0.009759999811649323;-0.27327999472618103;1.1048319339752197;0.0;0.0;0.0
1543;-0.13712799549102783;-0.1466439962387085;0.961359977722168;-0.009759999811649323;-0.284991979598999;1.1009279489517212;-0.8400000333786011;5.25;14.489999771118164
1546;0.0;0.0;0.0;-0.013663999736309052;-0.2576639950275421;1.0931199789047241;0.0;0.0;0.0
1548;0.0;0.0;0.0;-0.029279999434947968;-0.26156800985336304;1.0892159938812256;0.0;0.0;0.0
1550;0.0;0.0;0.0;-0.05660799890756607;-0.26156800985336304;1.1048319339752197;0.0;0.0;0.0
1552;-0.15567199885845184;-0.1420079916715622;0.9608719944953918;-0.044895999133586884;-0.27718400955200195;1.1009279489517212;-1.0499999523162842;7.559999942779541;10.569999694824219
1554;0.0;0.0;0.0;-0.08393599838018417;-0.2420479953289032;1.107759952545166;0.0;0.0;0.0
1556;0.0;0.0;0.0;-0.09174399822950363;-0.2654719948768616;1.1038559675216675;0.0;0.0;0.0
1558;0.0;0.0;0.0;-0.09467199444770813;-0.2576639950275421;1.124351978302002;0.0;0.0;0.0
1560;-0.19300399720668793;-0.12151199579238892;0.9913719892501831;-0.11028799414634705;-0.23814399540424347;1.1282559633255005;-1.8899999856948853;9.449999809265137;7.630000114440918
1563;0.0;0.0;0.0;-0.13761599361896515;-0.24595199525356293;1.1526559591293335;0.0;0.0;0.0
1565;0.0;0.0;0.0;-0.13371199369430542;-0.2420479953289032;1.1526559591293335;0.0;0.0;0.0
1567;0.0;0.0;0.0;-0.12590399384498596;-0.22252799570560455;1.1770559549331665;0.0;0.0;0.0
1569;-0.25742000341415405;-0.1117519959807396;1.034071922302246;-0.17665599286556244;-0.2420479953289032;1.165343999862671;-4.760000228881836;9.100000381469727;5.740000247955322
1571;0.0;0.0;0.0;-0.1454239934682846;-0.2654719948768616;1.2063360214233398;0.0;0.0;0.0
1573;0.0;0.0;0.0;-0.1571359932422638;-0.24985599517822266;1.2102400064468384;0.0;0.0;0.0
1575;0.0;0.0;0.0;-0.16884799301624298;-0.23814399540424347;1.1819360256195068;0.0;0.0;0.0
1577;-0.2820639908313751;-0.12468399852514267;1.060912013053894;-0.16884799301624298;-0.2693759799003601;1.2102400064468384;-8.680000305175781;6.510000228881836;5.53000020980835
1580;0.0;0.0;0.0;-0.16103999316692352;-0.2654719948768616;1.1985279321670532;0.0;0.0;0.0
1582;0.0;0.0;0.0;-0.1727519929409027;-0.2576639950275421;1.2190239429473877;0.0;0.0;0.0
1584;0.0;0.0;0.0;-0.17665599286556244;-0.284991979598999;1.2229279279708862;0.0;0.0;0.0
1586;-0.2752319872379303;-0.1495719999074936;1.0782359838485718;-0.1571359932422638;-0.29280000925064087;1.2024319171905518;-11.760000228881836;4.269999980926514;7.349999904632568
1588;0.0;0.0;0.0;-0.1844639927148819;-0.31622397899627686;1.1985279321670532;0.0;0.0;0.0
1590;0.0;0.0;0.0;-0.1454239934682846;-0.3201279938220978;1.2268320322036743;0.0;0.0;0.0
1592;0.0;0.0;0.0;-0.1571359932422638;-0.30451199412345886;1.2229279279708862;0.0;0.0;0.0
1594;-0.2845039963722229;-0.18104799091815948;1.0943399667739868;-0.18055999279022217;-0.3201279938220978;1.2434239387512207;-13.020000457763672;3.5;9.239999771118164
1597;0.0;0.0;0.0;-0.18055999279022217;-0.33183997869491577;1.262943983078003;0.0;0.0;0.0
1599;0.0;0.0;0.0;-0.18836799263954163;-0.3474559783935547;1.2346400022506714;0.0;0.0;0.0
1601;0.0;0.0;0.0;-0.2117919921875;-0.3396480083465576;1.2473279237747192;0.0;0.0;0.0
1603;-0.3198840022087097;-0.21496400237083435;1.1114200353622437;-0.2235039919614792;-0.3474559783935547;1.23854398727417;-13.15999984741211;3.5;9.730000495910645
1605;0.0;0.0;0.0;-0.21959999203681946;-0.39430397748947144;1.2551360130310059;0.0;0.0;0.0
1607;0.0;0.0;0.0;-0.23131199181079865;-0.38259199261665344;1.2512320280075073;0.0;0.0;0.0
1609;0.0;0.0;0.0;-0.2235039919614792;-0.39430397748947144;1.2551360130310059;0.0;0.0;0.0
1611;-0.35111600160598755;-0.240339994430542;1.123863935470581;-0.21569599211215973;-0.39430397748947144;1.23854398727417;-12.739999771118164;2.7300000190734863;9.59000015258789
1614;0.0;0.0;0.0;-0.23521599173545837;-0.38259199261665344;1.2668479681015015;0.0;0.0;0.0
1616;0.0;0.0;0.0;-0.24692799150943756;-0.39430397748947144;1.2678239345550537;0.0;0.0;0.0
1618;0.0;0.0;0.0;-0.21569599211215973;-0.374783992767334;1.2512320280075073;0.0;0.0;0.0
1620;-0.33891600370407104;-0.25034400820732117;1.122399926185608;-0.18836799263954163;-0.3786879777908325;1.2590399980545044;-12.109999656677246;0.8400000333786011;9.239999771118164
1622;0.0;0.0;0.0;-0.20788799226284027;-0.3669759929180145;1.2375680208206177;0.0;0.0;0.0
1624;0.0;0.0;0.0;-0.16884799301624298;-0.374783992767334;1.2424479722976685;0.0;0.0;0.0
1626;0.0;0.0;0.0;-0.18836799263954163;-0.3630719780921936;1.2824640274047852;0.0;0.0;0.0
1628;-0.30914798378944397;-0.24619600176811218;1.1228879690170288;-0.16494399309158325;-0.3903999924659729;1.2668479681015015;-12.039999961853027;-0.2800000011920929;7.840000152587891
1631;0.0;0.0;0.0;-0.18055999279022217;-0.3786879777908325;1.270751953125;0.0;0.0;0.0
1633;0.0;0.0;0.0;-0.1844639927148819;-0.3630719780921936;1.2580640316009521;0.0;0.0;0.0
1635;0.0;0.0;0.0;-0.20398399233818054;-0.39430397748947144;1.2658720016479492;0.0;0.0;0.0
1637;-0.31280800700187683;-0.2449759989976883;1.1248400211334229;-0.1844639927148819;-0.38649600744247437;1.2580640316009521;-13.09000015258789;-1.3300000429153442;4.829999923706055
1639;0.0;0.0;0.0;-0.20788799226284027;-0.3903999924659729;1.23854398727417;0.0;0.0;0.0
1641;0.0;0.0;0.0;-0.17665599286556244;-0.38649600744247437;1.2512320280075073;0.0;0.0;0.0
1643;0.0;0.0;0.0;-0.20398399233818054;-0.3903999924659729;1.2346400022506714;0.0;0.0;0.0
1645;-0.313539981842041;-0.2593719959259033;1.113860011100769;-0.17665599286556244;-0.3903999924659729;1.2668479681015015;-14.140000343322754;-2.940000057220459;0.7699999809265137
1648;0.0;0.0;0.0;-0.1844639927148819;-0.38259199261665344;1.2346400022506714;0.0;0.0;0.0
1650;0.0;0.0;0.0;-0.18055999279022217;-0.4060159921646118;1.2307360172271729;0.0;0.0;0.0
1652;0.0;0.0;0.0;-0.15323199331760406;-0.38259199261665344;1.2307360172271729;0.0;0.0;0.0
1654;-0.293287992477417;-0.2686440050601959;1.1043440103530884;-0.1454239934682846;-0.42163199186325073;1.2307360172271729;-13.930000305175781;-3.7100000381469727;-3.2899999618530273
1656;0.0;0.0;0.0;-0.1298079937696457;-0.42553597688674927;1.2180479764938354;0.0;0.0;0.0
1658;0.0;0.0;0.0;-0.16494399309158325;-0.4060159921646118;1.2131680250167847;0.0;0.0;0.0
1660;0.0;0.0;0.0;-0.12199999392032623;-0.4060159921646118;1.2131680250167847;0.0;0.0;0.0
1662;-0.2579079866409302;-0.27718400955200195;1.0862879753112793;-0.10638399422168732;-0.4177280068397522;1.197551965713501;-12.180000305175781;-2.870000123977661;-6.579999923706055
1665;0.0;0.0;0.0;-0.10638399422168732;-0.4138239920139313;1.2092639207839966;0.0;0.0;0.0
1667;0.0;0.0;0.0;-0.1298079937696457;-0.42553597688674927;1.189743995666504;0.0;0.0;0.0
1669;0.0;0.0;0.0;-0.10247999429702759;-0.40991997718811035;1.205359935760498;0.0;0.0;0.0
1671;-0.22643199563026428;-0.2857239842414856;1.0740879774093628;-0.12199999392032623;-0.40991997718811035;1.229759931564331;-8.539999961853027;0.6299999952316284;-8.539999961853027
1673;0.0;0.0;0.0;-0.1298079937696457;-0.4138239920139313;1.1946239471435547;0.0;0.0;0.0
1675;0.0;0.0;0.0;-0.14932799339294434;-0.4450559914112091;1.1985279321670532;0.0;0.0;0.0
1677;0.0;0.0;0.0;-0.1180959939956665;-0.40991997718811035;1.1985279321670532;0.0;0.0;0.0
1679;-0.2483920007944107;-0.28426000475883484;1.0726239681243896;-0.1298079937696457;-0.4138239920139313;1.1858400106430054;-2.799999952316284;3.9200000762939453;-8.890000343322754
1682;0.0;0.0;0.0;-0.1571359932422638;-0.39430397748947144;1.1985279321670532;0.0;0.0;0.0
1684;0.0;0.0;0.0;-0.13761599361896515;-0.39430397748947144;1.1858400106430054;0.0;0.0;0.0
1686;0.0;0.0;0.0;-0.14932799339294434;-0.4021120071411133;1.1780319213867188;0.0;0.0;0.0
1688;-0.2693759799003601;-0.26449599862098694;1.0560319423675537;-0.15323199331760406;-0.3903999924659729;1.1614400148391724;4.900000095367432;5.25;-10.710000038146973
1690;0.0;0.0;0.0;-0.12199999392032623;-0.37088000774383545;1.1624159812927246;0.0;0.0;0.0
1692;0.0;0.0;0.0;-0.1298079937696457;-0.3630719780921936;1.1536319255828857;0.0;0.0;0.0
1694;0.0;0.0;0.0;-0.0907679945230484;-0.3474559783935547;1.1497279405593872;0.0;0.0;0.0
1696;-0.23204399645328522;-0.23058000206947327;1.0291919708251953;-0.06441599875688553;-0.3357439935207367;1.1575360298156738;13.300000190734863;6.789999961853027;-12.390000343322754
1699;0.0;0.0;0.0;-0.06441599875688553;-0.3201279938220978;1.1419199705123901;0.0;0.0;0.0
1701;0.0;0.0;0.0;-0.06441599875688553;-0.2967039942741394;1.1370400190353394;0.0;0.0;0.0
1703;0.0;0.0;0.0;-0.05270399898290634;-0.32793599367141724;1.1497279405593872;0.0;0.0;0.0
1705;-0.1798280030488968;-0.1803160011768341;1.014307975769043;-0.0331839993596077;-0.30451199412345886;1.1458239555358887;19.739999771118164;10.569999694824219;-12.319999694824219
1707;0.0;0.0;0.0;-0.0331839993596077;-0.284991979598999;1.1282559633255005;0.0;0.0;0.0
1709;0.0;0.0;0.0;-0.037087999284267426;-0.26156800985336304;1.124351978302002;0.0;0.0;0.0
1711;0.0;0.0;0.0;-0.06441599875688553;-0.26156800985336304;1.140944004058838;0.0;0.0;0.0
1713;-0.1664080023765564;-0.13249199092388153;1.010159969329834;-0.05270399898290634;-0.22643199563026428;1.140944004058838;22.889999389648438;14.699999809265137;-10.289999961853027
1716;0.0;0.0;0.0;-0.044895999133586884;-0.23814399540424347;1.140944004058838;0.0;0.0;0.0
1718;0.0;0.0;0.0;-0.05270399898290634;-0.24595199525356293;1.148751974105835;0.0;0.0;0.0
1720;0.0;0.0;0.0;-0.02147199958562851;-0.19129599630832672;1.1604639291763306;0.0;0.0;0.0
1722;-0.1622599959373474;-0.09467199444770813;1.0104039907455444;-0.013663999736309052;-0.21862399578094482;1.1360639333724976;22.96000099182129;16.59000015258789;-6.789999961853027
1724;0.0;0.0;0.0;-0.044895999133586884;-0.19910399615764618;1.132159948348999;0.0;0.0;0.0
1726;0.0;0.0;0.0;0.009759999811649323;-0.19519999623298645;1.140944004058838;0.0;0.0;0.0
1728;0.0;0.0;0.0;0.0058559998869895935;-0.18348799645900726;1.1770559549331665;0.0;0.0;0.0
1730;-0.13127200305461884;-0.06441599875688553;1.0160160064697266;0.0019519999623298645;-0.19129599630832672;1.1604639291763306;20.020000457763672;16.309999465942383;-2.240000009536743
1733;0.0;0.0;0.0;0.02147199958562851;-0.17958399653434753;1.1643680334091187;0.0;0.0;0.0
1735;0.0;0.0;0.0;0.04879999905824661;-0.19129599630832672;1.140944004058838;0.0;0.0;0.0
1737;0.0;0.0;0.0;0.04879999905824661;-0.1600639969110489;1.1448479890823364;0.0;0.0;0.0
1739;-0.08149600028991699;-0.03806399926543236;1.0208959579467773;0.04879999905824661;-0.19129599630832672;1.1448479890823364;14.420000076293945;14.90999984741211;0.9800000190734863
1741;0.0;0.0;0.0;0.07222399860620499;-0.1600639969110489;1.1253279447555542;0.0;0.0;0.0
1743;0.0;0.0;0.0;0.10345599800348282;-0.16396799683570862;1.1331360340118408;0.0;0.0;0.0
1745;0.0;0.0;0.0;0.09174399822950363;-0.16396799683570862;1.1497279405593872;0.0;0.0;0.0
1747;-0.031231999397277832;-0.040991999208927155;1.013819932937622;0.09564799815416336;-0.187391996383667;1.1331360340118408;7.420000076293945;13.789999961853027;2.380000114440918
1750;0.0;0.0;0.0;0.115167997777462;-0.16396799683570862;1.1253279447555542;0.0;0.0;0.0
1752;0.0;0.0;0.0;0.13468798995018005;-0.17958399653434753;1.1419199705123901;0.0;0.0;0.0
1754;0.0;0.0;0.0;0.1424959897994995;-0.22252799570560455;1.1380159854888916;0.0;0.0;0.0
1756;0.010003999806940556;-0.06124399974942207;1.0062559843063354;0.13859200477600098;-0.18348799645900726;1.1702239513397217;1.190000057220459;13.300000190734863;2.0999999046325684
1758;0.0;0.0;0.0;0.17665599286556244;-0.21862399578094482;1.1448479890823364;0.0;0.0;0.0
1760;0.0;0.0;0.0;0.16494399309158325;-0.20691199600696564;1.1360639333724976;0.0;0.0;0.0
1762;0.0;0.0;0.0;0.16591998934745789;-0.21862399578094482;1.1282559633255005;0.0;0.0;0.0
1765;0.04172400012612343;-0.08637599647045135;1.0062559843063354;0.16591998934745789;-0.22252799570560455;1.165343999862671;-2.940000057220459;12.670000076293945;0.14000000059604645
1767;0.0;0.0;0.0;0.16201600432395935;-0.24595199525356293;1.1282559633255005;0.0;0.0;0.0
1769;0.0;0.0;0.0;0.1844639927148819;-0.26156800985336304;1.1448479890823364;0.0;0.0;0.0
1771;0.0;0.0;0.0;0.20788799226284027;-0.24595199525356293;1.132159948348999;0.0;0.0;0.0
1773;0.0773480013012886;-0.10955599695444107;1.006011962890625;0.23521599173545837;-0.2654719948768616;1.1448479890823364;-4.059999942779541;11.760000228881836;-2.6600000858306885
1775;0.0;0.0;0.0;0.23131199181079865;-0.2537599802017212;1.1360639333724976;0.0;0.0;0.0
1777;0.0;0.0;0.0;0.2547360062599182;-0.2693759799003601;1.1126400232315063;0.0;0.0;0.0
1779;0.0;0.0;0.0;0.2664479911327362;-0.29280000925064087;1.1204479932785034;0.0;0.0;0.0
1782;0.13176000118255615;-0.1407880038022995;0.9872239828109741;0.2898719906806946;-0.28889599442481995;1.0882400274276733;-1.190000057220459;11.270000457763672;-4.269999980926514
1784;0.0;0.0;0.0;0.25863999128341675;-0.2967039942741394;1.1038559675216675;0.0;0.0;0.0
1786;0.0;0.0;0.0;0.27035200595855713;-0.284991979598999;1.0921440124511719;0.0;0.0;0.0
1788;0.0;0.0;0.0;0.2898719906806946;-0.2654719948768616;1.0716480016708374;0.0;0.0;0.0
1790;0.17592400312423706;-0.14859600365161896;0.9620919823646545;0.2937760055065155;-0.27327999472618103;1.0921440124511719;5.949999809265137;12.739999771118164;-4.199999809265137
1792;0.0;0.0;0.0;0.29767999053001404;-0.2693759799003601;1.1009279489517212;0.0;0.0;0.0
1794;0.0;0.0;0.0;0.3211039900779724;-0.2537599802017212;1.0931199789047241;0.0;0.0;0.0
1796;0.0;0.0;0.0;0.3172000050544739;-0.21081599593162537;1.1175199747085571;0.0;0.0;0.0
1799;0.20081199705600739;-0.11834000051021576;0.9625799655914307;0.35624000430107117;-0.2693759799003601;1.0482239723205566;13.649999618530273;14.84000015258789;-3.640000104904175
1801;0.0;0.0;0.0;0.3718560039997101;-0.21081599593162537;1.0687199831008911;0.0;0.0;0.0
1803;0.0;0.0;0.0;0.35233598947525024;-0.17958399653434753;1.0765279531478882;0.0;0.0;0.0
1805;0.0;0.0;0.0;0.36795198917388916;-0.19910399615764618;1.0892159938812256;0.0;0.0;0.0
1807;0.24448800086975098;-0.0756400004029274;0.9464759826660156;0.399183988571167;-0.18348799645900726;1.0687199831008911;18.899999618530273;16.3799991607666;-3.0799999237060547
1809;0.0;0.0;0.0;0.3757599890232086;-0.16787199676036835;1.0882400274276733;0.0;0.0;0.0
1811;0.0;0.0;0.0;0.387472003698349;-0.11321599781513214;1.0882400274276733;0.0;0.0;0.0
1813;0.0;0.0;0.0;0.387472003698349;-0.11711999773979187;1.083359956741333;0.0;0.0;0.0
1816;0.2671799957752228;-0.003415999934077263;0.9559919834136963;0.4021120071411133;-0.1210239976644516;1.0716480016708374;20.229999542236328;17.360000610351562;-1.399999976158142
1818;0.0;0.0;0.0;0.39137598872184753;-0.10150399804115295;1.0921440124511719;0.0;0.0;0.0
1820;0.0;0.0;0.0;0.39820799231529236;-0.10150399804115295;1.0638400316238403;0.0;0.0;0.0
1822;0.0;0.0;0.0;0.41870400309562683;-0.08979199826717377;1.0882400274276733;0.0;0.0;0.0
1824;0.2793799936771393;0.03440399840474129;0.9542839527130127;0.42163199186325073;-0.07807999849319458;1.075551986694336;16.3799991607666;15.75;-0.49000000953674316
1826;0.0;0.0;0.0;0.40991997718811035;-0.10931199789047241;1.0931199789047241;0.0;0.0;0.0
1828;0.0;0.0;0.0;0.44896000623703003;-0.08198399841785431;1.0892159938812256;0.0;0.0;0.0
1830;0.0;0.0;0.0;0.43724799156188965;-0.07027199864387512;1.0726239681243896;0.0;0.0;0.0
1833;0.3111000061035156;0.04367600008845329;0.9569680094718933;0.45286399126052856;-0.08979199826717377;1.085312008857727;9.9399995803833;13.649999618530273;1.75
1835;0.0;0.0;0.0;0.47628799080848694;-0.0936959981918335;1.1048319339752197;0.0;0.0;0.0
1837;0.0;0.0;0.0;0.46457600593566895;-0.10150399804115295;1.1048319339752197;0.0;0.0;0.0
1839;0.0;0.0;0.0;0.4840959906578064;-0.0936959981918335;1.0970239639282227;0.0;0.0;0.0
1841;0.34599199891090393;0.03391600027680397;0.9628239870071411;0.48019200563430786;-0.10540799796581268;1.0892159938812256;2.0999999046325684;10.5;7.0
1843;0.0;0.0;0.0;0.48799997568130493;-0.10931199789047241;1.0794559717178345;0.0;0.0;0.0
1845;0.0;0.0;0.0;0.5114240050315857;-0.10540799796581268;1.0716480016708374;0.0;0.0;0.0
1847;0.0;0.0;0.0;0.5153279900550842;-0.12883199751377106;1.0638400316238403;0.0;0.0;0.0
1850;0.3777119815349579;0.007319999858736992;0.9474520087242126;0.5153279900550842;-0.1327359974384308;1.0794559717178345;-4.829999923706055;7.0;11.619999885559082
1852;0.0;0.0;0.0;0.5036159753799438;-0.1327359974384308;1.0921440124511719;0.0;0.0;0.0
1854;0.0;0.0;0.0;0.5309439897537231;-0.19129599630832672;1.075551986694336;0.0;0.0;0.0
1856;0.0;0.0;0.0;0.569983959197998;-0.21081599593162537;1.0638400316238403;0.0;0.0;0.0
1858;0.4138239920139313;-0.0331839993596077;0.9362279772758484;0.5465599894523621;-0.1756799966096878;1.0599359273910522;-9.800000190734863;4.269999980926514;13.510000228881836
1860;0.0;0.0;0.0;0.5582720041275024;-0.19129599630832672;1.0589599609375;0.0;0.0;0.0
1862;0.0;0.0;0.0;0.5738880038261414;-0.20691199600696564;1.0433440208435059;0.0;0.0;0.0
1864;0.0;0.0;0.0;0.5738880038261414;-0.19129599630832672;1.0716480016708374;0.0;0.0;0.0
1867;0.4472520053386688;-0.06929600238800049;0.9274439811706543;0.5856000185012817;-0.2147199958562851;1.051151990890503;-13.15999984741211;2.7300000190734863;13.720000267028809
1869;0.0;0.0;0.0;0.5738880038261414;-0.230335995554924;1.0433440208435059;0.0;0.0;0.0
1871;0.0;0.0;0.0;0.5973119735717773;-0.21862399578094482;1.0589599609375;0.0;0.0;0.0
1873;0.0;0.0;0.0;0.6207360029220581;-0.230335995554924;1.0472480058670044;0.0;0.0;0.0
1875;0.4870239794254303;-0.09174399822950363;0.920367956161499;0.6168320178985596;-0.23423999547958374;1.0599359273910522;-16.59000015258789;0.699999988079071;13.230000495910645
1877;0.0;0.0;0.0;0.6480640172958374;-0.2537599802017212;1.0355359315872192;0.0;0.0;0.0
1879;0.0;0.0;0.0;0.636352002620697;-0.23814399540424347;1.0472480058670044;0.0;0.0;0.0
1881;0.0;0.0;0.0;0.6129279732704163;-0.23814399540424347;1.02675199508667;0.0;0.0;0.0
1884;0.5177679657936096;-0.11467999964952469;0.9128040075302124;0.636352002620697;-0.2654719948768616;1.0433440208435059;-19.31999969482422;-1.2599999904632568;10.010000228881836
1886;0.0;0.0;0.0;0.6480640172958374;-0.2810879945755005;1.0150399208068848;0.0;0.0;0.0
1888;0.0;0.0;0.0;0.6627039909362793;-0.2810879945755005;1.0228480100631714;0.0;0.0;0.0
1890;0.0;0.0;0.0;0.6978399753570557;-0.30060797929763794;1.0472480058670044;0.0;0.0;0.0
1892;0.545583963394165;-0.1495719999074936;0.9120720028877258;0.6861279606819153;-0.29280000925064087;1.0550559759140015;-20.440000534057617;-3.2200000286102295;6.230000019073486
1894;0.0;0.0;0.0;0.659775972366333;-0.28889599442481995;1.0355359315872192;0.0;0.0;0.0
1896;0.0;0.0;0.0;0.6588000059127808;-0.3240320086479187;1.036512017250061;0.0;0.0;0.0
1898;0.0;0.0;0.0;0.6714879870414734;-0.3123199939727783;1.060912013053894;0.0;0.0;0.0
1901;0.5543680191040039;-0.1798280030488968;0.9149999618530273;0.6822239756584167;-0.30060797929763794;1.0560319423675537;-19.670000076293945;-5.53000020980835;3.990000009536743
1903;0.0;0.0;0.0;0.6822239756584167;-0.33183997869491577;1.036512017250061;0.0;0.0;0.0
1905;0.0;0.0;0.0;0.7173599600791931;-0.3357439935207367;1.0238239765167236;0.0;0.0;0.0
1907;0.0;0.0;0.0;0.7407839894294739;-0.34355199337005615;1.019919991493225;0.0;0.0;0.0
1909;0.5797439813613892;-0.20642399787902832;0.8957239985466003;0.709551990032196;-0.35526400804519653;1.012112021446228;-16.239999771118164;-7.559999942779541;1.6100000143051147
1911;0.0;0.0;0.0;0.7134559750556946;-0.35526400804519653;1.0111359357833862;0.0;0.0;0.0
1913;0.0;0.0;0.0;0.748591959476471;-0.3474559783935547;0.9828319549560547;0.0;0.0;0.0
1915;0.0;0.0;0.0;0.748591959476471;-0.35526400804519653;1.002351999282837;0.0;0.0;0.0
1918;0.6222000122070312;-0.22545599937438965;0.8701039552688599;0.7681120038032532;-0.35526400804519653;1.002351999282837;-10.430000305175781;-6.860000133514404;-0.6299999952316284
1920;0.0;0.0;0.0;0.7720159888267517;-0.38649600744247437;0.986735999584198;0.0;0.0;0.0
1922;0.0;0.0;0.0;0.7837280035018921;-0.3669759929180145;0.9584319591522217;0.0;0.0;0.0
1924;0.0;0.0;0.0;0.7759199738502502;-0.3786879777908325;0.986735999584198;0.0;0.0;0.0
1926;0.6541640162467957;-0.23350799083709717;0.8510719537734985;0.7798239588737488;-0.38649600744247437;0.9545279741287231;-3.009999990463257;-3.640000104904175;-3.2200000286102295
1928;0.0;0.0;0.0;0.8071519732475281;-0.3630719780921936;0.9838079810142517;0.0;0.0;0.0
1930;0.0;0.0;0.0;0.7759199738502502;-0.3669759929180145;0.9594079852104187;0.0;0.0;0.0
1933;0.0;0.0;0.0;0.7642079591751099;-0.34355199337005615;0.9672159552574158;0.0;0.0;0.0
1935;0.6595320105552673;-0.2286279946565628;0.8393599987030029;0.7837280035018921;-0.3396480083465576;0.9672159552574158;5.389999866485596;1.0499999523162842;-6.369999885559082
1937;0.0;0.0;0.0;0.7603039741516113;-0.3513599932193756;0.9877119660377502;0.0;0.0;0.0
1939;0.0;0.0;0.0;0.748591959476471;-0.3396480083465576;0.9633119702339172;0.0;0.0;0.0
1941;0.0;0.0;0.0;0.748591959476471;-0.3513599932193756;0.9916160106658936;0.0;0.0;0.0
1943;0.6407439708709717;-0.20666798949241638;0.8383839726448059;0.7446879744529724;-0.31622397899627686;0.9750239849090576;13.579999923706055;5.740000247955322;-8.609999656677246
1945;0.0;0.0;0.0;0.7368800044059753;-0.30060797929763794;0.9955199956893921;0.0;0.0;0.0
1947;0.0;0.0;0.0;0.709551990032196;-0.3084160089492798;0.9916160106658936;0.0;0.0;0.0
1950;0.0;0.0;0.0;0.6978399753570557;-0.28889599442481995;0.9711199998855591;0.0;0.0;0.0
1952;0.6126840114593506;-0.16835999488830566;0.8452159762382507;0.7290719747543335;-0.27327999472618103;0.9750239849090576;19.8799991607666;9.380000114440918;-9.029999732971191
1954;0.0;0.0;0.0;0.6939359903335571;-0.2576639950275421;0.9789279699325562;0.0;0.0;0.0
1956;0.0;0.0;0.0;0.6939359903335571;-0.2537599802017212;0.9750239849090576;0.0;0.0;0.0
1958;0.0;0.0;0.0;0.6822239756584167;-0.22643199563026428;1.012112021446228;0.0;0.0;0.0
1960;0.579255998134613;-0.12077999860048294;0.8576599955558777;0.6978399753570557;-0.24595199525356293;1.0033279657363892;23.309999465942383;11.130000114440918;-7.980000019073486
1962;0.0;0.0;0.0;0.7017439603805542;-0.22643199563026428;1.0150399208068848;0.0;0.0;0.0
1964;0.0;0.0;0.0;0.6588000059127808;-0.22252799570560455;1.0150399208068848;0.0;0.0;0.0
1967;0.0;0.0;0.0;0.6666079759597778;-0.21862399578094482;1.0228480100631714;0.0;0.0;0.0
1969;0.5458279848098755;-0.07954400032758713;0.8764479756355286;0.6519680023193359;-0.19519999623298645;1.0189440250396729;23.59000015258789;10.850000381469727;-5.949999809265137
1971;0.0;0.0;0.0;0.6285439729690552;-0.17958399653434753;1.0189440250396729;0.0;0.0;0.0
1973;0.0;0.0;0.0;0.6168320178985596;-0.19910399615764618;1.0355359315872192;0.0;0.0;0.0
1975;0.0;0.0;0.0;0.6168320178985596;-0.19129599630832672;1.0306559801101685;0.0;0.0;0.0
1977;0.5087400078773499;-0.0605119988322258;0.8930400013923645;0.6051200032234192;-0.22252799570560455;1.02675199508667;20.579999923706055;8.539999961853027;-3.0799999237060547
1979;0.0;0.0;0.0;0.6285439729690552;-0.1756799966096878;1.0150399208068848;0.0;0.0;0.0
1981;0.0;0.0;0.0;0.5816959738731384;-0.17958399653434753;1.051151990890503;0.0;0.0;0.0
1984;0.0;0.0;0.0;0.5777919888496399;-0.19519999623298645;1.0433440208435059;0.0;0.0;0.0
1986;0.4818999767303467;-0.058559998869895935;0.9047519564628601;0.5895040035247803;-0.187391996383667;1.0550559759140015;15.050000190734863;5.039999961853027;-0.8400000333786011
1988;0.0;0.0;0.0;0.5777919888496399;-0.1756799966096878;1.0394400358200073;0.0;0.0;0.0
1990;0.0;0.0;0.0;0.5777919888496399;-0.2030079960823059;1.0550559759140015;0.0;0.0;0.0
1992;0.0;0.0;0.0;0.569983959197998;-0.187391996383667;1.0921440124511719;0.0;0.0;0.0
1994;0.4614039957523346;-0.06685599684715271;0.9291520118713379;0.5738880038261414;-0.230335995554924;1.0921440124511719;7.980000019073486;1.1200000047683716;0.21000000834465027
1996;0.0;0.0;0.0;0.5660799741744995;-0.22643199563026428;1.0599359273910522;0.0;0.0;0.0
1998;0.0;0.0;0.0;0.569983959197998;-0.23423999547958374;1.10971200466156;0.0;0.0;0.0
2001;0.0;0.0;0.0;0.5816959738731384;-0.2420479953289032;1.0892159938812256;0.0;0.0;0.0
2003;0.4474959969520569;-0.10052800178527832;0.9545279741287231;0.562175989151001;-0.24595199525356293;1.0892159938812256;0.0;-4.269999980926514;0.42000001668930054
2005;0.0;0.0;0.0;0.569983959197998;-0.27327999472618103;1.1126400232315063;0.0;0.0;0.0
2007;0.0;0.0;0.0;0.5348479747772217;-0.2967039942741394;1.1009279489517212;0.0;0.0;0.0
2009;0.0;0.0;0.0;0.5660799741744995;-0.28889599442481995;1.0726239681243896;0.0;0.0;0.0
2011;0.4421280026435852;-0.15689200162887573;0.9562360048294067;0.5816959738731384;-0.3123199939727783;1.0970239639282227;-6.159999847412109;-9.800000190734863;-0.14000000059604645
2013;0.0;0.0;0.0;0.5504639744758606;-0.3474559783935547;1.0804319381713867;0.0;0.0;0.0
2015;0.0;0.0;0.0;0.5738880038261414;-0.3630719780921936;1.0892159938812256;0.0;0.0;0.0
2018;0.0;0.0;0.0;0.5582720041275024;-0.3396480083465576;1.0804319381713867;0.0;0.0;0.0
2020;0.4416399896144867;-0.20178799331188202;0.9472079873085022;0.562175989151001;-0.3357439935207367;1.085312008857727;-8.960000038146973;-13.440000534057617;-1.8899999856948853
2022;0.0;0.0;0.0;0.5543680191040039;-0.35526400804519653;1.0726239681243896;0.0;0.0;0.0
2024;0.0;0.0;0.0;0.5660799741744995;-0.3669759929180145;1.0931199789047241;0.0;0.0;0.0
2026;0.0;0.0;0.0;0.6012159585952759;-0.4567679762840271;1.0316319465637207;0.0;0.0;0.0
2028;0.4472520053386688;-0.24619600176811218;0.9347639679908752;0.5582720041275024;-0.2967039942741394;1.0970239639282227;-8.329999923706055;-15.050000190734863;-3.640000104904175
2030;0.0;0.0;0.0;0.472383975982666;-0.3669759929180145;1.099951982498169;0.0;0.0;0.0
2032;0.0;0.0;0.0;0.5387519598007202;-0.35916799306869507;1.099951982498169;0.0;0.0;0.0
2035;0.0;0.0;0.0;0.5504639744758606;-0.3474559783935547;1.0960479974746704;0.0;0.0;0.0
2037;0.4155319929122925;-0.22935999929904938;0.9674599766731262;0.5504639744758606;-0.374783992767334;1.075551986694336;-5.809999942779541;-16.3799991607666;-5.110000133514404
2039;0.0;0.0;0.0;0.4958080053329468;-0.38259199261665344;1.0882400274276733;0.0;0.0;0.0
2041;0.0;0.0;0.0;0.569983959197998;-0.3903999924659729;1.0599359273910522;0.0;0.0;0.0
2043;0.0;0.0;0.0;0.5231360197067261;-0.3903999924659729;1.0472480058670044;0.0;0.0;0.0
2045;0.4177280068397522;-0.2571759819984436;0.9264679551124573;0.5231360197067261;-0.35526400804519653;1.0472480058670044;-3.8499999046325684;-17.079999923706055;-4.900000095367432
2047;0.0;0.0;0.0;0.5114240050315857;-0.39430397748947144;1.019919991493225;0.0;0.0;0.0
2049;0.0;0.0;0.0;0.5075199604034424;-0.38649600744247437;1.0160160064697266;0.0;0.0;0.0
2052;0.0;0.0;0.0;0.5153279900550842;-0.3786879777908325;1.0238239765167236;0.0;0.0;0.0
2054;0.3945479989051819;-0.24863599240779877;0.8949919939041138;0.5075199604034424;-0.374783992767334;1.0160160064697266;2.940000057220459;-14.210000038146973;-8.539999961853027
2056;0.0;0.0;0.0;0.4958080053329468;-0.3903999924659729;1.0482239723205566;0.0;0.0;0.0
2058;0.0;0.0;0.0;0.5036159753799438;-0.3669759929180145;1.0765279531478882;0.0;0.0;0.0
2060;0.0;0.0;0.0;0.5114240050315857;-0.3396480083465576;1.0277279615402222;0.0;0.0;0.0
2062;0.3760039806365967;-0.2235039919614792;0.9076799750328064;0.49190399050712585;-0.3513599932193756;1.0560319423675537;11.270000457763672;-10.989999771118164;-15.539999961853027
2064;0.0;0.0;0.0;0.44896000623703003;-0.33183997869491577;1.0550559759140015;0.0;0.0;0.0
2066;0.0;0.0;0.0;0.4684799909591675;-0.32793599367141724;1.051151990890503;0.0;0.0;0.0
2069;0.0;0.0;0.0;0.5114240050315857;-0.2654719948768616;1.0794559717178345;0.0;0.0;0.0
2071;0.35233598947525024;-0.17836399376392365;0.9323239922523499;0.44896000623703003;-0.3084160089492798;1.0716480016708374;14.630000114440918;-8.960000038146973;-19.46000099182129
2073;0.0;0.0;0.0;0.4060159921646118;-0.31622397899627686;1.0794559717178345;0.0;0.0;0.0
2075;0.0;0.0;0.0;0.399183988571167;-0.24985599517822266;1.083359956741333;0.0;0.0;0.0
2077;0.0;0.0;0.0;0.3601439893245697;-0.22252799570560455;1.0882400274276733;0.0;0.0;0.0
2079;0.2769399881362915;-0.12883199751377106;0.9620919823646545;0.34062400460243225;-0.2576639950275421;1.099951982498169;14.0;-8.119999885559082;-17.71000099182129
2081;0.0;0.0;0.0;0.3601439893245697;-0.22252799570560455;1.107759952545166;0.0;0.0;0.0
2083;0.0;0.0;0.0;0.3211039900779724;-0.23423999547958374;1.099951982498169;0.0;0.0;0.0
2086;0.0;0.0;0.0;0.30158400535583496;-0.22252799570560455;1.1038559675216675;0.0;0.0;0.0
2088;0.21545200049877167;-0.08735200017690659;0.9718520045280457;0.3172000050544739;-0.21081599593162537;1.107759952545166;11.550000190734863;-11.199999809265137;-19.31999969482422
2090;0.0;0.0;0.0;0.3054879903793335;-0.19519999623298645;1.0882400274276733;0.0;0.0;0.0
2092;0.0;0.0;0.0;0.2781600058078766;-0.1756799966096878;1.1282559633255005;0.0;0.0;0.0
2094;0.0;0.0;0.0;0.30158400535583496;-0.17958399653434753;1.1126400232315063;0.0;0.0;0.0
2096;0.18422000110149384;-0.06295199692249298;0.9811239838600159;0.3172000050544739;-0.1756799966096878;1.1126400232315063;7.0;-14.630000114440918;-19.670000076293945
2099;0.0;0.0;0.0;0.2937760055065155;-0.16787199676036835;1.1214239597320557;0.0;0.0;0.0
2101;0.0;0.0;0.0;0.2664479911327362;-0.16787199676036835;1.1331360340118408;0.0;0.0;0.0
2103;0.0;0.0;0.0;0.2664479911327362;-0.16396799683570862;1.1136159896850586;0.0;0.0;0.0
2105;0.1681160032749176;-0.045871999114751816;0.9852719902992249;0.27425599098205566;-0.17958399653434753;1.1175199747085571;0.9100000262260437;-17.360000610351562;-17.920000076293945
2107;0.0;0.0;0.0;0.25863999128341675;-0.18348799645900726;1.0970239639282227;0.0;0.0;0.0
2109;0.0;0.0;0.0;0.26254400610923767;-0.17958399653434753;1.1175199747085571;0.0;0.0;0.0
2111;0.0;0.0;0.0;0.24302399158477783;-0.15225599706172943;1.0931199789047241;0.0;0.0;0.0
2113;0.13078400492668152;-0.04513999819755554;0.9723399877548218;0.2235039919614792;-0.2030079960823059;1.0970239639282227;-3.430000066757202;-18.690000534057617;-15.470000267028809
2115;0.0;0.0;0.0;0.21959999203681946;-0.16396799683570862;1.0931199789047241;0.0;0.0;0.0
2117;0.0;0.0;0.0;0.22740799188613892;-0.1600639969110489;1.1009279489517212;0.0;0.0;0.0
2120;0.0;0.0;0.0;0.2235039919614792;-0.1756799966096878;1.1087360382080078;0.0;0.0;0.0
2122;0.09589199721813202;-0.04270000010728836;0.9772199988365173;0.20788799226284027;-0.14054399728775024;1.1175199747085571;-5.880000114440918;-18.760000228881836;-13.579999923706055
2124;0.0;0.0;0.0;0.20788799226284027;-0.18348799645900726;1.1136159896850586;0.0;0.0;0.0
2126;0.0;0.0;0.0;0.2117919921875;-0.16787199676036835;1.1253279447555542;0.0;0.0;0.0
2128;0.0;0.0;0.0;0.20398399233818054;-0.17958399653434753;1.0931199789047241;0.0;0.0;0.0
2130;0.0697840005159378;-0.0500199981033802;0.97843998670578;0.1698240041732788;-0.19519999623298645;1.1009279489517212;-7.980000019073486;-18.34000015258789;-11.970000267028809
2133;0.0;0.0;0.0;0.17665599286556244;-0.19910399615764618;1.099951982498169;0.0;0.0;0.0
2135;0.0;0.0;0.0;0.18055999279022217;-0.21862399578094482;1.107759952545166;0.0;0.0;0.0
2137;0.0;0.0;0.0;0.1542080044746399;-0.19129599630832672;1.132159948348999;0.0;0.0;0.0
2139;0.03171999752521515;-0.05148399993777275;0.9803919792175293;0.1268799901008606;-0.19129599630832672;1.132159948348999;-7.980000019073486;-16.799999237060547;-8.890000343322754
2141;0.0;0.0;0.0;0.10735999792814255;-0.19129599630832672;1.1165440082550049;0.0;0.0;0.0
2143;0.0;0.0;0.0;0.09955199807882309;-0.17958399653434753;1.124351978302002;0.0;0.0;0.0
2145;0.0;0.0;0.0;0.0878399983048439;-0.19910399615764618;1.1165440082550049;0.0;0.0;0.0
2147;-0.020495999604463577;-0.057339999824762344;0.9911279678344727;0.08003199845552444;-0.18348799645900726;1.1204479932785034;-7.139999866485596;-15.470000267028809;-5.389999866485596
2150;0.0;0.0;0.0;0.05270399898290634;-0.20691199600696564;1.1126400232315063;0.0;0.0;0.0
2152;0.0;0.0;0.0;0.040991999208927155;-0.20691199600696564;1.1204479932785034;0.0;0.0;0.0
2154;0.0;0.0;0.0;0.05660799890756607;-0.19519999623298645;1.1282559633255005;0.0;0.0;0.0
2156;-0.06392800062894821;-0.07124799489974976;0.9955199956893921;0.029279999434947968;-0.20691199600696564;1.1282559633255005;-4.619999885559082;-14.140000343322754;-0.3499999940395355
2158;0.0;0.0;0.0;0.029279999434947968;-0.22252799570560455;1.1282559633255005;0.0;0.0;0.0
2160;0.0;0.0;0.0;0.013663999736309052;-0.19129599630832672;1.124351978302002;0.0;0.0;0.0
2162;0.0;0.0;0.0;0.0058559998869895935;-0.22643199563026428;1.1282559633255005;0.0;0.0;0.0
2164;-0.10199199616909027;-0.08198399841785431;0.9945439696311951;-0.0058559998869895935;-0.21081599593162537;1.1126400232315063;-1.5399999618530273;-12.460000038146973;5.599999904632568
2167;0.0;0.0;0.0;-0.009759999811649323;-0.21081599593162537;1.1282559633255005;0.0;0.0;0.0
2169;0.0;0.0;0.0;-0.0058559998869895935;-0.2030079960823059;1.1038559675216675;0.0;0.0;0.0
2171;0.0;0.0;0.0;-0.037087999284267426;-0.21081599593162537;1.140944004058838;0.0;0.0;0.0
2173;-0.14395999908447266;-0.08515600115060806;1.002351999282837;-0.0331839993596077;-0.22643199563026428;1.1448479890823364;0.8400000333786011;-10.149999618530273;10.220000267028809
2175;0.0;0.0;0.0;-0.0605119988322258;-0.23423999547958374;1.1604639291763306;0.0;0.0;0.0
2177;0.0;0.0;0.0;-0.08686399459838867;-0.22252799570560455;1.148751974105835;0.0;0.0;0.0
2179;0.0;0.0;0.0;-0.07612799853086472;-0.22643199563026428;1.165343999862671;0.0;0.0;0.0
2181;-0.1925159990787506;-0.09198799729347229;1.0213840007781982;-0.09467199444770813;-0.24595199525356293;1.148751974105835;2.0299999713897705;-7.909999847412109;13.440000534057617
2184;0.0;0.0;0.0;-0.11419199407100677;-0.23423999547958374;1.1819360256195068;0.0;0.0;0.0
2186;0.0;0.0;0.0;-0.1298079937696457;-0.2654719948768616;1.1614400148391724;0.0;0.0;0.0
2188;0.0;0.0;0.0;-0.1298079937696457;-0.22643199563026428;1.1819360256195068;0.0;0.0;0.0
2190;-0.24936799705028534;-0.10491999983787537;1.0455399751663208;-0.1727519929409027;-0.23423999547958374;1.1907199621200562;2.0999999046325684;-6.019999980926514;16.65999984741211
2192;0.0;0.0;0.0;-0.18836799263954163;-0.24985599517822266;1.2024319171905518;0.0;0.0;0.0
2194;0.0;0.0;0.0;-0.20398399233818054;-0.2693759799003601;1.2024319171905518;0.0;0.0;0.0
2196;0.0;0.0;0.0;-0.20398399233818054;-0.24595199525356293;1.2268320322036743;0.0;0.0;0.0
2198;-0.31622397899627686;-0.11321599781513214;1.0789679288864136;-0.2547360062599182;-0.24595199525356293;1.2307360172271729;1.0499999523162842;-6.159999847412109;19.389999389648438
2201;0.0;0.0;0.0;-0.23521599173545837;-0.23814399540424347;1.2512320280075073;0.0;0.0;0.0
2203;0.0;0.0;0.0;-0.24302399158477783;-0.2693759799003601;1.23854398727417;0.0;0.0;0.0
2205;0.0;0.0;0.0;-0.22740799188613892;-0.2810879945755005;1.2307360172271729;0.0;0.0;0.0
2207;-0.36795198917388916;-0.1320039927959442;1.0989760160446167;-0.24692799150943756;-0.2537599802017212;1.2307360172271729;-0.699999988079071;-8.609999656677246;21.979999542236328
2209;0.0;0.0;0.0;-0.27425599098205566;-0.29280000925064087;1.2512320280075073;0.0;0.0;0.0
2211;0.0;0.0;0.0;-0.25863999128341675;-0.29280000925064087;1.2473279237747192;0.0;0.0;0.0
2213;0.0;0.0;0.0;-0.26254400610923767;-0.30060797929763794;1.2395199537277222;0.0;0.0;0.0
2215;-0.38722798228263855;-0.16372399032115936;1.1053199768066406;-0.27035200595855713;-0.32793599367141724;1.2473279237747192;-2.309999942779541;-11.130000114440918;23.799999237060547
2218;0.0;0.0;0.0;-0.2664479911327362;-0.2967039942741394;1.2473279237747192;0.0;0.0;0.0
2220;0.0;0.0;0.0;-0.2898719906806946;-0.32793599367141724;1.2229279279708862;0.0;0.0;0.0
2222;0.0;0.0;0.0;-0.25863999128341675;-0.31622397899627686;1.2434239387512207;0.0;0.0;0.0
2224;-0.39601197838783264;-0.18885599076747894;1.1106879711151123;-0.29767999053001404;-0.3396480083465576;1.23854398727417;-4.900000095367432;-12.949999809265137;24.290000915527344
2226;0.0;0.0;0.0;-0.2664479911327362;-0.32793599367141724;1.2434239387512207;0.0;0.0;0.0
2228;0.0;0.0;0.0;-0.27035200595855713;-0.34355199337005615;1.2668479681015015;0.0;0.0;0.0
2230;0.0;0.0;0.0;-0.27035200595855713;-0.37088000774383545;1.2434239387512207;0.0;0.0;0.0
2232;-0.3972319960594177;-0.21325600147247314;1.1109319925308228;-0.2547360062599182;-0.3630719780921936;1.2590399980545044;-9.100000381469727;-14.5600004196167;22.75
2235;0.0;0.0;0.0;-0.26254400610923767;-0.4021120071411133;1.2307360172271729;0.0;0.0;0.0
2237;0.0;0.0;0.0;-0.2898719906806946;-0.38649600744247437;1.23854398727417;0.0;0.0;0.0
2239;0.0;0.0;0.0;-0.2547360062599182;-0.39430397748947144;1.2434239387512207;0.0;0.0;0.0
2241;-0.3886919915676117;-0.24912399053573608;1.1070280075073242;-0.2820639908313751;-0.39820799231529236;1.2434239387512207;-13.510000228881836;-15.329999923706055;19.600000381469727
2243;0.0;0.0;0.0;-0.26254400610923767;-0.4138239920139313;1.2473279237747192;0.0;0.0;0.0
2245;0.0;0.0;0.0;-0.26254400610923767;-0.43724799156188965;1.23854398727417;0.0;0.0;0.0
2247;0.0;0.0;0.0;-0.24302399158477783;-0.4333440065383911;1.23854398727417;0.0;0.0;0.0
2249;-0.387472003698349;-0.2845039963722229;1.1053199768066406;-0.27425599098205566;-0.42553597688674927;1.2307360172271729;-16.239999771118164;-14.90999984741211;15.260000228881836
2252;0.0;0.0;0.0;-0.2820639908313751;-0.42163199186325073;1.2336640357971191;0.0;0.0;0.0
2254;0.0;0.0;0.0;-0.26254400610923767;-0.46457600593566895;1.2375680208206177;0.0;0.0;0.0
2256;0.0;0.0;0.0;-0.28596800565719604;-0.44896000623703003;1.2092639207839966;0.0;0.0;0.0
2258;-0.3908880054950714;-0.3089039921760559;1.0948280096054077;-0.25863999128341675;-0.4684799909591675;1.197551965713501;-17.079999923706055;-14.069999694824219;9.800000190734863
2260;0.0;0.0;0.0;-0.25863999128341675;-0.4450559914112091;1.205359935760498;0.0;0.0;0.0
2262;0.0;0.0;0.0;-0.23131199181079865;-0.45286399126052856;1.189743995666504;0.0;0.0;0.0
2264;0.0;0.0;0.0;-0.2235039919614792;-0.44896000623703003;1.1936479806900024;0.0;0.0;0.0
2266;-0.35867998003959656;-0.32964399456977844;1.0706720352172852;-0.2000799924135208;-0.4567679762840271;1.165343999862671;-15.539999961853027;-12.109999656677246;3.430000066757202
2269;0.0;0.0;0.0;-0.20398399233818054;-0.4684799909591675;1.1663199663162231;0.0;0.0;0.0
2271;0.0;0.0;0.0;-0.22740799188613892;-0.472383975982666;1.1536319255828857;0.0;0.0;0.0
2273;0.0;0.0;0.0;-0.20398399233818054;-0.4567679762840271;1.189743995666504;0.0;0.0;0.0
2275;-0.32915598154067993;-0.3352559804916382;1.054811954498291;-0.1727519929409027;-0.460671991109848;1.1907199621200562;-10.569999694824219;-7.769999980926514;-2.799999952316284
2277;0.0;0.0;0.0;-0.19227199256420135;-0.4684799909591675;1.189743995666504;0.0;0.0;0.0
2279;0.0;0.0;0.0;-0.22740799188613892;-0.4177280068397522;1.1663199663162231;0.0;0.0;0.0
2281;0.0;0.0;0.0;-0.19617599248886108;-0.47628799080848694;1.1741279363632202;0.0;0.0;0.0
2283;-0.3337920010089874;-0.32085999846458435;1.0457839965820312;-0.2391199916601181;-0.45286399126052856;1.1614400148391724;-3.2200000286102295;-2.380000114440918;-7.980000019073486
2286;0.0;0.0;0.0;-0.23521599173545837;-0.4138239920139313;1.1702239513397217;0.0;0.0;0.0
2288;0.0;0.0;0.0;-0.23131199181079865;-0.4177280068397522;1.1663199663162231;0.0;0.0;0.0
2290;0.0;0.0;0.0;-0.2391199916601181;-0.40991997718811035;1.1536319255828857;0.0;0.0;0.0
2292;-0.342087984085083;-0.2908479869365692;1.0377320051193237;-0.22740799188613892;-0.4138239920139313;1.1858400106430054;4.96999979019165;2.0999999046325684;-12.039999961853027
2294;0.0;0.0;0.0;-0.2000799924135208;-0.39430397748947144;1.1497279405593872;0.0;0.0;0.0
2296;0.0;0.0;0.0;-0.20788799226284027;-0.374783992767334;1.1663199663162231;0.0;0.0;0.0
2298;0.0;0.0;0.0;-0.19617599248886108;-0.3669759929180145;1.1575360298156738;0.0;0.0;0.0
2300;-0.3411119878292084;-0.24107199907302856;1.0272400379180908;-0.2117919921875;-0.3396480083465576;1.1575360298156738;12.739999771118164;5.670000076293945;-14.84000015258789
2303;0.0;0.0;0.0;-0.2235039919614792;-0.32793599367141724;1.1497279405593872;0.0;0.0;0.0
2305;0.0;0.0;0.0;-0.20788799226284027;-0.32793599367141724;1.1614400148391724;0.0;0.0;0.0
2307;0.0;0.0;0.0;-0.18836799263954163;-0.284991979598999;1.1614400148391724;0.0;0.0;0.0
2309;-0.33427998423576355;-0.1849519908428192;1.016260027885437;-0.19617599248886108;-0.30060797929763794;1.1497279405593872;18.479999542236328;9.029999732971191;-16.729999542236328
2311;0.0;0.0;0.0;-0.1844639927148819;-0.284991979598999;1.1292319297790527;0.0;0.0;0.0
2313;0.0;0.0;0.0;-0.1844639927148819;-0.2420479953289032;1.1663199663162231;0.0;0.0;0.0
2315;0.0;0.0;0.0;-0.16494399309158325;-0.2537599802017212;1.1292319297790527;0.0;0.0;0.0
2317;-0.3003639876842499;-0.1227319985628128;1.0125999450683594;-0.1454239934682846;-0.230335995554924;1.1614400148391724;20.510000228881836;11.899999618530273;-16.450000762939453
2320;0.0;0.0;0.0;-0.16494399309158325;-0.21862399578094482;1.1663199663162231;0.0;0.0;0.0
2322;0.0;0.0;0.0;-0.13761599361896515;-0.2147199958562851;1.1536319255828857;0.0;0.0;0.0
2324;0.0;0.0;0.0;-0.16103999316692352;-0.187391996383667;1.1292319297790527;0.0;0.0;0.0
2326;-0.27889198064804077;-0.06734399497509003;1.0182119607925415;-0.14932799339294434;-0.187391996383667;1.1419199705123901;18.690000534057617;12.949999809265137;-12.739999771118164
2328;0.0;0.0;0.0;-0.16494399309158325;-0.16787199676036835;1.1419199705123901;0.0;0.0;0.0
2330;0.0;0.0;0.0;-0.13761599361896515;-0.17177599668502808;1.1575360298156738;0.0;0.0;0.0
2332;0.0;0.0;0.0;-0.11028799414634705;-0.1600639969110489;1.1458239555358887;0.0;0.0;0.0
2334;-0.2610799968242645;-0.034648001194000244;1.0147960186004639;-0.14151999354362488;-0.1600639969110489;1.1380159854888916;13.930000305175781;12.739999771118164;-10.289999961853027
2337;0.0;0.0;0.0;-0.12590399384498596;-0.16787199676036835;1.1419199705123901;0.0;0.0;0.0
2339;0.0;0.0;0.0;-0.11419199407100677;-0.16396799683570862;1.1458239555358887;0.0;0.0;0.0
2341;0.0;0.0;0.0;-0.08295999467372894;-0.19129599630832672;1.1253279447555542;0.0;0.0;0.0
2343;-0.23204399645328522;-0.03611199930310249;1.0104039907455444;-0.08686399459838867;-0.17958399653434753;1.1087360382080078;7.980000019073486;12.25;-9.100000381469727
2345;0.0;0.0;0.0;-0.09955199807882309;-0.15225599706172943;1.1292319297790527;0.0;0.0;0.0
2347;0.0;0.0;0.0;-0.06441599875688553;-0.19519999623298645;1.1253279447555542;0.0;0.0;0.0
2349;0.0;0.0;0.0;-0.02147199958562851;-0.16396799683570862;1.1331360340118408;0.0;0.0;0.0
2351;-0.19007599353790283;-0.049775999039411545;0.9972279667854309;-0.05660799890756607;-0.1756799966096878;1.1292319297790527;3.0799999237060547;12.319999694824219;-8.539999961853027
2354;0.0;0.0;0.0;-0.037087999284267426;-0.2147199958562851;1.1175199747085571;0.0;0.0;0.0
2356;0.0;0.0;0.0;-0.013663999736309052;-0.19129599630832672;1.1331360340118408;0.0;0.0;0.0
2358;0.0;0.0;0.0;-0.0331839993596077;-0.19519999623298645;1.1370400190353394;0.0;0.0;0.0
