Timestamp(ms);LG-Accel x(g);LG-Accel y(g);LG-Accel z(g);HG-Accel x(g);HG-Accel y(g);HG-Accel z(g);Gyro x(dps);Gyro y(dps);Gyro z(dps)
66;0.0;0.0;0.0;-0.2967039942741394;-0.32207998633384705;1.1009279489517212;0.0;0.0;0.0
68;0.0;0.0;0.0;-0.2693759799003601;-0.3181760013103485;1.0970239639282227;0.0;0.0;0.0
70;0.0;0.0;0.0;-0.27327999472618103;-0.30646398663520813;1.0931199789047241;0.0;0.0;0.0
73;0.0;0.0;0.0;-0.2537599802017212;-0.2752319872379303;1.0892159938812256;0.0;0.0;0.0
75;0.0;0.0;0.0;-0.22643199563026428;-0.2791360020637512;1.0648159980773926;0.0;0.0;0.0
77;0.0;0.0;0.0;-0.21569599211215973;-0.2810879945755005;1.073599934577942;0.0;0.0;0.0
79;0.0;0.0;0.0;-0.1844639927148819;-0.27327999472618103;1.0579839944839478;0.0;0.0;0.0
81;0.0;0.0;0.0;-0.15030398964881897;-0.2654719948768616;1.0491999387741089;0.0;0.0;0.0
83;-0.3211039900779724;-0.1546960026025772;0.9381799697875977;-0.16494399309158325;-0.2693759799003601;1.0540800094604492;0.0;0.0;0.0
85;0.0;0.0;0.0;-0.14640000462532043;-0.2967039942741394;1.0540800094604492;0.0;0.0;0.0
87;0.0;0.0;0.0;-0.13468798995018005;-0.26156800985336304;1.0452959537506104;0.0;0.0;0.0
90;0.0;0.0;0.0;-0.14932799339294434;-0.2576639950275421;1.0452959537506104;0.0;0.0;0.0
92;-0.2654719948768616;-0.1315159946680069;0.9276880025863647;-0.11907199770212173;-0.2537599802017212;1.0335839986801147;0.0;0.0;0.0
94;0.0;0.0;0.0;-0.08003199845552444;-0.230335995554924;1.0540800094604492;0.0;0.0;0.0
96;0.0;0.0;0.0;-0.09174399822950363;-0.26156800985336304;1.0823839902877808;0.0;0.0;0.0
98;0.0;0.0;0.0;-0.044895999133586884;-0.26156800985336304;1.073599934577942;0.0;0.0;0.0
100;-0.19739599525928497;-0.11492399871349335;0.9386679530143738;-0.040991999208927155;-0.23814399540424347;1.0579839944839478;0.0;0.0;0.0
102;0.0;0.0;0.0;-0.009759999811649323;-0.2693759799003601;1.0940959453582764;0.0;0.0;0.0
104;0.0;0.0;0.0;-0.0019519999623298645;-0.2537599802017212;1.0579839944839478;0.0;0.0;0.0
107;0.0;0.0;0.0;0.013663999736309052;-0.2537599802017212;1.0775039196014404;0.0;0.0;0.0
109;-0.13053999841213226;-0.11541199684143066;0.9486719965934753;0.013663999736309052;-0.2576639950275421;1.0618879795074463;0.0;0.0;0.0
111;0.0;0.0;0.0;0.0019519999623298645;-0.2576639950275421;1.073599934577942;0.0;0.0;0.0
113;0.0;0.0;0.0;0.0019519999623298645;-0.27718400955200195;1.0540800094604492;0.0;0.0;0.0
115;0.0;0.0;0.0;0.02537599951028824;-0.284991979598999;1.0579839944839478;0.0;0.0;0.0
117;-0.11272799968719482;-0.13541999459266663;0.9442799687385559;0.0331839993596077;-0.2654719948768616;1.0531039237976074;0.0;0.0;0.0
119;0.0;0.0;0.0;0.0019519999623298645;-0.28889599442481995;1.0657919645309448;0.0;0.0;0.0
121;0.0;0.0;0.0;0.037087999284267426;-0.2967039942741394;1.0208959579467773;0.0;0.0;0.0
124;0.0;0.0;0.0;0.037087999284267426;-0.33183997869491577;1.0335839986801147;0.0;0.0;0.0
126;-0.09662400186061859;-0.15981999039649963;0.9235399961471558;0.044895999133586884;-0.29280000925064087;1.0452959537506104;20.619375228881836;-4.252500057220459;-19.29374885559082
128;0.0;0.0;0.0;0.040991999208927155;-0.31622397899627686;1.0374879837036133;0.0;0.0;0.0
130;0.0;0.0;0.0;0.040991999208927155;-0.33183997869491577;1.0208959579467773;0.0;0.0;0.0
132;0.0;0.0;0.0;0.06831999868154526;-0.3474559783935547;1.0374879837036133;0.0;0.0;0.0
134;-0.0697840005159378;-0.177387997508049;0.9106079936027527;0.06831999868154526;-0.30451199412345886;1.0491999387741089;22.15937614440918;-1.5924999713897705;-22.583749771118164
137;0.0;0.0;0.0;0.06831999868154526;-0.29280000925064087;1.0335839986801147;0.0;0.0;0.0
138;0.0;0.0;0.0;0.08003199845552444;-0.26156800985336304;1.0491999387741089;0.0;0.0;0.0
141;0.0;0.0;0.0;0.09564799815416336;-0.30060797929763794;1.0413919687271118;0.0;0.0;0.0
143;-0.039772000163793564;-0.1466439962387085;0.912559986114502;0.09467199444770813;-0.2967039942741394;1.0169919729232788;23.9793758392334;0.017500000074505806;-24.613750457763672
145;0.0;0.0;0.0;0.1298079937696457;-0.2576639950275421;1.0208959579467773;0.0;0.0;0.0
147;0.0;0.0;0.0;0.1180959939956665;-0.23814399540424347;1.0491999387741089;0.0;0.0;0.0
149;0.0;0.0;0.0;0.1180959939956665;-0.21081599593162537;1.0335839986801147;0.0;0.0;0.0
151;-0.0012199999764561653;-0.1029679998755455;0.9135359525680542;0.1454239934682846;-0.187391996383667;1.0452959537506104;24.889375686645508;0.5774999856948853;-27.063749313354492
154;0.0;0.0;0.0;0.10735999792814255;-0.18348799645900726;1.0452959537506104;0.0;0.0;0.0
156;0.0;0.0;0.0;0.1454239934682846;-0.1600639969110489;1.0696959495544434;0.0;0.0;0.0
158;0.0;0.0;0.0;0.13371199369430542;-0.1483519971370697;1.0618879795074463;0.0;0.0;0.0
160;0.01903199963271618;-0.03245199844241142;0.9257360100746155;0.1844639927148819;-0.15225599706172943;1.0130879878997803;21.459375381469727;-0.4025000035762787;-31.333749771118164
162;0.0;0.0;0.0;0.20398399233818054;-0.1756799966096878;1.0130879878997803;0.0;0.0;0.0
164;0.0;0.0;0.0;0.21569599211215973;-0.14054399728775024;1.0130879878997803;0.0;0.0;0.0
166;0.0;0.0;0.0;0.24302399158477783;-0.14444799721240997;1.0208959579467773;0.0;0.0;0.0
168;0.09052399545907974;-0.019519999623298645;0.8896239995956421;0.2547360062599182;-0.12492799758911133;1.0247999429702759;17.609376907348633;-1.1725000143051147;-37.77375030517578
171;0.0;0.0;0.0;0.23521599173545837;-0.1600639969110489;1.0501760244369507;0.0;0.0;0.0
173;0.0;0.0;0.0;0.29767999053001404;-0.17958399653434753;1.0130879878997803;0.0;0.0;0.0
175;0.0;0.0;0.0;0.2781600058078766;-0.15225599706172943;1.0257760286331177;0.0;0.0;0.0
177;0.14591199159622192;-0.02025200054049492;0.8910880088806152;0.2820639908313751;-0.12883199751377106;0.9964959621429443;15.159375190734863;-2.2925000190734863;-40.0837516784668
179;0.0;0.0;0.0;0.27035200595855713;-0.1327359974384308;0.9886879920959473;0.0;0.0;0.0
181;0.0;0.0;0.0;0.2937760055065155;-0.14444799721240997;1.0052800178527832;0.0;0.0;0.0
183;0.0;0.0;0.0;0.30158400535583496;-0.12492799758911133;0.9925919771194458;0.0;0.0;0.0
185;0.18226799368858337;-0.004391999915242195;0.8657119870185852;0.34062400460243225;-0.13663999736309052;0.9847840070724487;15.2993745803833;-2.992500066757202;-40.92375183105469
188;0.0;0.0;0.0;0.3640480041503906;-0.08588799834251404;0.9681919813156128;0.0;0.0;0.0
190;0.0;0.0;0.0;0.38259199261665344;-0.10540799796581268;0.9808799624443054;0.0;0.0;0.0
192;0.0;0.0;0.0;0.38649600744247437;-0.08588799834251404;0.9886879920959473;0.0;0.0;0.0
194;0.2520520091056824;0.03879600018262863;0.8630279898643494;0.4333440065383911;-0.08979199826717377;1.0003999471664429;15.509374618530273;-2.2225000858306885;-40.64375305175781
196;0.0;0.0;0.0;0.42163199186325073;-0.031231999397277832;1.0052800178527832;0.0;0.0;0.0
198;0.0;0.0;0.0;0.46457600593566895;-0.03903999924659729;1.0169919729232788;0.0;0.0;0.0
200;0.0;0.0;0.0;0.46457600593566895;-0.023423999547958374;0.9964959621429443;0.0;0.0;0.0
202;0.32964399456977844;0.10540799796581268;0.8866959810256958;0.48799997568130493;0.03513599932193756;1.0296800136566162;12.709375381469727;-0.26249998807907104;-37.00374984741211
205;0.0;0.0;0.0;0.4958080053329468;0.03903999924659729;1.0579839944839478;0.0;0.0;0.0
207;0.0;0.0;0.0;0.5192319750785828;0.027327999472618103;1.0208959579467773;0.0;0.0;0.0
209;0.0;0.0;0.0;0.5192319750785828;0.0663679987192154;1.0052800178527832;0.0;0.0;0.0
211;0.38722798228263855;0.16201600432395935;0.912559986114502;0.5426560044288635;0.031231999397277832;1.0296800136566162;7.459374904632568;0.9975000023841858;-27.763750076293945
213;0.0;0.0;0.0;0.5348479747772217;0.05075199902057648;1.0247999429702759;0.0;0.0;0.0
215;0.0;0.0;0.0;0.5465599894523621;0.08198399841785431;1.0335839986801147;0.0;0.0;0.0
217;0.0;0.0;0.0;0.5348479747772217;0.062463998794555664;1.0130879878997803;0.0;0.0;0.0
219;0.4260239899158478;0.20032399892807007;0.8998720049858093;0.5816959738731384;0.11321599781513214;1.0247999429702759;1.3693749904632568;1.6975001096725464;-18.803749084472656
222;0.0;0.0;0.0;0.611952006816864;0.062463998794555664;0.9925919771194458;0.0;0.0;0.0
224;0.0;0.0;0.0;0.6314719915390015;0.0663679987192154;1.0208959579467773;0.0;0.0;0.0
226;0.0;0.0;0.0;0.6353759765625;0.019519999623298645;1.0052800178527832;0.0;0.0;0.0
228;0.5021519660949707;0.18836799263954163;0.8879159688949585;0.6236639618873596;0.011711999773979187;1.0169919729232788;-3.390625;1.977500081062317;-9.073750495910645
230;0.0;0.0;0.0;0.6353759765625;0.0;1.0130879878997803;0.0;0.0;0.0
232;0.0;0.0;0.0;0.5738880038261414;0.011711999773979187;1.0052800178527832;0.0;0.0;0.0
234;0.0;0.0;0.0;0.6744160056114197;0.04294399917125702;1.0247999429702759;0.0;0.0;0.0
236;0.506056010723114;0.15030398964881897;0.8932839632034302;0.6783199906349182;0.0;0.9886879920959473;-5.770625114440918;2.4674999713897705;-1.3737499713897705
239;0.0;0.0;0.0;0.7563999891281128;-0.058559998869895935;0.9769759774208069;0.0;0.0;0.0
241;0.0;0.0;0.0;0.7954399585723877;-0.031231999397277832;0.9925919771194458;0.0;0.0;0.0
243;0.0;0.0;0.0;0.7368800044059753;0.003903999924659729;1.0130879878997803;0.0;0.0;0.0
245;0.6209799647331238;0.11321599781513214;0.8703479766845703;0.7446879744529724;-0.019519999623298645;1.0247999429702759;-7.660624980926514;4.847499847412109;3.106250047683716
247;0.0;0.0;0.0;0.7915359735488892;-0.027327999472618103;1.0335839986801147;0.0;0.0;0.0
249;0.0;0.0;0.0;0.7876319885253906;-0.07027199864387512;1.0413919687271118;0.0;0.0;0.0
251;0.0;0.0;0.0;0.7837280035018921;-0.07417599856853485;1.0257760286331177;0.0;0.0;0.0
253;0.6602640151977539;0.07368800044059753;0.9108519554138184;0.7837280035018921;-0.08198399841785431;1.0335839986801147;-8.570625305175781;7.507500171661377;7.93625020980835
256;0.0;0.0;0.0;0.7798239588737488;-0.0936959981918335;1.0657919645309448;0.0;0.0;0.0
258;0.0;0.0;0.0;0.748591959476471;-0.07807999849319458;1.0657919645309448;0.0;0.0;0.0
260;0.0;0.0;0.0;0.7954399585723877;-0.10540799796581268;1.0657919645309448;0.0;0.0;0.0
262;0.6573359966278076;0.0424560010433197;0.9372040033340454;0.7681120038032532;-0.11321599781513214;1.0579839944839478;-8.500624656677246;8.207499504089355;10.31624984741211
264;0.0;0.0;0.0;0.7954399585723877;-0.09759999811649323;1.0823839902877808;0.0;0.0;0.0
266;0.0;0.0;0.0;0.8344799876213074;-0.10540799796581268;1.073599934577942;0.0;0.0;0.0
268;0.0;0.0;0.0;0.8383839726448059;-0.10540799796581268;1.0823839902877808;0.0;0.0;0.0
270;0.6907640099525452;0.022204000502824783;0.954039990901947;0.8110559582710266;-0.10931199789047241;1.1067839860916138;-8.360625267028809;7.4375;10.176249504089355
273;0.0;0.0;0.0;0.822767972946167;-0.12883199751377106;1.101904034614563;0.0;0.0;0.0
275;0.0;0.0;0.0;0.822767972946167;-0.0936959981918335;1.122399926185608;0.0;0.0;0.0
277;0.0;0.0;0.0;0.7837280035018921;-0.10931199789047241;1.126304030418396;0.0;0.0;0.0
279;0.69759601354599;0.01878799870610237;0.9845399856567383;0.8188639879226685;-0.10540799796581268;1.1350879669189453;-9.060625076293945;5.547500133514404;8.426249504089355
281;0.0;0.0;0.0;0.8383839726448059;-0.08588799834251404;1.122399926185608;0.0;0.0;0.0
283;0.0;0.0;0.0;0.8344799876213074;-0.10931199789047241;1.0940959453582764;0.0;0.0;0.0
285;0.0;0.0;0.0;0.8500959873199463;-0.1210239976644516;1.126304030418396;0.0;0.0;0.0
287;0.7241919636726379;0.02147199958562851;0.98990797996521;0.8735199570655823;-0.09759999811649323;1.1145919561386108;-11.650625228881836;1.9075000286102295;5.696249961853027
290;0.0;0.0;0.0;0.9086560010910034;-0.09759999811649323;1.1184959411621094;0.0;0.0;0.0
292;0.0;0.0;0.0;0.896943986415863;-0.10931199789047241;1.101904034614563;0.0;0.0;0.0
294;0.0;0.0;0.0;0.9164639711380005;-0.1210239976644516;1.0862879753112793;0.0;0.0;0.0
296;0.7939760088920593;0.02391199953854084;0.9755119681358337;0.9740479588508606;-0.11711999773979187;1.0862879753112793;-14.100625038146973;-0.12250000238418579;5.066249847412109
298;0.0;0.0;0.0;0.9701439738273621;-0.0936959981918335;1.1067839860916138;0.0;0.0;0.0
300;0.0;0.0;0.0;0.9701439738273621;-0.10931199789047241;1.097999930381775;0.0;0.0;0.0
302;0.0;0.0;0.0;0.9545279741287231;-0.12883199751377106;1.073599934577942;0.0;0.0;0.0
304;0.8454599976539612;0.014639999717473984;0.9677039980888367;0.985759973526001;-0.11711999773979187;1.0901919603347778;-14.310625076293945;-0.26249998807907104;7.866250038146973
307;0.0;0.0;0.0;0.9740479588508606;-0.14444799721240997;1.0862879753112793;0.0;0.0;0.0
309;0.0;0.0;0.0;0.9701439738273621;-0.16787199676036835;1.1028800010681152;0.0;0.0;0.0
311;0.0;0.0;0.0;0.9740479588508606;-0.18348799645900726;1.0901919603347778;0.0;0.0;0.0
313;0.8535119891166687;-0.022935999557375908;0.9750239849090576;0.9818559885025024;-0.15615999698638916;1.0940959453582764;-12.7006254196167;1.5575000047683716;12.136249542236328
315;0.0;0.0;0.0;0.9740479588508606;-0.18348799645900726;1.1106879711151123;0.0;0.0;0.0
317;0.0;0.0;0.0;0.9545279741287231;-0.20691199600696564;1.1184959411621094;0.0;0.0;0.0
319;0.0;0.0;0.0;0.962336003780365;-0.230335995554924;1.1428959369659424;0.0;0.0;0.0
321;0.8339920043945312;-0.0773480013012886;0.9982039928436279;0.9545279741287231;-0.23423999547958374;1.1516799926757812;-10.180624961853027;3.9375;15.216249465942383
324;0.0;0.0;0.0;0.9428159594535828;-0.24985599517822266;1.1555839776992798;0.0;0.0;0.0
326;0.0;0.0;0.0;0.9047519564628601;-0.26156800985336304;1.1516799926757812;0.0;0.0;0.0
328;0.0;0.0;0.0;0.9115839600563049;-0.284991979598999;1.1594879627227783;0.0;0.0;0.0
330;0.799344003200531;-0.1390800029039383;1.0228480100631714;0.912559986114502;-0.3084160089492798;1.1633919477462769;-7.380625247955322;6.037499904632568;16.056249618530273
332;0.0;0.0;0.0;0.896943986415863;-0.3240320086479187;1.1838879585266113;0.0;0.0;0.0
334;0.0;0.0;0.0;0.8891359567642212;-0.33183997869491577;1.1712000370025635;0.0;0.0;0.0
336;0.0;0.0;0.0;0.8696159720420837;-0.3474559783935547;1.1877919435501099;0.0;0.0;0.0
338;0.7595719695091248;-0.18934398889541626;1.0452959537506104;0.8579039573669434;-0.33183997869491577;1.1760799884796143;-4.440625190734863;7.997499942779541;14.936249732971191
341;0.0;0.0;0.0;0.822767972946167;-0.3474559783935547;1.1672959327697754;0.0;0.0;0.0
343;0.0;0.0;0.0;0.822767972946167;-0.3474559783935547;1.1916959285736084;0.0;0.0;0.0
345;0.0;0.0;0.0;0.8344799876213074;-0.38649600744247437;1.2248799800872803;0.0;0.0;0.0
347;0.7112599611282349;-0.2222839891910553;1.0777479410171509;0.7954399585723877;-0.35916799306869507;1.2043839693069458;-1.7806251049041748;9.537500381469727;12.90625
349;0.0;0.0;0.0;0.7876319885253906;-0.35916799306869507;1.2531839609146118;0.0;0.0;0.0
351;0.0;0.0;0.0;0.7798239588737488;-0.3669759929180145;1.2326879501342773;0.0;0.0;0.0
353;0.0;0.0;0.0;0.748591959476471;-0.3786879777908325;1.2609919309616089;0.0;0.0;0.0
355;0.6602640151977539;-0.2391199916601181;1.1206920146942139;0.7603039741516113;-0.374783992767334;1.2609919309616089;-0.4506250023841858;9.467499732971191;10.876249313354492
358;0.0;0.0;0.0;0.7134559750556946;-0.3903999924659729;1.2697759866714478;0.0;0.0;0.0
360;0.0;0.0;0.0;0.7017439603805542;-0.38259199261665344;1.28929603099823;0.0;0.0;0.0
362;0.0;0.0;0.0;0.709551990032196;-0.4060159921646118;1.2648959159851074;0.0;0.0;0.0
364;0.6043879985809326;-0.25986000895500183;1.154852032661438;0.709551990032196;-0.39820799231529236;1.2775839567184448;-0.7306249737739563;7.017499923706055;8.706249237060547
366;0.0;0.0;0.0;0.6734399795532227;-0.4411519765853882;1.278559923171997;0.0;0.0;0.0
368;0.0;0.0;0.0;0.6812480092048645;-0.4138239920139313;1.2941759824752808;0.0;0.0;0.0
370;0.0;0.0;0.0;0.6627039909362793;-0.39430397748947144;1.2902719974517822;0.0;0.0;0.0
372;0.5653479695320129;-0.2793799936771393;1.1616840362548828;0.6812480092048645;-0.4060159921646118;1.2824640274047852;-1.92062509059906;2.9574999809265137;6.046249866485596
375;0.0;0.0;0.0;0.6627039909362793;-0.4177280068397522;1.30295991897583;0.0;0.0;0.0
377;0.0;0.0;0.0;0.6548959612846375;-0.44896000623703003;1.2941759824752808;0.0;0.0;0.0
379;0.0;0.0;0.0;0.6080479621887207;-0.4450559914112091;1.2736799716949463;0.0;0.0;0.0
381;0.5343599915504456;-0.29816800355911255;1.1536319255828857;0.6236639618873596;-0.45286399126052856;1.2453759908676147;-2.0606250762939453;-1.8025000095367432;3.106250047683716
383;0.0;0.0;0.0;0.6236639618873596;-0.43724799156188965;1.2775839567184448;0.0;0.0;0.0
385;0.0;0.0;0.0;0.6236639618873596;-0.43724799156188965;1.2531839609146118;0.0;0.0;0.0
387;0.0;0.0;0.0;0.6041439771652222;-0.4450559914112091;1.2453759908676147;0.0;0.0;0.0
389;0.4840959906578064;-0.3201279938220978;1.1294759511947632;0.5543680191040039;-0.46457600593566895;1.2287839651107788;-1.2906250953674316;-6.492500305175781;-1.3737499713897705
392;0.0;0.0;0.0;0.5856000185012817;-0.4684799909591675;1.2209759950637817;0.0;0.0;0.0
394;0.0;0.0;0.0;0.569983959197998;-0.48799997568130493;1.2082879543304443;0.0;0.0;0.0
396;0.0;0.0;0.0;0.5582720041275024;-0.4684799909591675;1.1965759992599487;0.0;0.0;0.0
398;0.4340759813785553;-0.3337920010089874;1.0918999910354614;0.5426560044288635;-0.460671991109848;1.2082879543304443;0.5993750095367432;-9.922499656677246;-8.373750686645508
400;0.0;0.0;0.0;0.5348479747772217;-0.4684799909591675;1.1926720142364502;0.0;0.0;0.0
402;0.0;0.0;0.0;0.5153279900550842;-0.460671991109848;1.2004799842834473;0.0;0.0;0.0
404;0.0;0.0;0.0;0.48019200563430786;-0.4684799909591675;1.1721760034561157;0.0;0.0;0.0
406;0.38551998138427734;-0.31500399112701416;1.0606679916381836;0.4450559914112091;-0.43724799156188965;1.1799839735031128;2.979374885559082;-11.672499656677246;-16.073749542236328
409;0.0;0.0;0.0;0.45286399126052856;-0.4177280068397522;1.1760799884796143;0.0;0.0;0.0
411;0.0;0.0;0.0;0.47628799080848694;-0.4021120071411133;1.1555839776992798;0.0;0.0;0.0
413;0.0;0.0;0.0;0.4567679762840271;-0.4021120071411133;1.1428959369659424;0.0;0.0;0.0
415;0.33671998977661133;-0.2803559899330139;1.0294359922409058;0.43724799156188965;-0.38649600744247437;1.1555839776992798;4.309374809265137;-12.792500495910645;-24.613750457763672
417;0.0;0.0;0.0;0.4177280068397522;-0.3903999924659729;1.1350879669189453;0.0;0.0;0.0
419;0.0;0.0;0.0;0.4060159921646118;-0.4021120071411133;1.1272799968719482;0.0;0.0;0.0
421;0.0;0.0;0.0;0.4060159921646118;-0.38649600744247437;1.1028800010681152;0.0;0.0;0.0
423;0.28669998049736023;-0.24912399053573608;0.9999119639396667;0.38259199261665344;-0.3630719780921936;1.122399926185608;5.289374828338623;-14.052499771118164;-33.01375198364258
426;0.0;0.0;0.0;0.35526400804519653;-0.3474559783935547;1.0901919603347778;0.0;0.0;0.0
428;0.0;0.0;0.0;0.374783992767334;-0.3240320086479187;1.0823839902877808;0.0;0.0;0.0
430;0.0;0.0;0.0;0.4021120071411133;-0.3123199939727783;1.1067839860916138;0.0;0.0;0.0
432;0.2693759799003601;-0.1978839933872223;0.9642879962921143;0.4138239920139313;-0.30451199412345886;1.0784800052642822;6.129374980926514;-14.052499771118164;-40.153751373291016
434;0.0;0.0;0.0;0.4177280068397522;-0.3084160089492798;1.073599934577942;0.0;0.0;0.0
436;0.0;0.0;0.0;0.3669759929180145;-0.28889599442481995;1.0901919603347778;0.0;0.0;0.0
438;0.0;0.0;0.0;0.3328160047531128;-0.2420479953289032;1.0862879753112793;0.0;0.0;0.0
440;0.2613239884376526;-0.140299990773201;0.9589200019836426;0.33671998977661133;-0.2030079960823059;1.097999930381775;6.619375228881836;-13.352499961853027;-39.10375213623047
443;0.0;0.0;0.0;0.3601439893245697;-0.2030079960823059;1.0823839902877808;0.0;0.0;0.0
445;0.0;0.0;0.0;0.374783992767334;-0.21081599593162537;1.1067839860916138;0.0;0.0;0.0
447;0.0;0.0;0.0;0.3786879777908325;-0.230335995554924;1.0657919645309448;0.0;0.0;0.0
449;0.24448800086975098;-0.08051999658346176;0.9486719965934753;0.39820799231529236;-0.2537599802017212;1.0374879837036133;6.199375152587891;-14.682499885559082;-35.813751220703125
451;0.0;0.0;0.0;0.37088000774383545;-0.14444799721240997;1.0823839902877808;0.0;0.0;0.0
453;0.0;0.0;0.0;0.2781600058078766;-0.1600639969110489;1.0775039196014404;0.0;0.0;0.0
455;0.0;0.0;0.0;0.2898719906806946;-0.19129599630832672;1.0247999429702759;0.0;0.0;0.0
457;0.19568799436092377;-0.03269600123167038;0.9389119744300842;0.31329599022865295;-0.12883199751377106;1.0452959537506104;5.849374771118164;-14.682499885559082;-27.063749313354492
460;0.0;0.0;0.0;0.2937760055065155;-0.1327359974384308;1.0374879837036133;0.0;0.0;0.0
462;0.0;0.0;0.0;0.26254400610923767;-0.13663999736309052;1.0374879837036133;0.0;0.0;0.0
464;0.0;0.0;0.0;0.27035200595855713;-0.12492799758911133;1.0335839986801147;0.0;0.0;0.0
466;0.14469200372695923;-0.01195599976927042;0.9040200114250183;0.2391199916601181;-0.1600639969110489;1.0169919729232788;3.1893749237060547;-14.192500114440918;-21.18375015258789
468;0.0;0.0;0.0;0.2000799924135208;-0.14444799721240997;1.0091840028762817;0.0;0.0;0.0
470;0.0;0.0;0.0;0.21959999203681946;-0.13663999736309052;1.0003999471664429;0.0;0.0;0.0
472;0.0;0.0;0.0;0.22740799188613892;-0.11321599781513214;0.9847840070724487;0.0;0.0;0.0
474;0.1029679998755455;-0.004391999915242195;0.8813279867172241;0.21959999203681946;-0.14444799721240997;0.9964959621429443;2.349375009536743;-13.002500534057617;-17.053749084472656
477;0.0;0.0;0.0;0.18836799263954163;-0.10150399804115295;1.0052800178527832;0.0;0.0;0.0
479;0.0;0.0;0.0;0.18055999279022217;-0.12883199751377106;1.0169919729232788;0.0;0.0;0.0
481;0.0;0.0;0.0;0.16103999316692352;-0.1483519971370697;1.0130879878997803;0.0;0.0;0.0
483;0.06124399974942207;-0.0056119998916983604;0.8874279856681824;0.16103999316692352;-0.15615999698638916;1.0169919729232788;0.5993750095367432;-11.602499961853027;-14.18375015258789
485;0.0;0.0;0.0;0.17177599668502808;-0.16787199676036835;1.0062559843063354;0.0;0.0;0.0
487;0.0;0.0;0.0;0.17177599668502808;-0.13663999736309052;0.9935680031776428;0.0;0.0;0.0
489;0.0;0.0;0.0;0.15225599706172943;-0.15225599706172943;0.9779520034790039;0.0;0.0;0.0
491;0.03879600018262863;-0.021959999576210976;0.8762039542198181;0.15225599706172943;-0.17177599668502808;0.9730719923973083;-2.130625009536743;-9.992500305175781;-10.68375015258789
494;0.0;0.0;0.0;0.1327359974384308;-0.16396799683570862;1.0013760328292847;0.0;0.0;0.0
496;0.0;0.0;0.0;0.1327359974384308;-0.18348799645900726;0.9691680073738098;0.0;0.0;0.0
498;0.0;0.0;0.0;0.09467199444770813;-0.18348799645900726;1.010159969329834;0.0;0.0;0.0
500;-0.004879999905824661;-0.03415999934077263;0.8654679656028748;0.07124799489974976;-0.19910399615764618;0.9535520076751709;-4.580625057220459;-7.892499923706055;-6.483749866485596
502;0.0;0.0;0.0;0.05172799900174141;-0.1756799966096878;0.9779520034790039;0.0;0.0;0.0
504;0.0;0.0;0.0;0.06734399497509003;-0.19129599630832672;0.9818559885025024;0.0;0.0;0.0
506;0.0;0.0;0.0;0.03611199930310249;-0.187391996383667;0.9691680073738098;0.0;0.0;0.0
508;-0.053679998964071274;-0.04806799814105034;0.8461920022964478;0.0634399950504303;-0.17958399653434753;0.9574559926986694;-5.490624904632568;-6.422500133514404;-4.31374979019165
511;0.0;0.0;0.0;0.028303999453783035;-0.1756799966096878;0.9769759774208069;0.0;0.0;0.0
513;0.0;0.0;0.0;0.020495999604463577;-0.19129599630832672;0.9535520076751709;0.0;0.0;0.0
515;0.0;0.0;0.0;0.05563199892640114;-0.187391996383667;0.985759973526001;0.0;0.0;0.0
517;-0.07954400032758713;-0.0424560010433197;0.8476560115814209;0.05563199892640114;-0.1756799966096878;0.9779520034790039;-4.510624885559082;-3.762500047683716;-2.9837498664855957
519;0.0;0.0;0.0;0.024399999529123306;-0.16396799683570862;0.9779520034790039;0.0;0.0;0.0
521;0.0;0.0;0.0;-0.010735999792814255;-0.14054399728775024;1.0140639543533325;0.0;0.0;0.0
523;0.0;0.0;0.0;0.004879999905824661;-0.187391996383667;1.017967939376831;0.0;0.0;0.0
525;-0.09784399718046188;-0.02757199853658676;0.8769359588623047;0.00878399983048439;-0.18348799645900726;1.034559965133667;-3.880625009536743;-0.12250000238418579;-0.04375000298023224
528;0.0;0.0;0.0;-0.022447999566793442;-0.1756799966096878;1.017967939376831;0.0;0.0;0.0
530;0.0;0.0;0.0;-0.006831999868154526;-0.16787199676036835;1.0384639501571655;0.0;0.0;0.0
532;0.0;0.0;0.0;-0.06929600238800049;-0.187391996383667;1.0501760244369507;0.0;0.0;0.0
534;-0.15493999421596527;-0.03806399926543236;0.9057279825210571;-0.07320000231266022;-0.1756799966096878;1.0501760244369507;-3.7406251430511475;1.4875000715255737;3.4562501907348633
536;0.0;0.0;0.0;-0.0849120020866394;-0.17958399653434753;1.042367935180664;0.0;0.0;0.0
538;0.0;0.0;0.0;-0.11614400148391724;-0.16787199676036835;1.034559965133667;0.0;0.0;0.0
540;0.0;0.0;0.0;-0.1424959897994995;-0.18348799645900726;1.0745760202407837;0.0;0.0;0.0
543;-0.2374119907617569;-0.04001599922776222;0.9201239943504333;-0.1542080044746399;-0.15615999698638916;1.0501760244369507;-2.970625162124634;4.077499866485596;5.626250267028809
545;0.0;0.0;0.0;-0.14737600088119507;-0.11711999773979187;1.0872639417648315;0.0;0.0;0.0
547;0.0;0.0;0.0;-0.19715198874473572;-0.1600639969110489;1.0745760202407837;0.0;0.0;0.0
549;0.0;0.0;0.0;-0.26742398738861084;-0.15225599706172943;1.0872639417648315;0.0;0.0;0.0
551;-0.3215920031070709;-0.0058559998869895935;0.9579439759254456;-0.27132800221443176;-0.14054399728775024;1.115567922592163;-1.7106250524520874;5.757500171661377;9.40625
553;0.0;0.0;0.0;-0.26254400610923767;-0.15225599706172943;1.1106879711151123;0.0;0.0;0.0
555;0.0;0.0;0.0;-0.27035200595855713;-0.14444799721240997;1.1311839818954468;0.0;0.0;0.0
557;0.0;0.0;0.0;-0.2937760055065155;-0.15615999698638916;1.1184959411621094;0.0;0.0;0.0
560;-0.3945479989051819;-0.0058559998869895935;1.0030839443206787;-0.2820639908313751;-0.1600639969110489;1.1184959411621094;-0.940625011920929;1.6975001096725464;16.056249618530273
562;0.0;0.0;0.0;-0.32500800490379333;-0.15615999698638916;1.1311839818954468;0.0;0.0;0.0
564;0.0;0.0;0.0;-0.2898719906806946;-0.17177599668502808;1.1389919519424438;0.0;0.0;0.0
566;0.0;0.0;0.0;-0.3093920052051544;-0.17958399653434753;1.1389919519424438;0.0;0.0;0.0
568;-0.4370039999485016;-0.030743999406695366;1.0077199935913086;-0.34062400460243225;-0.1600639969110489;1.1555839776992798;-1.2906250953674316;0.6474999785423279;21.58625030517578
570;0.0;0.0;0.0;-0.3533119857311249;-0.17958399653434753;1.1438720226287842;0.0;0.0;0.0
572;0.0;0.0;0.0;-0.3728320002555847;-0.16396799683570862;1.1477760076522827;0.0;0.0;0.0
574;0.0;0.0;0.0;-0.3689279854297638;-0.19129599630832672;1.1477760076522827;0.0;0.0;0.0
577;-0.476531982421875;-0.04440800100564957;1.016260027885437;-0.38844799995422363;-0.17177599668502808;1.1477760076522827;-2.4106249809265137;0.5774999856948853;25.36625099182129
579;0.0;0.0;0.0;-0.3835679888725281;-0.21081599593162537;1.1438720226287842;0.0;0.0;0.0
581;0.0;0.0;0.0;-0.4108960032463074;-0.17958399653434753;1.139967918395996;0.0;0.0;0.0
583;0.0;0.0;0.0;-0.37673598527908325;-0.20691199600696564;1.1516799926757812;0.0;0.0;0.0
585;-0.5080080032348633;-0.054655998945236206;1.028216004371643;-0.3728320002555847;-0.16787199676036835;1.1438720226287842;-4.510624885559082;-1.3125;28.236249923706055
587;0.0;0.0;0.0;-0.3533119857311249;-0.2030079960823059;1.1438720226287842;0.0;0.0;0.0
589;0.0;0.0;0.0;-0.36111998558044434;-0.21862399578094482;1.156559944152832;0.0;0.0;0.0
591;0.0;0.0;0.0;-0.3455039858818054;-0.2147199958562851;1.1477760076522827;0.0;0.0;0.0
594;-0.48897600173950195;-0.07930000126361847;1.0213840007781982;-0.36111998558044434;-0.24985599517822266;1.1233760118484497;-7.100625038146973;-1.3824999332427979;29.916250228881836
596;0.0;0.0;0.0;-0.36111998558044434;-0.22643199563026428;1.1555839776992798;0.0;0.0;0.0
598;0.0;0.0;0.0;-0.3455039858818054;-0.2654719948768616;1.1516799926757812;0.0;0.0;0.0
600;0.0;0.0;0.0;-0.36111998558044434;-0.284991979598999;1.1477760076522827;0.0;0.0;0.0
602;-0.4794600009918213;-0.13249199092388153;1.0257760286331177;-0.3689279854297638;-0.26156800985336304;1.1721760034561157;-9.2006254196167;0.9275000095367432;30.756250381469727
604;0.0;0.0;0.0;-0.36502400040626526;-0.3123199939727783;1.1799839735031128;0.0;0.0;0.0
606;0.0;0.0;0.0;-0.38844799995422363;-0.28889599442481995;1.1721760034561157;0.0;0.0;0.0
608;0.0;0.0;0.0;-0.4108960032463074;-0.3201279938220978;1.1604639291763306;0.0;0.0;0.0
611;-0.5197200179100037;-0.1756799966096878;1.044319987297058;-0.4108960032463074;-0.32793599367141724;1.1682720184326172;-10.670624732971191;2.5374999046325684;30.47625160217285
613;0.0;0.0;0.0;-0.4382239878177643;-0.3201279938220978;1.180959939956665;0.0;0.0;0.0
615;0.0;0.0;0.0;-0.4030880033969879;-0.31622397899627686;1.1721760034561157;0.0;0.0;0.0
617;0.0;0.0;0.0;-0.4577440023422241;-0.3201279938220978;1.2170720100402832;0.0;0.0;0.0
619;-0.562175989151001;-0.18592800199985504;1.060912013053894;-0.46164798736572266;-0.3240320086479187;1.2004799842834473;-12.210624694824219;4.147500038146973;28.446250915527344
621;0.0;0.0;0.0;-0.4538399875164032;-0.3513599932193756;1.1965759992599487;0.0;0.0;0.0
623;0.0;0.0;0.0;-0.48897600173950195;-0.3357439935207367;1.229759931564331;0.0;0.0;0.0
625;0.0;0.0;0.0;-0.4694559872150421;-0.37088000774383545;1.2092639207839966;0.0;0.0;0.0
628;-0.606827974319458;-0.2193560004234314;1.0909240245819092;-0.5163040161132812;-0.3903999924659729;1.2248799800872803;-14.030625343322754;2.117499828338623;25.506250381469727
630;0.0;0.0;0.0;-0.5123999714851379;-0.3786879777908325;1.2248799800872803;0.0;0.0;0.0
632;0.0;0.0;0.0;-0.5202080011367798;-0.40991997718811035;1.2170720100402832;0.0;0.0;0.0
634;0.0;0.0;0.0;-0.5241119861602783;-0.40991997718811035;1.229759931564331;0.0;0.0;0.0
636;-0.6358639597892761;-0.26083600521087646;1.0962920188903809;-0.5202080011367798;-0.3903999924659729;1.2209759950637817;-14.660625457763672;-1.4524999856948853;20.396249771118164
638;0.0;0.0;0.0;-0.5192319750785828;-0.4138239920139313;1.2209759950637817;0.0;0.0;0.0
640;0.0;0.0;0.0;-0.5075199604034424;-0.42163199186325073;1.2200000286102295;0.0;0.0;0.0
642;0.0;0.0;0.0;-0.5036159753799438;-0.4333440065383911;1.2121919393539429;0.0;0.0;0.0
645;-0.6341559886932373;-0.2793799936771393;1.0931199789047241;-0.49190399050712585;-0.4138239920139313;1.2248799800872803;-14.80062484741211;-5.162499904632568;13.25624942779541
647;0.0;0.0;0.0;-0.4684799909591675;-0.4138239920139313;1.2082879543304443;0.0;0.0;0.0
649;0.0;0.0;0.0;-0.4684799909591675;-0.42553597688674927;1.1965759992599487;0.0;0.0;0.0
651;0.0;0.0;0.0;-0.46457600593566895;-0.4060159921646118;1.2043839693069458;0.0;0.0;0.0
653;-0.5892599821090698;-0.28596800565719604;1.0723799467086792;-0.44896000623703003;-0.4333440065383911;1.1838879585266113;-14.030625343322754;-9.71250057220459;4.086249828338623
655;0.0;0.0;0.0;-0.4304159879684448;-0.4294399917125702;1.2004799842834473;0.0;0.0;0.0
657;0.0;0.0;0.0;-0.4147999882698059;-0.4411519765853882;1.1682720184326172;0.0;0.0;0.0
659;0.0;0.0;0.0;-0.4108960032463074;-0.4411519765853882;1.1682720184326172;0.0;0.0;0.0
662;-0.5289919972419739;-0.29353198409080505;1.040903925895691;-0.36111998558044434;-0.4177280068397522;1.1604639291763306;-11.090624809265137;-13.702500343322754;-5.503749847412109
664;0.0;0.0;0.0;-0.34940800070762634;-0.42553597688674927;1.139967918395996;0.0;0.0;0.0
666;0.0;0.0;0.0;-0.30646398663520813;-0.4138239920139313;1.1438720226287842;0.0;0.0;0.0
668;0.0;0.0;0.0;-0.28303998708724976;-0.42163199186325073;1.1360639333724976;0.0;0.0;0.0
670;-0.44310399889945984;-0.28669998049736023;1.0145519971847534;-0.28303998708724976;-0.39430397748947144;1.139967918395996;-6.190625190734863;-16.572500228881836;-12.99375057220459
672;0.0;0.0;0.0;-0.27132800221443176;-0.4333440065383911;1.107759952545166;0.0;0.0;0.0
674;0.0;0.0;0.0;-0.2635200023651123;-0.40991997718811035;1.1311839818954468;0.0;0.0;0.0
676;0.0;0.0;0.0;-0.2596159875392914;-0.4138239920139313;1.115567922592163;0.0;0.0;0.0
679;-0.38185998797416687;-0.2710839807987213;0.98990797996521;-0.22838398814201355;-0.38649600744247437;1.1116639375686646;-1.3606250286102295;-16.642499923706055;-17.54374885559082
681;0.0;0.0;0.0;-0.236191987991333;-0.38649600744247437;1.115567922592163;0.0;0.0;0.0
683;0.0;0.0;0.0;-0.21667200326919556;-0.35526400804519653;1.0745760202407837;0.0;0.0;0.0
685;0.0;0.0;0.0;-0.21667200326919556;-0.35916799306869507;1.0628639459609985;0.0;0.0;0.0
687;-0.3501400053501129;-0.2332639992237091;0.9637999534606934;-0.2205759882926941;-0.3357439935207367;1.066767930984497;2.419374942779541;-14.052499771118164;-20.9737491607666
689;0.0;0.0;0.0;-0.20105600357055664;-0.35526400804519653;1.066767930984497;0.0;0.0;0.0
691;0.0;0.0;0.0;-0.19715198874473572;-0.3084160089492798;1.0589599609375;0.0;0.0;0.0
693;0.0;0.0;0.0;-0.2205759882926941;-0.31622397899627686;1.066767930984497;0.0;0.0;0.0
696;-0.33135199546813965;-0.19324800372123718;0.936959981918335;-0.19715198874473572;-0.31622397899627686;1.0784800052642822;5.359375;-10.272500038146973;-23.563749313354492
698;0.0;0.0;0.0;-0.20495998859405518;-0.31622397899627686;1.0501760244369507;0.0;0.0;0.0
700;0.0;0.0;0.0;-0.16201600432395935;-0.27327999472618103;1.0462720394134521;0.0;0.0;0.0
702;0.0;0.0;0.0;-0.17763200402259827;-0.2967039942741394;1.042367935180664;0.0;0.0;0.0
704;-0.31036800146102905;-0.1622599959373474;0.9257360100746155;-0.16201600432395935;-0.3084160089492798;1.0550559759140015;8.089374542236328;-6.5625;-23.77375030517578
706;0.0;0.0;0.0;-0.16494399309158325;-0.27327999472618103;1.0579839944839478;0.0;0.0;0.0
708;0.0;0.0;0.0;-0.14932799339294434;-0.27718400955200195;1.0579839944839478;0.0;0.0;0.0
710;0.0;0.0;0.0;-0.13468798995018005;-0.2693759799003601;1.0540800094604492;0.0;0.0;0.0
713;-0.27620798349380493;-0.1395680010318756;0.9330559968948364;-0.12297599762678146;-0.27327999472618103;1.073599934577942;9.489375114440918;-2.992500066757202;-21.113750457763672
715;0.0;0.0;0.0;-0.13468798995018005;-0.2576639950275421;1.073599934577942;0.0;0.0;0.0
717;0.0;0.0;0.0;-0.1454239934682846;-0.26156800985336304;1.0823839902877808;0.0;0.0;0.0
719;0.0;0.0;0.0;-0.12297599762678146;-0.2654719948768616;1.0784800052642822;0.0;0.0;0.0
721;-0.24595199525356293;-0.12029200047254562;0.957211971282959;-0.1424959897994995;-0.24985599517822266;1.101904034614563;8.719374656677246;-0.8225000500679016;-16.77375030517578
723;0.0;0.0;0.0;-0.09174399822950363;-0.2420479953289032;1.097999930381775;0.0;0.0;0.0
725;0.0;0.0;0.0;-0.09564799815416336;-0.2654719948768616;1.126304030418396;0.0;0.0;0.0
727;0.0;0.0;0.0;-0.08003199845552444;-0.23814399540424347;1.126304030418396;0.0;0.0;0.0
730;-0.20983999967575073;-0.10150399804115295;0.9928359985351562;-0.06831999868154526;-0.2147199958562851;1.1311839818954468;5.63937520980835;-0.8925000429153442;-12.43375015258789
732;0.0;0.0;0.0;-0.06441599875688553;-0.23423999547958374;1.1145919561386108;0.0;0.0;0.0
734;0.0;0.0;0.0;-0.02537599951028824;-0.2420479953289032;1.1311839818954468;0.0;0.0;0.0
736;0.0;0.0;0.0;-0.01756799966096878;-0.22252799570560455;1.1555839776992798;0.0;0.0;0.0
738;-0.16030800342559814;-0.10369999706745148;1.0106480121612549;-0.02147199958562851;-0.21862399578094482;1.1350879669189453;0.4593749940395355;-1.662500023841858;-9.633750915527344
740;0.0;0.0;0.0;-0.009759999811649323;-0.2576639950275421;1.126304030418396;0.0;0.0;0.0
742;0.0;0.0;0.0;0.009759999811649323;-0.23423999547958374;1.146799921989441;0.0;0.0;0.0
745;0.0;0.0;0.0;-0.0019519999623298645;-0.26156800985336304;1.1184959411621094;0.0;0.0;0.0
747;-0.12248799949884415;-0.11467999964952469;1.0028399229049683;0.013663999736309052;-0.2576639950275421;1.1311839818954468;-4.510624885559082;-3.2725000381469727;-8.163750648498535
749;0.0;0.0;0.0;-0.0019519999623298645;-0.27327999472618103;1.1106879711151123;0.0;0.0;0.0
751;0.0;0.0;0.0;0.0058559998869895935;-0.27327999472618103;1.101904034614563;0.0;0.0;0.0
753;0.0;0.0;0.0;-0.0058559998869895935;-0.24985599517822266;1.101904034614563;0.0;0.0;0.0
755;-0.11101999878883362;-0.12785600125789642;0.986735999584198;0.040991999208927155;-0.2810879945755005;1.097999930381775;-7.520625114440918;-4.672500133514404;-8.443750381469727
757;0.0;0.0;0.0;0.0009759999811649323;-0.27718400955200195;1.0989760160446167;0.0;0.0;0.0
759;0.0;0.0;0.0;0.020495999604463577;-0.2967039942741394;1.0950720310211182;0.0;0.0;0.0
761;0.0;0.0;0.0;0.03611199930310249;-0.2693759799003601;1.0989760160446167;0.0;0.0;0.0
764;-0.0924759954214096;-0.1449359953403473;0.9637999534606934;0.04001599922776222;-0.29280000925064087;1.066767930984497;-8.150625228881836;-5.232500076293945;-10.753750801086426
766;0.0;0.0;0.0;0.05953599885106087;-0.27718400955200195;1.0706720352172852;0.0;0.0;0.0
768;0.0;0.0;0.0;0.05953599885106087;-0.30060797929763794;1.0589599609375;0.0;0.0;0.0
770;0.0;0.0;0.0;0.07905599474906921;-0.30060797929763794;1.0384639501571655;0.0;0.0;0.0
772;-0.04684799909591675;-0.15518400073051453;0.9315919876098633;0.10931199789047241;-0.30451199412345886;1.0296800136566162;-6.050624847412109;-5.792500019073486;-13.763750076293945
775;0.0;0.0;0.0;0.12492799758911133;-0.28889599442481995;1.0384639501571655;0.0;0.0;0.0
776;0.0;0.0;0.0;0.1483519971370697;-0.29280000925064087;1.0306559801101685;0.0;0.0;0.0
779;0.0;0.0;0.0;0.16396799683570862;-0.26156800985336304;1.010159969329834;0.0;0.0;0.0
781;0.022204000502824783;-0.13712799549102783;0.9054839611053467;0.187391996383667;-0.2537599802017212;1.034559965133667;-1.8506250381469727;-5.932499885559082;-16.353750228881836
783;0.0;0.0;0.0;0.22252799570560455;-0.2420479953289032;1.017967939376831;0.0;0.0;0.0
785;0.0;0.0;0.0;0.2576639950275421;-0.21862399578094482;1.0384639501571655;0.0;0.0;0.0
787;0.0;0.0;0.0;0.2576639950275421;-0.24595199525356293;0.9974719882011414;0.0;0.0;0.0
789;0.11614400148391724;-0.10052800178527832;0.8884040117263794;0.29280000925064087;-0.19519999623298645;1.034559965133667;1.859375;-3.202500104904175;-17.403749465942383
791;0.0;0.0;0.0;0.3084160089492798;-0.16787199676036835;1.034559965133667;0.0;0.0;0.0
793;0.0;0.0;0.0;0.28889599442481995;-0.16787199676036835;1.0628639459609985;0.0;0.0;0.0
796;0.0;0.0;0.0;0.3084160089492798;-0.16787199676036835;1.066767930984497;0.0;0.0;0.0
798;0.17543599009513855;-0.04367600008845329;0.9279319643974304;0.2967039942741394;-0.16787199676036835;1.066767930984497;4.519374847412109;0.8575000166893005;-13.063750267028809
800;0.0;0.0;0.0;0.31622397899627686;-0.13663999736309052;1.0550559759140015;0.0;0.0;0.0
802;0.0;0.0;0.0;0.30060797929763794;-0.16787199676036835;1.042367935180664;0.0;0.0;0.0
804;0.0;0.0;0.0;0.2967039942741394;-0.15225599706172943;1.034559965133667;0.0;0.0;0.0
806;0.17128799855709076;-0.01781199872493744;0.9220759868621826;0.29280000925064087;-0.17958399653434753;1.0062559843063354;3.3293750286102295;2.607499837875366;-9.563750267028809
808;0.0;0.0;0.0;0.31329599022865295;-0.1483519971370697;1.0208959579467773;0.0;0.0;0.0
810;0.0;0.0;0.0;0.32500800490379333;-0.14444799721240997;1.0247999429702759;0.0;0.0;0.0
813;0.0;0.0;0.0;0.32500800490379333;-0.17177599668502808;1.0091840028762817;0.0;0.0;0.0
815;0.19422399997711182;-0.009759999811649323;0.8940159678459167;0.34355199337005615;-0.16396799683570862;1.0130879878997803;3.679374933242798;3.237499952316284;-10.473750114440918
817;0.0;0.0;0.0;0.36795198917388916;-0.15225599706172943;1.0208959579467773;0.0;0.0;0.0
819;0.0;0.0;0.0;0.4060159921646118;-0.17177599668502808;1.0013760328292847;0.0;0.0;0.0
821;0.0;0.0;0.0;0.4177280068397522;-0.14444799721240997;1.0208959579467773;0.0;0.0;0.0
823;0.27889198064804077;-0.018543999642133713;0.8830359578132629;0.4450559914112091;-0.13663999736309052;1.0052800178527832;5.289374828338623;4.217499732971191;-10.893750190734863
825;0.0;0.0;0.0;0.48311999440193176;-0.1210239976644516;0.985759973526001;0.0;0.0;0.0
827;0.0;0.0;0.0;0.4909279942512512;-0.15225599706172943;1.0013760328292847;0.0;0.0;0.0
830;0.0;0.0;0.0;0.47921597957611084;-0.12883199751377106;1.0062559843063354;0.0;0.0;0.0
832;0.37380799651145935;0.0014639999717473984;0.8779119849205017;0.5182560086250305;-0.12883199751377106;1.0140639543533325;7.249374866485596;6.877500057220459;-8.233750343322754
834;0.0;0.0;0.0;0.5416799783706665;-0.10150399804115295;0.9974719882011414;0.0;0.0;0.0
836;0.0;0.0;0.0;0.5533919930458069;-0.10150399804115295;1.0306559801101685;0.0;0.0;0.0
838;0.0;0.0;0.0;0.561199963092804;-0.08979199826717377;1.0218719244003296;0.0;0.0;0.0
840;0.42455998063087463;0.03001200035214424;0.8891359567642212;0.5963360071182251;-0.07417599856853485;1.0306559801101685;8.579375267028809;9.117500305175781;-5.223750114440918
842;0.0;0.0;0.0;0.5846239924430847;-0.11321599781513214;1.017967939376831;0.0;0.0;0.0
844;0.0;0.0;0.0;0.5924319624900818;-0.0663679987192154;1.034559965133667;0.0;0.0;0.0
847;0.0;0.0;0.0;0.6197599768638611;-0.0936959981918335;1.017967939376831;0.0;0.0;0.0
849;0.49190399050712585;0.054899998009204865;0.8988959789276123;0.6314719915390015;-0.07417599856853485;1.010159969329834;8.369375228881836;11.4975004196167;-2.773750066757202
851;0.0;0.0;0.0;0.6314719915390015;-0.08979199826717377;1.02675199508667;0.0;0.0;0.0
853;0.0;0.0;0.0;0.6431840062141418;-0.08979199826717377;1.0140639543533325;0.0;0.0;0.0
855;0.0;0.0;0.0;0.6539199948310852;-0.10931199789047241;0.9974719882011414;0.0;0.0;0.0
857;0.5338720083236694;0.042211998254060745;0.891819953918457;0.6812480092048645;-0.0936959981918335;0.9818559885025024;7.669374942779541;13.737500190734863;-1.3737499713897705
859;0.0;0.0;0.0;0.6783199906349182;-0.10150399804115295;1.0013760328292847;0.0;0.0;0.0
861;0.0;0.0;0.0;0.7163839936256409;-0.08588799834251404;0.985759973526001;0.0;0.0;0.0
864;0.0;0.0;0.0;0.7398079633712769;-0.08979199826717377;0.9896639585494995;0.0;0.0;0.0
866;0.5912119746208191;0.04270000010728836;0.8786439895629883;0.7398079633712769;-0.08198399841785431;1.0140639543533325;8.439374923706055;18.987499237060547;-2.4237499237060547
868;0.0;0.0;0.0;0.7398079633712769;-0.07027199864387512;1.0501760244369507;0.0;0.0;0.0
870;0.0;0.0;0.0;0.7398079633712769;-0.07807999849319458;1.066767930984497;0.0;0.0;0.0
872;0.0;0.0;0.0;0.7515199780464172;-0.03513599932193756;1.0628639459609985;0.0;0.0;0.0
874;0.6256160140037537;0.07027199864387512;0.9223200082778931;0.7671359777450562;-0.054655998945236206;1.0628639459609985;8.859375;25.147499084472656;-3.2637500762939453
877;0.0;0.0;0.0;0.7554239630699158;-0.031231999397277832;1.0989760160446167;0.0;0.0;0.0
878;0.0;0.0;0.0;0.7515199780464172;-0.054655998945236206;1.1028800010681152;0.0;0.0;0.0
881;0.0;0.0;0.0;0.7671359777450562;-0.062463998794555664;1.139967918395996;0.0;0.0;0.0
883;0.6348879933357239;0.07930000126361847;0.9740479588508606;0.7437120079994202;-0.0663679987192154;1.0989760160446167;7.669374942779541;27.8075008392334;-2.4237499237060547
885;0.0;0.0;0.0;0.7359039783477783;-0.07417599856853485;1.132159948348999;0.0;0.0;0.0
887;0.0;0.0;0.0;0.7202879786491394;-0.04684799909591675;1.132159948348999;0.0;0.0;0.0
889;0.0;0.0;0.0;0.7124800086021423;-0.054655998945236206;1.1643680334091187;0.0;0.0;0.0
891;0.5992639660835266;0.07881199568510056;1.0125999450683594;0.6812480092048645;-0.058559998869895935;1.1438720226287842;4.799375057220459;30.047500610351562;-2.143749952316284
893;0.0;0.0;0.0;0.6890559792518616;-0.07417599856853485;1.1721760034561157;0.0;0.0;0.0
895;0.0;0.0;0.0;0.6968640089035034;-0.07027199864387512;1.1848639249801636;0.0;0.0;0.0
898;0.0;0.0;0.0;0.6890559792518616;-0.07417599856853485;1.1887680292129517;0.0;0.0;0.0
900;0.5758399963378906;0.07441999763250351;1.0450519323349;0.708575963973999;-0.054655998945236206;1.1926720142364502;0.9493749737739563;28.857500076293945;-4.59375
902;0.0;0.0;0.0;0.700767993927002;-0.058559998869895935;1.2004799842834473;0.0;0.0;0.0
904;0.0;0.0;0.0;0.6890559792518616;-0.054655998945236206;1.2043839693069458;0.0;0.0;0.0
906;0.0;0.0;0.0;0.6968640089035034;-0.07027199864387512;1.1965759992599487;0.0;0.0;0.0
908;0.5899919867515564;0.0680759996175766;1.0704280138015747;0.7359039783477783;-0.062463998794555664;1.1926720142364502;-2.130625009536743;25.497499465942383;-4.523749828338623
910;0.0;0.0;0.0;0.7476159930229187;-0.07027199864387512;1.2092639207839966;0.0;0.0;0.0
912;0.0;0.0;0.0;0.7437120079994202;-0.08979199826717377;1.1965759992599487;0.0;0.0;0.0
915;0.0;0.0;0.0;0.7359039783477783;-0.0936959981918335;1.2170720100402832;0.0;0.0;0.0
917;0.6219559907913208;0.06392800062894821;1.0711599588394165;0.7827519774436951;-0.07807999849319458;1.1926720142364502;-4.370625019073486;22.0674991607666;-3.1937499046325684
919;0.0;0.0;0.0;0.7710399627685547;-0.0663679987192154;1.2131680250167847;0.0;0.0;0.0
921;0.0;0.0;0.0;0.7905600070953369;-0.062463998794555664;1.2004799842834473;0.0;0.0;0.0
923;0.0;0.0;0.0;0.7827519774436951;-0.10150399804115295;1.1721760034561157;0.0;0.0;0.0
925;0.6541640162467957;0.0500199981033802;1.0711599588394165;0.7788479924201965;-0.10540799796581268;1.1965759992599487;-4.650625228881836;18.707500457763672;-1.3737499713897705
928;0.0;0.0;0.0;0.7866559624671936;-0.10931199789047241;1.1965759992599487;0.0;0.0;0.0
929;0.0;0.0;0.0;0.7944639921188354;-0.1327359974384308;1.180959939956665;0.0;0.0;0.0
932;0.0;0.0;0.0;0.8217920064926147;-0.1327359974384308;1.1604639291763306;0.0;0.0;0.0
934;0.6871039867401123;0.008539999835193157;1.0509079694747925;0.8374080061912537;-0.15225599706172943;1.1721760034561157;-2.4806251525878906;16.537500381469727;0.9362500309944153
936;0.0;0.0;0.0;0.8178879618644714;-0.13663999736309052;1.1516799926757812;0.0;0.0;0.0
938;0.0;0.0;0.0;0.8217920064926147;-0.1756799966096878;1.1555839776992798;0.0;0.0;0.0
940;0.0;0.0;0.0;0.8178879618644714;-0.16787199676036835;1.1643680334091187;0.0;0.0;0.0
942;0.6958879828453064;-0.028547998517751694;1.0362679958343506;0.8139839768409729;-0.19129599630832672;1.1477760076522827;2.559375047683716;16.467500686645508;2.896250009536743
945;0.0;0.0;0.0;0.7944639921188354;-0.1756799966096878;1.156559944152832;0.0;0.0;0.0
946;0.0;0.0;0.0;0.8022719621658325;-0.2030079960823059;1.1682720184326172;0.0;0.0;0.0
949;0.0;0.0;0.0;0.8022719621658325;-0.187391996383667;1.1799839735031128;0.0;0.0;0.0
951;0.6866160035133362;-0.04758000001311302;1.0411479473114014;0.7554239630699158;-0.19129599630832672;1.1926720142364502;7.669374942779541;17.517499923706055;3.8062500953674316
953;0.0;0.0;0.0;0.7671359777450562;-0.187391996383667;1.1887680292129517;0.0;0.0;0.0
955;0.0;0.0;0.0;0.7632319927215576;-0.21081599593162537;1.1887680292129517;0.0;0.0;0.0
957;0.0;0.0;0.0;0.7593280076980591;-0.19129599630832672;1.1887680292129517;0.0;0.0;0.0
959;0.6531879901885986;-0.060999996960163116;1.0599359273910522;0.7671359777450562;-0.19910399615764618;1.1926720142364502;11.589374542236328;18.00749969482422;3.8062500953674316
962;0.0;0.0;0.0;0.7515199780464172;-0.20691199600696564;1.2043839693069458;0.0;0.0;0.0
964;0.0;0.0;0.0;0.7593280076980591;-0.19910399615764618;1.1799839735031128;0.0;0.0;0.0
966;0.0;0.0;0.0;0.7359039783477783;-0.2147199958562851;1.1887680292129517;0.0;0.0;0.0
968;0.6258599758148193;-0.07637199759483337;1.0677440166473389;0.708575963973999;-0.2030079960823059;1.1848639249801636;14.459375381469727;16.11750030517578;3.666249990463257
970;0.0;0.0;0.0;0.7280960083007812;-0.2147199958562851;1.1848639249801636;0.0;0.0;0.0
972;0.0;0.0;0.0;0.7437120079994202;-0.22643199563026428;1.1926720142364502;0.0;0.0;0.0
974;0.0;0.0;0.0;0.7280960083007812;-0.24595199525356293;1.1848639249801636;0.0;0.0;0.0
976;0.6139039993286133;-0.09223199635744095;1.0540800094604492;0.7241919636726379;-0.22252799570560455;1.1799839735031128;17.259376525878906;13.947500228881836;4.086249828338623
979;0.0;0.0;0.0;0.7476159930229187;-0.22643199563026428;1.1643680334091187;0.0;0.0;0.0
981;0.0;0.0;0.0;0.7202879786491394;-0.230335995554924;1.1799839735031128;0.0;0.0;0.0
983;0.0;0.0;0.0;0.700767993927002;-0.2147199958562851;1.1965759992599487;0.0;0.0;0.0
985;0.6082919836044312;-0.09491600096225739;1.0584720373153687;0.7202879786491394;-0.23814399540424347;1.1965759992599487;19.42937660217285;11.917499542236328;5.486249923706055
987;0.0;0.0;0.0;0.7319999933242798;-0.2147199958562851;1.2170720100402832;0.0;0.0;0.0
989;0.0;0.0;0.0;0.7319999933242798;-0.22252799570560455;1.2131680250167847;0.0;0.0;0.0
991;0.0;0.0;0.0;0.708575963973999;-0.19910399615764618;1.2004799842834473;0.0;0.0;0.0
993;0.6009719967842102;-0.09637999534606934;1.0818959474563599;0.7241919636726379;-0.230335995554924;1.2248799800872803;19.42937660217285;8.557499885559082;7.866250038146973
996;0.0;0.0;0.0;0.7241919636726379;-0.24595199525356293;1.2248799800872803;0.0;0.0;0.0
998;0.0;0.0;0.0;0.7202879786491394;-0.23423999547958374;1.2287839651107788;0.0;0.0;0.0
1000;0.0;0.0;0.0;0.6968640089035034;-0.24595199525356293;1.2375680208206177;0.0;0.0;0.0
1002;0.5887719988822937;-0.11028799414634705;1.099463939666748;0.6812480092048645;-0.27718400955200195;1.2170720100402832;16.69937515258789;3.5174999237060547;10.66624927520752
1004;0.0;0.0;0.0;0.7202879786491394;-0.2654719948768616;1.2375680208206177;0.0;0.0;0.0
1006;0.0;0.0;0.0;0.685151994228363;-0.284991979598999;1.2375680208206177;0.0;0.0;0.0
1008;0.0;0.0;0.0;0.6734399795532227;-0.284991979598999;1.2453759908676147;0.0;0.0;0.0
1010;0.5687639713287354;-0.14566799998283386;1.1048319339752197;0.6627039909362793;-0.30060797929763794;1.2453759908676147;11.51937484741211;-2.0824999809265137;12.41624927520752
1013;0.0;0.0;0.0;0.6666079759597778;-0.3240320086479187;1.2209759950637817;0.0;0.0;0.0
1015;0.0;0.0;0.0;0.6588000059127808;-0.3357439935207367;1.2248799800872803;0.0;0.0;0.0
1017;0.0;0.0;0.0;0.6812480092048645;-0.3201279938220978;1.2287839651107788;0.0;0.0;0.0
1019;0.5460720062255859;-0.19227199256420135;1.1023919582366943;0.6509919762611389;-0.3630719780921936;1.229759931564331;5.849374771118164;-8.102499961853027;11.646249771118164
1021;0.0;0.0;0.0;0.6548959612846375;-0.35526400804519653;1.229759931564331;0.0;0.0;0.0
1023;0.0;0.0;0.0;0.6431840062141418;-0.4021120071411133;1.2209759950637817;0.0;0.0;0.0
1025;0.0;0.0;0.0;0.6275680065155029;-0.3903999924659729;1.2414720058441162;0.0;0.0;0.0
1027;0.5163040161132812;-0.24131599068641663;1.0918999910354614;0.6314719915390015;-0.39820799231529236;1.2209759950637817;1.1593749523162842;-14.47249984741211;8.216249465942383
1030;0.0;0.0;0.0;0.6197599768638611;-0.4138239920139313;1.1965759992599487;0.0;0.0;0.0
1032;0.0;0.0;0.0;0.611952006816864;-0.4333440065383911;1.1926720142364502;0.0;0.0;0.0
1034;0.0;0.0;0.0;0.611952006816864;-0.45286399126052856;1.1848639249801636;0.0;0.0;0.0
1036;0.4928799867630005;-0.2886520028114319;1.0618879795074463;0.611952006816864;-0.4333440065383911;1.1721760034561157;-1.7806251049041748;-20.422500610351562;2.6862499713897705
1038;0.0;0.0;0.0;0.6158559918403625;-0.43724799156188965;1.1516799926757812;0.0;0.0;0.0
1040;0.0;0.0;0.0;0.5963360071182251;-0.43724799156188965;1.1477760076522827;0.0;0.0;0.0
1042;0.0;0.0;0.0;0.6002399921417236;-0.4411519765853882;1.1233760118484497;0.0;0.0;0.0
1044;0.4760439991950989;-0.31207600235939026;1.0238239765167236;0.5885279774665833;-0.46457600593566895;1.1311839818954468;-2.760625123977661;-24.552499771118164;-4.243750095367432
1047;0.0;0.0;0.0;0.5729119777679443;-0.4138239920139313;1.1311839818954468;0.0;0.0;0.0
1049;0.0;0.0;0.0;0.5572959780693054;-0.44896000623703003;1.1194720268249512;0.0;0.0;0.0
1051;0.0;0.0;0.0;0.5729119777679443;-0.43724799156188965;1.1116639375686646;0.0;0.0;0.0
1053;0.4513999819755554;-0.30621999502182007;0.9945439696311951;0.5768159627914429;-0.44896000623703003;1.1194720268249512;-2.830625057220459;-26.65250015258789;-12.713750839233398
1055;0.0;0.0;0.0;0.5690079927444458;-0.44896000623703003;1.0950720310211182;0.0;0.0;0.0
1057;0.0;0.0;0.0;0.545583963394165;-0.43724799156188965;1.09116792678833;0.0;0.0;0.0
1059;0.0;0.0;0.0;0.5338720083236694;-0.4294399917125702;1.0989760160446167;0.0;0.0;0.0
1061;0.42675599455833435;-0.29646000266075134;0.9672159552574158;0.522159993648529;-0.43724799156188965;1.0745760202407837;-2.690624952316284;-27.5625;-20.903749465942383
1064;0.0;0.0;0.0;0.5143519639968872;-0.4450559914112091;1.0706720352172852;0.0;0.0;0.0
1066;0.0;0.0;0.0;0.49483197927474976;-0.4138239920139313;1.0540800094604492;0.0;0.0;0.0
1068;0.0;0.0;0.0;0.561199963092804;-0.39430397748947144;1.0501760244369507;0.0;0.0;0.0
1070;0.41333597898483276;-0.27035200595855713;0.9289079904556274;0.5690079927444458;-0.39820799231529236;1.017967939376831;-2.4106249809265137;-26.86250114440918;-27.41374969482422
1072;0.0;0.0;0.0;0.5690079927444458;-0.4021120071411133;1.0140639543533325;0.0;0.0;0.0
1074;0.0;0.0;0.0;0.4870239794254303;-0.3630719780921936;1.017967939376831;0.0;0.0;0.0
1076;0.0;0.0;0.0;0.49483197927474976;-0.374783992767334;1.0296800136566162;0.0;0.0;0.0
1078;0.4008919894695282;-0.2432679980993271;0.8879159688949585;0.4909279942512512;-0.3630719780921936;1.017967939376831;-0.8706249594688416;-23.572500228881836;-27.9737491607666
1081;0.0;0.0;0.0;0.4753119945526123;-0.35526400804519653;0.985759973526001;0.0;0.0;0.0
1083;0.0;0.0;0.0;0.47921597957611084;-0.3240320086479187;0.9896639585494995;0.0;0.0;0.0
1085;0.0;0.0;0.0;0.45188799500465393;-0.3240320086479187;0.9779520034790039;0.0;0.0;0.0
1087;0.35648399591445923;-0.19739599525928497;0.8603439927101135;0.4635999798774719;-0.2967039942741394;1.002351999282837;2.559375047683716;-20.702499389648438;-29.16374969482422
1089;0.0;0.0;0.0;0.4050399959087372;-0.30060797929763794;0.9691680073738098;0.0;0.0;0.0
1091;0.0;0.0;0.0;0.40113598108291626;-0.2810879945755005;0.9769759774208069;0.0;0.0;0.0
1093;0.0;0.0;0.0;0.4050399959087372;-0.284991979598999;1.002351999282837;0.0;0.0;0.0
1095;0.3008520007133484;-0.15957599878311157;0.8635159730911255;0.35819199681282043;-0.26156800985336304;0.9974719882011414;6.82937479019165;-18.322500228881836;-27.763750076293945
1098;0.0;0.0;0.0;0.3816159963607788;-0.27327999472618103;0.9935680031776428;0.0;0.0;0.0
1100;0.0;0.0;0.0;0.350383996963501;-0.2576639950275421;0.9935680031776428;0.0;0.0;0.0
1102;0.0;0.0;0.0;0.3396480083465576;-0.24595199525356293;1.0062559843063354;0.0;0.0;0.0
1104;0.23204399645328522;-0.13249199092388153;0.876691997051239;0.3396480083465576;-0.2537599802017212;1.0218719244003296;9.349374771118164;-16.502500534057617;-25.243749618530273
1106;0.0;0.0;0.0;0.3357439935207367;-0.24985599517822266;1.0218719244003296;0.0;0.0;0.0
1108;0.0;0.0;0.0;0.2810879945755005;-0.24595199525356293;0.9818559885025024;0.0;0.0;0.0
1110;0.0;0.0;0.0;0.27718400955200195;-0.230335995554924;0.9974719882011414;0.0;0.0;0.0
1112;0.16201600432395935;-0.10955599695444107;0.8818159699440002;0.26156800985336304;-0.22643199563026428;1.0062559843063354;10.609375;-14.47249984741211;-22.513750076293945
1115;0.0;0.0;0.0;0.2420479953289032;-0.230335995554924;1.002351999282837;0.0;0.0;0.0
1117;0.0;0.0;0.0;0.2693759799003601;-0.27327999472618103;0.9769759774208069;0.0;0.0;0.0
1119;0.0;0.0;0.0;0.23814399540424347;-0.22252799570560455;1.0062559843063354;0.0;0.0;0.0
1121;0.11907199770212173;-0.08954799920320511;0.8793759942054749;0.2147199958562851;-0.15615999698638916;1.034559965133667;11.939374923706055;-12.232500076293945;-19.643749237060547
1123;0.0;0.0;0.0;0.19129599630832672;-0.22643199563026428;1.0462720394134521;0.0;0.0;0.0
1125;0.0;0.0;0.0;0.2147199958562851;-0.19129599630832672;1.042367935180664;0.0;0.0;0.0
1127;0.0;0.0;0.0;0.17958399653434753;-0.18348799645900726;1.0257760286331177;0.0;0.0;0.0
1129;0.06612399965524673;-0.06295199692249298;0.9154880046844482;0.15225599706172943;-0.187391996383667;1.0501760244369507;10.399374961853027;-10.482500076293945;-16.143749237060547
1132;0.0;0.0;0.0;0.12883199751377106;-0.16787199676036835;1.0462720394134521;0.0;0.0;0.0
1134;0.0;0.0;0.0;0.14054399728775024;-0.17177599668502808;1.042367935180664;0.0;0.0;0.0
1136;0.0;0.0;0.0;0.1327359974384308;-0.1600639969110489;1.0550559759140015;0.0;0.0;0.0
1138;-0.00024399999529123306;-0.026108000427484512;0.9259799718856812;0.08686399459838867;-0.1210239976644516;1.0550559759140015;6.899374961853027;-7.822500228881836;-12.503750801086426
1140;0.0;0.0;0.0;0.0634399950504303;-0.15615999698638916;1.0589599609375;0.0;0.0;0.0
1142;0.0;0.0;0.0;0.05563199892640114;-0.12883199751377106;1.042367935180664;0.0;0.0;0.0
1144;0.0;0.0;0.0;0.03611199930310249;-0.1483519971370697;1.0501760244369507;0.0;0.0;0.0
1147;-0.07417599856853485;-0.008295999839901924;0.933788001537323;0.020495999604463577;-0.11711999773979187;1.0589599609375;4.379374980926514;-5.792500019073486;-10.823750495910645
1149;0.0;0.0;0.0;0.004879999905824661;-0.1483519971370697;1.083359956741333;0.0;0.0;0.0
1151;0.0;0.0;0.0;0.004879999905824661;-0.12883199751377106;1.0872639417648315;0.0;0.0;0.0
1153;0.0;0.0;0.0;-0.014639999717473984;-0.1327359974384308;1.1028800010681152;0.0;0.0;0.0
1155;-0.1320039927959442;0.004391999915242195;0.9630680084228516;-0.02635199949145317;-0.13663999736309052;1.1233760118484497;2.6293749809265137;-3.132500171661377;-9.213750839233398
1157;0.0;0.0;0.0;-0.049775999039411545;-0.14054399728775024;1.1438720226287842;0.0;0.0;0.0
1159;0.0;0.0;0.0;-0.10443200170993805;-0.14444799721240997;1.1555839776992798;0.0;0.0;0.0
1161;0.0;0.0;0.0;-0.11614400148391724;-0.14444799721240997;1.1604639291763306;0.0;0.0;0.0
1163;-0.21569599211215973;-0.0012199999764561653;1.0169919729232788;-0.12004800140857697;-0.15225599706172943;1.156559944152832;0.31937500834465027;-2.572499990463257;-3.8237500190734863
1166;0.0;0.0;0.0;-0.13176000118255615;-0.13663999736309052;1.1643680334091187;0.0;0.0;0.0
1168;0.0;0.0;0.0;-0.1424959897994995;-0.12492799758911133;1.1643680334091187;0.0;0.0;0.0
1170;0.0;0.0;0.0;-0.1815359890460968;-0.14444799721240997;1.1721760034561157;0.0;0.0;0.0
1172;-0.2786479890346527;-0.0017079999670386314;1.0367560386657715;-0.2088640034198761;-0.12883199751377106;1.1887680292129517;-1.7106250524520874;0.08749999850988388;1.9862499237060547
1174;0.0;0.0;0.0;-0.25571200251579285;-0.12883199751377106;1.2131680250167847;0.0;0.0;0.0
1176;0.0;0.0;0.0;-0.2635200023651123;-0.15225599706172943;1.229759931564331;0.0;0.0;0.0
1178;0.0;0.0;0.0;-0.26742398738861084;-0.14054399728775024;1.2209759950637817;0.0;0.0;0.0
1180;-0.3835679888725281;-0.0019519999623298645;1.0840920209884644;-0.27132800221443176;-0.14444799721240997;1.2209759950637817;-3.0406250953674316;1.1375000476837158;9.056249618530273
1183;0.0;0.0;0.0;-0.3142719864845276;-0.11321599781513214;1.2170720100402832;0.0;0.0;0.0
1185;0.0;0.0;0.0;-0.34940800070762634;-0.10150399804115295;1.2375680208206177;0.0;0.0;0.0
1187;0.0;0.0;0.0;-0.3572160005569458;-0.11711999773979187;1.254159927368164;0.0;0.0;0.0
1189;-0.46042799949645996;0.005367999896407127;1.1009279489517212;-0.37673598527908325;-0.13663999736309052;1.254159927368164;-3.320625066757202;-0.4724999964237213;16.266250610351562
1191;0.0;0.0;0.0;-0.399183988571167;-0.15615999698638916;1.2453759908676147;0.0;0.0;0.0
1193;0.0;0.0;0.0;-0.41870400309562683;-0.15615999698638916;1.2658720016479492;0.0;0.0;0.0
1195;0.0;0.0;0.0;-0.40699198842048645;-0.15225599706172943;1.229759931564331;0.0;0.0;0.0
1197;-0.5365560054779053;-0.021715998649597168;1.116055965423584;-0.41870400309562683;-0.15615999698638916;1.2375680208206177;-4.160624980926514;-2.642500162124634;20.95625114440918
1200;0.0;0.0;0.0;-0.4811680018901825;-0.14444799721240997;1.229759931564331;0.0;0.0;0.0
1202;0.0;0.0;0.0;-0.48507198691368103;-0.1483519971370697;1.2658720016479492;0.0;0.0;0.0
1204;0.0;0.0;0.0;-0.5045920014381409;-0.16396799683570862;1.2502559423446655;0.0;0.0;0.0
1206;-0.6139039993286133;-0.029767999425530434;1.1177639961242676;-0.5241119861602783;-0.17177599668502808;1.2736799716949463;-4.860625267028809;-2.3625001907348633;23.40625
1208;0.0;0.0;0.0;-0.5436319708824158;-0.2030079960823059;1.2492799758911133;0.0;0.0;0.0
1210;0.0;0.0;0.0;-0.563152015209198;-0.1756799966096878;1.2658720016479492;0.0;0.0;0.0
1212;0.0;0.0;0.0;-0.5748639702796936;-0.17958399653434753;1.2375680208206177;0.0;0.0;0.0
1214;-0.6814919710159302;-0.05148399993777275;1.1175199747085571;-0.5787680149078369;-0.19129599630832672;1.2209759950637817;-5.700624942779541;-7.052500247955322;23.756250381469727
1217;0.0;0.0;0.0;-0.5553439855575562;-0.19519999623298645;1.229759931564331;0.0;0.0;0.0
1219;0.0;0.0;0.0;-0.5826719999313354;-0.17177599668502808;1.2453759908676147;0.0;0.0;0.0
1221;0.0;0.0;0.0;-0.563152015209198;-0.18348799645900726;1.229759931564331;0.0;0.0;0.0
1223;-0.7000359892845154;-0.059779997915029526;1.1023919582366943;-0.5826719999313354;-0.17958399653434753;1.2375680208206177;-6.400625228881836;-9.082500457763672;21.446250915527344
1225;0.0;0.0;0.0;-0.5319200158119202;-0.17177599668502808;1.229759931564331;0.0;0.0;0.0
1227;0.0;0.0;0.0;-0.563152015209198;-0.17958399653434753;1.2453759908676147;0.0;0.0;0.0
1229;0.0;0.0;0.0;-0.5475360155105591;-0.19129599630832672;1.2453759908676147;0.0;0.0;0.0
1231;-0.6832000017166138;-0.057339999824762344;1.1111760139465332;-0.5163040161132812;-0.19129599630832672;1.2375680208206177;-7.660624980926514;-10.90250015258789;19.06624984741211
1234;0.0;0.0;0.0;-0.5397279858589172;-0.21081599593162537;1.254159927368164;0.0;0.0;0.0
1236;0.0;0.0;0.0;-0.4967840015888214;-0.19519999623298645;1.2736799716949463;0.0;0.0;0.0
1238;0.0;0.0;0.0;-0.5045920014381409;-0.1756799966096878;1.2453759908676147;0.0;0.0;0.0
1240;-0.6441599726676941;-0.05416800081729889;1.130452036857605;-0.5045920014381409;-0.1756799966096878;1.254159927368164;-9.830625534057617;-13.422500610351562;17.946250915527344
1242;0.0;0.0;0.0;-0.4811680018901825;-0.19129599630832672;1.2902719974517822;0.0;0.0;0.0
1244;0.0;0.0;0.0;-0.46164798736572266;-0.22252799570560455;1.2697759866714478;0.0;0.0;0.0
1246;0.0;0.0;0.0;-0.44603198766708374;-0.2147199958562851;1.2697759866714478;0.0;0.0;0.0
1248;-0.5936520099639893;-0.0663679987192154;1.140455961227417;-0.4421280026435852;-0.21081599593162537;1.2580640316009521;-13.330625534057617;-15.032500267028809;17.45625114440918
1251;0.0;0.0;0.0;-0.44993600249290466;-0.22252799570560455;1.254159927368164;0.0;0.0;0.0
1253;0.0;0.0;0.0;-0.43432000279426575;-0.23814399540424347;1.278559923171997;0.0;0.0;0.0
1255;0.0;0.0;0.0;-0.43432000279426575;-0.2576639950275421;1.2658720016479492;0.0;0.0;0.0
1257;-0.5519279837608337;-0.1076039969921112;1.1350879669189453;-0.4108960032463074;-0.24595199525356293;1.2502559423446655;-16.830623626708984;-15.452500343322754;16.266250610351562
1259;0.0;0.0;0.0;-0.399183988571167;-0.2810879945755005;1.254159927368164;0.0;0.0;0.0
1261;0.0;0.0;0.0;-0.40699198842048645;-0.31622397899627686;1.2092639207839966;0.0;0.0;0.0
1263;0.0;0.0;0.0;-0.4147999882698059;-0.3123199939727783;1.205359935760498;0.0;0.0;0.0
1265;-0.5411919951438904;-0.16299200057983398;1.1009279489517212;-0.40699198842048645;-0.30451199412345886;1.1965759992599487;-17.530624389648438;-16.012500762939453;13.046249389648438
1268;0.0;0.0;0.0;-0.4108960032463074;-0.3474559783935547;1.1848639249801636;0.0;0.0;0.0
1270;0.0;0.0;0.0;-0.4030880033969879;-0.3357439935207367;1.1643680334091187;0.0;0.0;0.0
1272;0.0;0.0;0.0;-0.41870400309562683;-0.3513599932193756;1.1516799926757812;0.0;0.0;0.0
1274;-0.5392400026321411;-0.205935999751091;1.0369999408721924;-0.41870400309562683;-0.35916799306869507;1.139967918395996;-13.54062557220459;-15.732500076293945;7.096250057220459
1276;0.0;0.0;0.0;-0.399183988571167;-0.3669759929180145;1.107759952545166;0.0;0.0;0.0
1278;0.0;0.0;0.0;-0.3835679888725281;-0.38259199261665344;1.0950720310211182;0.0;0.0;0.0
1280;0.0;0.0;0.0;-0.399183988571167;-0.3630719780921936;1.0784800052642822;0.0;0.0;0.0
1282;-0.5270400047302246;-0.22179599106311798;0.9679479598999023;-0.4147999882698059;-0.32793599367141724;1.0628639459609985;-4.860625267028809;-13.5625;-0.4637500047683716
1285;0.0;0.0;0.0;-0.3845439851284027;-0.34355199337005615;1.0218719244003296;0.0;0.0;0.0
1287;0.0;0.0;0.0;-0.3728320002555847;-0.3240320086479187;1.0384639501571655;0.0;0.0;0.0
1289;0.0;0.0;0.0;-0.3572160005569458;-0.3123199939727783;1.0306559801101685;0.0;0.0;0.0
1291;-0.4958080053329468;-0.19275999069213867;0.9132919907569885;-0.3572160005569458;-0.29280000925064087;1.0306559801101685;6.409375190734863;-11.392499923706055;-7.673749923706055
1293;0.0;0.0;0.0;-0.3298879861831665;-0.27718400955200195;1.0306559801101685;0.0;0.0;0.0
1295;0.0;0.0;0.0;-0.3142719864845276;-0.26156800985336304;1.0062559843063354;0.0;0.0;0.0
1297;0.0;0.0;0.0;-0.31036800146102905;-0.22643199563026428;1.017967939376831;0.0;0.0;0.0
1299;-0.44359198212623596;-0.1227319985628128;0.8805959820747375;-0.2791360020637512;-0.19129599630832672;0.9818559885025024;16.69937515258789;-9.432499885559082;-12.293750762939453
1302;0.0;0.0;0.0;-0.2479040026664734;-0.187391996383667;0.9818559885025024;0.0;0.0;0.0
1304;0.0;0.0;0.0;-0.24009600281715393;-0.19129599630832672;0.9896639585494995;0.0;0.0;0.0
1306;0.0;0.0;0.0;-0.22448000311851501;-0.12883199751377106;0.9896639585494995;0.0;0.0;0.0
1308;-0.366487979888916;-0.034648001194000244;0.8630279898643494;-0.1815359890460968;-0.12883199751377106;0.9818559885025024;23.06937599182129;-6.072500228881836;-13.623750686645508
1310;0.0;0.0;0.0;-0.17763200402259827;-0.08979199826717377;0.9730719923973083;0.0;0.0;0.0
1312;0.0;0.0;0.0;-0.17763200402259827;-0.10540799796581268;0.9935680031776428;0.0;0.0;0.0
1314;0.0;0.0;0.0;-0.1542080044746399;-0.07807999849319458;0.985759973526001;0.0;0.0;0.0
1317;-0.2920680046081543;0.040991999208927155;0.8593679666519165;-0.13176000118255615;-0.08198399841785431;0.985759973526001;23.69937515258789;-2.1525001525878906;-11.803750038146973
1319;0.0;0.0;0.0;-0.13176000118255615;-0.04684799909591675;0.9691680073738098;0.0;0.0;0.0
1321;0.0;0.0;0.0;-0.10443200170993805;-0.0663679987192154;0.9574559926986694;0.0;0.0;0.0
1323;0.0;0.0;0.0;-0.08100800216197968;-0.054655998945236206;0.9652639627456665;0.0;0.0;0.0
1325;-0.2386319935321808;0.07149200141429901;0.8417999744415283;-0.09662400186061859;-0.05075199902057648;0.9652639627456665;20.899375915527344;2.3274998664855957;-8.793750762939453
1327;0.0;0.0;0.0;-0.07710400223731995;-0.03903999924659729;0.9574559926986694;0.0;0.0;0.0
1329;0.0;0.0;0.0;-0.053679998964071274;-0.07027199864387512;0.9691680073738098;0.0;0.0;0.0
1331;0.0;0.0;0.0;-0.053679998964071274;-0.05075199902057648;0.9740479588508606;0.0;0.0;0.0
1333;-0.18519599735736847;0.07344400137662888;0.8464359641075134;-0.018543999642133713;-0.07027199864387512;0.985759973526001;18.309375762939453;7.227499961853027;-3.1937499046325684
1336;0.0;0.0;0.0;-0.02635199949145317;-0.0663679987192154;1.002351999282837;0.0;0.0;0.0
1338;0.0;0.0;0.0;0.004879999905824661;-0.08979199826717377;0.9935680031776428;0.0;0.0;0.0
1340;0.0;0.0;0.0;0.032207999378442764;-0.058559998869895935;1.002351999282837;0.0;0.0;0.0
1342;-0.12077999860048294;0.06441599875688553;0.8740079998970032;0.032207999378442764;-0.0936959981918335;1.0140639543533325;15.649374961853027;11.567500114440918;5.90625
1344;0.0;0.0;0.0;0.04001599922776222;-0.0663679987192154;1.0257760286331177;0.0;0.0;0.0
1346;0.0;0.0;0.0;0.05953599885106087;-0.10150399804115295;1.0306559801101685;0.0;0.0;0.0
1348;0.0;0.0;0.0;0.04782399907708168;-0.07027199864387512;1.0013760328292847;0.0;0.0;0.0
1350;-0.07807999849319458;0.05050799995660782;0.8964560031890869;0.06734399497509003;-0.10540799796581268;1.0384639501571655;12.849374771118164;14.647500038146973;14.726249694824219
1353;0.0;0.0;0.0;0.07515199482440948;-0.08588799834251404;1.0306559801101685;0.0;0.0;0.0
1355;0.0;0.0;0.0;0.06734399497509003;-0.0936959981918335;1.0306559801101685;0.0;0.0;0.0
1357;0.0;0.0;0.0;0.07124799489974976;-0.07807999849319458;1.083359956741333;0.0;0.0;0.0
1359;-0.0378200002014637;0.03684400022029877;0.912559986114502;0.10150399804115295;-0.11711999773979187;1.0462720394134521;9.979374885559082;16.25749969482422;20.04625129699707
1361;0.0;0.0;0.0;0.10931199789047241;-0.10540799796581268;1.0589599609375;0.0;0.0;0.0
1363;0.0;0.0;0.0;0.12492799758911133;-0.11711999773979187;1.0501760244369507;0.0;0.0;0.0
1365;0.0;0.0;0.0;0.10247999429702759;-0.12492799758911133;1.0706720352172852;0.0;0.0;0.0
1368;-0.008051999844610691;0.013419999741017818;0.9279319643974304;0.10540799796581268;-0.1210239976644516;1.0706720352172852;6.549375057220459;17.9375;22.216251373291016
1370;0.0;0.0;0.0;0.13663999736309052;-0.15225599706172943;1.0550559759140015;0.0;0.0;0.0
1372;0.0;0.0;0.0;0.1483519971370697;-0.15225599706172943;1.0589599609375;0.0;0.0;0.0
1374;0.0;0.0;0.0;0.16787199676036835;-0.1483519971370697;1.066767930984497;0.0;0.0;0.0
1376;0.024399999529123306;-0.01512799970805645;0.929639995098114;0.1600639969110489;-0.16787199676036835;1.0628639459609985;3.3293750286102295;20.107500076293945;22.986249923706055
1378;0.0;0.0;0.0;0.1756799966096878;-0.17177599668502808;1.0628639459609985;0.0;0.0;0.0
1380;0.0;0.0;0.0;0.1600639969110489;-0.19129599630832672;1.066767930984497;0.0;0.0;0.0
1382;0.0;0.0;0.0;0.1600639969110489;-0.16787199676036835;1.0745760202407837;0.0;0.0;0.0
1385;0.0605119988322258;-0.040748000144958496;0.9381799697875977;0.187391996383667;-0.1756799966096878;1.066767930984497;1.2993749380111694;21.36750030517578;23.056251525878906
1387;0.0;0.0;0.0;0.20691199600696564;-0.19519999623298645;1.0628639459609985;0.0;0.0;0.0
1389;0.0;0.0;0.0;0.19129599630832672;-0.19129599630832672;1.0794559717178345;0.0;0.0;0.0
1391;0.0;0.0;0.0;0.20691199600696564;-0.20691199600696564;1.066767930984497;0.0;0.0;0.0
1393;0.10467600077390671;-0.05782799795269966;0.9459879994392395;0.2537599802017212;-0.187391996383667;1.0628639459609985;-0.38062500953674316;21.857500076293945;22.286251068115234
1395;0.0;0.0;0.0;0.27327999472618103;-0.22252799570560455;1.0589599609375;0.0;0.0;0.0
1397;0.0;0.0;0.0;0.29280000925064087;-0.21862399578094482;1.0462720394134521;0.0;0.0;0.0
1399;0.0;0.0;0.0;0.3201279938220978;-0.19910399615764618;1.0628639459609985;0.0;0.0;0.0
1402;0.1634799987077713;-0.0727119967341423;0.9342759847640991;0.28889599442481995;-0.23814399540424347;1.0550559759140015;-0.6606249809265137;22.207500457763672;21.166250228881836
1404;0.0;0.0;0.0;0.3201279938220978;-0.22252799570560455;1.0501760244369507;0.0;0.0;0.0
1406;0.0;0.0;0.0;0.3084160089492798;-0.20691199600696564;1.0462720394134521;0.0;0.0;0.0
1408;0.0;0.0;0.0;0.30451199412345886;-0.2147199958562851;1.0550559759140015;0.0;0.0;0.0
1410;0.19519999623298645;-0.08710800111293793;0.9220759868621826;0.2967039942741394;-0.23814399540424347;1.0384639501571655;0.31937500834465027;23.047500610351562;19.83625030517578
1412;0.0;0.0;0.0;0.34355199337005615;-0.2147199958562851;1.0462720394134521;0.0;0.0;0.0
1414;0.0;0.0;0.0;0.3201279938220978;-0.22643199563026428;1.034559965133667;0.0;0.0;0.0
1417;0.0;0.0;0.0;0.3123199939727783;-0.21862399578094482;1.002351999282837;0.0;0.0;0.0
1419;0.21447598934173584;-0.0907679945230484;0.9106079936027527;0.33183997869491577;-0.19910399615764618;1.0306559801101685;2.489374876022339;24.237499237060547;17.946250915527344
1421;0.0;0.0;0.0;0.35526400804519653;-0.19910399615764618;1.042367935180664;0.0;0.0;0.0
1423;0.0;0.0;0.0;0.38551998138427734;-0.19519999623298645;1.0384639501571655;0.0;0.0;0.0
1425;0.0;0.0;0.0;0.3699039816856384;-0.16396799683570862;1.0794559717178345;0.0;0.0;0.0
1427;0.24912399053573608;-0.049531999975442886;0.9291520118713379;0.37380799651145935;-0.18348799645900726;1.09116792678833;3.9593749046325684;25.917499542236328;16.826250076293945
1429;0.0;0.0;0.0;0.4089439809322357;-0.13663999736309052;1.0872639417648315;0.0;0.0;0.0
1431;0.0;0.0;0.0;0.38551998138427734;-0.1327359974384308;1.1028800010681152;0.0;0.0;0.0
1433;0.0;0.0;0.0;0.3777119815349579;-0.1483519971370697;1.1194720268249512;0.0;0.0;0.0
1436;0.2613239884376526;-0.017324000597000122;0.973315954208374;0.3777119815349579;-0.1600639969110489;1.1116639375686646;2.489374876022339;24.86750030517578;17.31624984741211
1438;0.0;0.0;0.0;0.3669759929180145;-0.16787199676036835;1.107759952545166;0.0;0.0;0.0
1440;0.0;0.0;0.0;0.3777119815349579;-0.15225599706172943;1.0950720310211182;0.0;0.0;0.0
1442;0.0;0.0;0.0;0.3933279812335968;-0.1756799966096878;1.0872639417648315;0.0;0.0;0.0
1444;0.27254799008369446;-0.01634800061583519;0.9708759784698486;0.436271995306015;-0.14054399728775024;1.066767930984497;-1.5706250667572021;21.787500381469727;16.126251220703125
1446;0.0;0.0;0.0;0.4596959948539734;-0.14444799721240997;1.0745760202407837;0.0;0.0;0.0
1448;0.0;0.0;0.0;0.42846399545669556;-0.13663999736309052;1.0745760202407837;0.0;0.0;0.0
1450;0.0;0.0;0.0;0.4440799951553345;-0.12883199751377106;1.0706720352172852;0.0;0.0;0.0
1453;0.33305999636650085;0.0024399999529123306;0.9535520076751709;0.4753119945526123;-0.10931199789047241;1.09116792678833;-5.840625286102295;20.037500381469727;14.376249313354492
1455;0.0;0.0;0.0;0.5182560086250305;-0.11321599781513214;1.066767930984497;0.0;0.0;0.0
1457;0.0;0.0;0.0;0.5338720083236694;-0.11321599781513214;1.0628639459609985;0.0;0.0;0.0
1459;0.0;0.0;0.0;0.5416799783706665;-0.10150399804115295;1.066767930984497;0.0;0.0;0.0
1461;0.4130919873714447;0.022204000502824783;0.9423279762268066;0.5690079927444458;-0.11711999773979187;1.066767930984497;-9.760624885559082;18.917499542236328;14.306249618530273
1463;0.0;0.0;0.0;0.5963360071182251;-0.08588799834251404;1.0550559759140015;0.0;0.0;0.0
1465;0.0;0.0;0.0;0.6002399921417236;-0.10540799796581268;1.042367935180664;0.0;0.0;0.0
1467;0.0;0.0;0.0;0.6002399921417236;-0.11711999773979187;1.0628639459609985;0.0;0.0;0.0
1470;0.4748239815235138;0.02391199953854084;0.941107988357544;0.611952006816864;-0.1210239976644516;1.0550559759140015;-13.400625228881836;18.84749984741211;16.826250076293945
1472;0.0;0.0;0.0;0.6041439771652222;-0.12883199751377106;1.066767930984497;0.0;0.0;0.0
1474;0.0;0.0;0.0;0.6314719915390015;-0.1483519971370697;1.0540800094604492;0.0;0.0;0.0
1476;0.0;0.0;0.0;0.6197599768638611;-0.12492799758911133;1.0540800094604492;0.0;0.0;0.0
1478;0.49605199694633484;0.0009759999811649323;0.9335439801216125;0.6197599768638611;-0.14054399728775024;1.066767930984497;-16.2706241607666;18.5674991607666;19.2762508392334
1480;0.0;0.0;0.0;0.6158559918403625;-0.14444799721240997;1.0501760244369507;0.0;0.0;0.0
1482;0.0;0.0;0.0;0.6539199948310852;-0.1327359974384308;1.0501760244369507;0.0;0.0;0.0
1484;0.0;0.0;0.0;0.6548959612846375;-0.1600639969110489;1.0589599609375;0.0;0.0;0.0
1487;0.5192319750785828;-0.015371999703347683;0.9318360090255737;0.6353759765625;-0.1600639969110489;1.0501760244369507;-18.440624237060547;20.52750015258789;20.396249771118164
1489;0.0;0.0;0.0;0.6500160098075867;-0.19129599630832672;1.0784800052642822;0.0;0.0;0.0
1491;0.0;0.0;0.0;0.6470879912376404;-0.19129599630832672;1.083359956741333;0.0;0.0;0.0
1493;0.0;0.0;0.0;0.6539199948310852;-0.19129599630832672;1.0794559717178345;0.0;0.0;0.0
1495;0.5121560096740723;-0.050995998084545135;0.9515999555587769;0.611952006816864;-0.19910399615764618;1.0745760202407837;-20.82062339782715;21.717500686645508;20.606250762939453
1497;0.0;0.0;0.0;0.6236639618873596;-0.22643199563026428;1.09116792678833;0.0;0.0;0.0
1499;0.0;0.0;0.0;0.6236639618873596;-0.23814399540424347;1.0794559717178345;0.0;0.0;0.0
1501;0.0;0.0;0.0;0.6041439771652222;-0.2420479953289032;1.0872639417648315;0.0;0.0;0.0
1504;0.5016639828681946;-0.09174399822950363;0.9606279730796814;0.611952006816864;-0.24595199525356293;1.0872639417648315;-22.990623474121094;22.34749984741211;17.736249923706055
1506;0.0;0.0;0.0;0.6080479621887207;-0.230335995554924;1.0950720310211182;0.0;0.0;0.0
1508;0.0;0.0;0.0;0.6236639618873596;-0.2420479953289032;1.09116792678833;0.0;0.0;0.0
1510;0.0;0.0;0.0;0.6197599768638611;-0.2576639950275421;1.1233760118484497;0.0;0.0;0.0
1512;0.5048359632492065;-0.12053599953651428;0.9772199988365173;0.6275680065155029;-0.2576639950275421;1.132159948348999;-23.480623245239258;23.1875;12.976249694824219
1514;0.0;0.0;0.0;0.6431840062141418;-0.27718400955200195;1.0989760160446167;0.0;0.0;0.0
1516;0.0;0.0;0.0;0.6509919762611389;-0.2693759799003601;1.1311839818954468;0.0;0.0;0.0
1518;0.0;0.0;0.0;0.6314719915390015;-0.27718400955200195;1.1477760076522827;0.0;0.0;0.0
1521;0.5172799825668335;-0.134443998336792;1.0011320114135742;0.6431840062141418;-0.2654719948768616;1.1438720226287842;-22.220624923706055;22.697500228881836;8.496249198913574
1523;0.0;0.0;0.0;0.6656320095062256;-0.27327999472618103;1.139967918395996;0.0;0.0;0.0
1525;0.0;0.0;0.0;0.6509919762611389;-0.284991979598999;1.115567922592163;0.0;0.0;0.0
1527;0.0;0.0;0.0;0.6509919762611389;-0.3123199939727783;1.1438720226287842;0.0;0.0;0.0
1529;0.5280159711837769;-0.14688800275325775;1.0130879878997803;0.6588000059127808;-0.2810879945755005;1.1438720226287842;-19.630624771118164;21.927499771118164;4.506249904632568
1531;0.0;0.0;0.0;0.6509919762611389;-0.29280000925064087;1.1360639333724976;0.0;0.0;0.0
1533;0.0;0.0;0.0;0.6314719915390015;-0.2810879945755005;1.139967918395996;0.0;0.0;0.0
1535;0.0;0.0;0.0;0.6578239798545837;-0.30451199412345886;1.1477760076522827;0.0;0.0;0.0
1538;0.5160599946975708;-0.14981599152088165;1.0223599672317505;0.6392799615859985;-0.2810879945755005;1.1721760034561157;-14.870625495910645;20.177499771118164;2.7562501430511475
1540;0.0;0.0;0.0;0.6041439771652222;-0.29280000925064087;1.1682720184326172;0.0;0.0;0.0
1542;0.0;0.0;0.0;0.611952006816864;-0.29280000925064087;1.1643680334091187;0.0;0.0;0.0
1544;0.0;0.0;0.0;0.6158559918403625;-0.2810879945755005;1.1643680334091187;0.0;0.0;0.0
1546;0.5043479800224304;-0.14420399069786072;1.0396839380264282;0.6002399921417236;-0.2654719948768616;1.180959939956665;-9.270625114440918;18.077499389648438;3.106250047683716
1548;0.0;0.0;0.0;0.6509919762611389;-0.2576639950275421;1.1477760076522827;0.0;0.0;0.0
1550;0.0;0.0;0.0;0.6275680065155029;-0.28889599442481995;1.1682720184326172;0.0;0.0;0.0
1553;0.0;0.0;0.0;0.6548959612846375;-0.2693759799003601;1.1555839776992798;0.0;0.0;0.0
1555;0.5314319729804993;-0.14298400282859802;1.0413919687271118;0.6773439645767212;-0.27718400955200195;1.1438720226287842;-3.1806249618530273;15.907500267028809;5.416250228881836
1557;0.0;0.0;0.0;0.6890559792518616;-0.27718400955200195;1.1516799926757812;0.0;0.0;0.0
1559;0.0;0.0;0.0;0.7046719789505005;-0.29280000925064087;1.1438720226287842;0.0;0.0;0.0
1561;0.0;0.0;0.0;0.6890559792518616;-0.2576639950275421;1.1721760034561157;0.0;0.0;0.0
1563;0.5694959759712219;-0.13688400387763977;1.0377320051193237;0.6890559792518616;-0.2576639950275421;1.1555839776992798;3.539375066757202;14.647500038146973;9.336249351501465
1565;0.0;0.0;0.0;0.685151994228363;-0.24985599517822266;1.1926720142364502;0.0;0.0;0.0
1567;0.0;0.0;0.0;0.6929599642753601;-0.27327999472618103;1.1721760034561157;0.0;0.0;0.0
1570;0.0;0.0;0.0;0.7202879786491394;-0.24595199525356293;1.1887680292129517;0.0;0.0;0.0
1572;0.5870639681816101;-0.12053599953651428;1.0474920272827148;0.7124800086021423;-0.2576639950275421;1.1799839735031128;7.599374771118164;13.947500228881836;13.186249732971191
1574;0.0;0.0;0.0;0.708575963973999;-0.24595199525356293;1.1887680292129517;0.0;0.0;0.0
1576;0.0;0.0;0.0;0.685151994228363;-0.2537599802017212;1.180959939956665;0.0;0.0;0.0
1578;0.0;0.0;0.0;0.6812480092048645;-0.2576639950275421;1.1887680292129517;0.0;0.0;0.0
1580;0.5731559991836548;-0.11858399957418442;1.0587159395217896;0.6890559792518616;-0.26156800985336304;1.1848639249801636;8.509374618530273;13.387499809265137;16.266250610351562
1582;0.0;0.0;0.0;0.6666079759597778;-0.2576639950275421;1.2043839693069458;0.0;0.0;0.0
1584;0.0;0.0;0.0;0.6548959612846375;-0.26156800985336304;1.2209759950637817;0.0;0.0;0.0
1587;0.0;0.0;0.0;0.6744160056114197;-0.2693759799003601;1.2170720100402832;0.0;0.0;0.0
1589;0.5541239976882935;-0.13639599084854126;1.0801880359649658;0.6695359945297241;-0.27327999472618103;1.2453759908676147;7.109375;11.287500381469727;16.756250381469727
1591;0.0;0.0;0.0;0.6666079759597778;-0.27327999472618103;1.2492799758911133;0.0;0.0;0.0
1593;0.0;0.0;0.0;0.6734399795532227;-0.28889599442481995;1.2492799758911133;0.0;0.0;0.0
1595;0.0;0.0;0.0;0.6656320095062256;-0.29280000925064087;1.2502559423446655;0.0;0.0;0.0
1597;0.5494880080223083;-0.15152399241924286;1.122156023979187;0.685151994228363;-0.28889599442481995;1.2697759866714478;2.6293749809265137;7.4375;16.40625
1599;0.0;0.0;0.0;0.6548959612846375;-0.3123199939727783;1.278559923171997;0.0;0.0;0.0
1601;0.0;0.0;0.0;0.6470879912376404;-0.34355199337005615;1.2736799716949463;0.0;0.0;0.0
1604;0.0;0.0;0.0;0.6890559792518616;-0.3396480083465576;1.2658720016479492;0.0;0.0;0.0
1606;0.5492439866065979;-0.18226799368858337;1.1419199705123901;0.685151994228363;-0.32793599367141724;1.254159927368164;-4.230625152587891;1.6975001096725464;16.056249618530273
1608;0.0;0.0;0.0;0.6548959612846375;-0.3630719780921936;1.2619680166244507;0.0;0.0;0.0
1610;0.0;0.0;0.0;0.6734399795532227;-0.3474559783935547;1.2619680166244507;0.0;0.0;0.0
1612;0.0;0.0;0.0;0.685151994228363;-0.3903999924659729;1.2697759866714478;0.0;0.0;0.0
1614;0.5453400015830994;-0.23545999825000763;1.1380159854888916;0.6705119609832764;-0.3903999924659729;1.2580640316009521;-9.830625534057617;-4.112500190734863;14.446249961853027
1616;0.0;0.0;0.0;0.6431840062141418;-0.42553597688674927;1.254159927368164;0.0;0.0;0.0
1618;0.0;0.0;0.0;0.6695359945297241;-0.4333440065383911;1.2658720016479492;0.0;0.0;0.0
1621;0.0;0.0;0.0;0.6617279648780823;-0.44896000623703003;1.2375680208206177;0.0;0.0;0.0
1623;0.5446079969406128;-0.30573198199272156;1.126547932624817;0.6431840062141418;-0.460671991109848;1.2492799758911133;-12.910625457763672;-8.662500381469727;11.366250038146973
1625;0.0;0.0;0.0;0.6734399795532227;-0.4958080053329468;1.2287839651107788;0.0;0.0;0.0
1627;0.0;0.0;0.0;0.6509919762611389;-0.5075199604034424;1.2375680208206177;0.0;0.0;0.0
1629;0.0;0.0;0.0;0.6275680065155029;-0.5192319750785828;1.2248799800872803;0.0;0.0;0.0
1631;0.5333839654922485;-0.3781999945640564;1.1128839254379272;0.6705119609832764;-0.5973119735717773;1.1848639249801636;-13.750624656677246;-11.602499961853027;7.376250267028809
1633;0.0;0.0;0.0;0.6431840062141418;-0.5934079885482788;1.1965759992599487;0.0;0.0;0.0
1635;0.0;0.0;0.0;0.6041439771652222;-0.4958080053329468;1.254159927368164;0.0;0.0;0.0
1638;0.0;0.0;0.0;0.6080479621887207;-0.5309439897537231;1.2658720016479492;0.0;0.0;0.0
1640;0.5150839686393738;-0.4228519797325134;1.0967799425125122;0.6470879912376404;-0.5777919888496399;1.229759931564331;-10.110625267028809;-14.052499771118164;1.6362500190734863
1642;0.0;0.0;0.0;0.6314719915390015;-0.5660799741744995;1.1965759992599487;0.0;0.0;0.0
1644;0.0;0.0;0.0;0.6578239798545837;-0.562175989151001;1.1887680292129517;0.0;0.0;0.0
1646;0.0;0.0;0.0;0.6041439771652222;-0.5582720041275024;1.205359935760498;0.0;0.0;0.0
1648;0.5038599967956543;-0.4260239899158478;1.0867760181427002;0.5846239924430847;-0.569983959197998;1.2248799800872803;-7.590625286102295;-15.662500381469727;-5.223750114440918
1650;0.0;0.0;0.0;0.5846239924430847;-0.569983959197998;1.2004799842834473;0.0;0.0;0.0
1652;0.0;0.0;0.0;0.5651040077209473;-0.5309439897537231;1.1721760034561157;0.0;0.0;0.0
1655;0.0;0.0;0.0;0.5807200074195862;-0.5504639744758606;1.1516799926757812;0.0;0.0;0.0
1657;0.46506398916244507;-0.419435977935791;1.0457839965820312;0.5651040077209473;-0.5114240050315857;1.1604639291763306;-1.8506250381469727;-17.762500762939453;-10.823750495910645
1659;0.0;0.0;0.0;0.5572959780693054;-0.5465599894523621;1.132159948348999;0.0;0.0;0.0
1661;0.0;0.0;0.0;0.545583963394165;-0.5426560044288635;1.1233760118484497;0.0;0.0;0.0
1663;0.0;0.0;0.0;0.5026400089263916;-0.5075199604034424;1.1194720268249512;0.0;0.0;0.0
1665;0.427731990814209;-0.39991599321365356;0.9999119639396667;0.5260639786720276;-0.5387519598007202;1.0989760160446167;6.759375095367432;-19.302499771118164;-19.363750457763672
1667;0.0;0.0;0.0;0.5143519639968872;-0.48799997568130493;1.1194720268249512;0.0;0.0;0.0
1669;0.0;0.0;0.0;0.5416799783706665;-0.48799997568130493;1.1311839818954468;0.0;0.0;0.0
1672;0.0;0.0;0.0;0.5533919930458069;-0.4684799909591675;1.1116639375686646;0.0;0.0;0.0
1674;0.40528398752212524;-0.35819199681282043;0.9996680021286011;0.545583963394165;-0.47628799080848694;1.0989760160446167;12.429374694824219;-18.88249969482422;-27.20374870300293
1676;0.0;0.0;0.0;0.5065439939498901;-0.460671991109848;1.132159948348999;0.0;0.0;0.0
1678;0.0;0.0;0.0;0.5299679636955261;-0.4411519765853882;1.107759952545166;0.0;0.0;0.0
1680;0.0;0.0;0.0;0.4753119945526123;-0.45286399126052856;1.1360639333724976;0.0;0.0;0.0
1682;0.3669759929180145;-0.31036800146102905;0.998691976070404;0.4714079797267914;-0.3903999924659729;1.1194720268249512;14.94937515258789;-17.412500381469727;-29.93375015258789
1685;0.0;0.0;0.0;0.4440799951553345;-0.4138239920139313;1.0989760160446167;0.0;0.0;0.0
1687;0.0;0.0;0.0;0.436271995306015;-0.40991997718811035;1.1194720268249512;0.0;0.0;0.0
1689;0.0;0.0;0.0;0.42846399545669556;-0.3903999924659729;1.115567922592163;0.0;0.0;0.0
1691;0.3274479806423187;-0.25400400161743164;0.9903959631919861;0.436271995306015;-0.3630719780921936;1.1116639375686646;16.419376373291016;-18.252500534057617;-32.10375213623047
1693;0.0;0.0;0.0;0.3972319960594177;-0.35916799306869507;1.1360639333724976;0.0;0.0;0.0
1695;0.0;0.0;0.0;0.4089439809322357;-0.3201279938220978;1.132159948348999;0.0;0.0;0.0
1697;0.0;0.0;0.0;0.4089439809322357;-0.34355199337005615;1.1438720226287842;0.0;0.0;0.0
1699;0.28474798798561096;-0.20032399892807007;1.0011320114135742;0.38942399621009827;-0.3123199939727783;1.1516799926757812;16.279375076293945;-18.952499389648438;-32.66374969482422
1701;0.0;0.0;0.0;0.3816159963607788;-0.3396480083465576;1.1272799968719482;0.0;0.0;0.0
1703;0.0;0.0;0.0;0.37380799651145935;-0.28889599442481995;1.132159948348999;0.0;0.0;0.0
1706;0.0;0.0;0.0;0.3396480083465576;-0.29280000925064087;1.1194720268249512;0.0;0.0;0.0
1708;0.2513200044631958;-0.17006799578666687;0.9923479557037354;0.3396480083465576;-0.30060797929763794;1.0950720310211182;13.339375495910645;-19.372499465942383;-32.243751525878906
1710;0.0;0.0;0.0;0.33183997869491577;-0.2693759799003601;1.1028800010681152;0.0;0.0;0.0
1712;0.0;0.0;0.0;0.3425759971141815;-0.27327999472618103;1.0989760160446167;0.0;0.0;0.0
1714;0.0;0.0;0.0;0.31622397899627686;-0.2654719948768616;1.0950720310211182;0.0;0.0;0.0
1716;0.20325200259685516;-0.14347200095653534;0.9796599745750427;0.33183997869491577;-0.26156800985336304;1.1028800010681152;9.979374885559082;-19.232500076293945;-32.313751220703125
1718;0.0;0.0;0.0;0.3084160089492798;-0.2654719948768616;1.1116639375686646;0.0;0.0;0.0
1721;0.0;0.0;0.0;0.2967039942741394;-0.22643199563026428;1.1067839860916138;0.0;0.0;0.0
1723;0.0;0.0;0.0;0.27327999472618103;-0.23814399540424347;1.0794559717178345;0.0;0.0;0.0
1725;0.1668960005044937;-0.1076039969921112;0.9730719923973083;0.2654719948768616;-0.24985599517822266;1.1272799968719482;6.409375190734863;-18.532499313354492;-31.75374984741211
1727;0.0;0.0;0.0;0.23814399540424347;-0.23814399540424347;1.0950720310211182;0.0;0.0;0.0
1729;0.0;0.0;0.0;0.2147199958562851;-0.26156800985336304;1.1028800010681152;0.0;0.0;0.0
1731;0.0;0.0;0.0;0.23423999547958374;-0.21862399578094482;1.0872639417648315;0.0;0.0;0.0
1733;0.1105320006608963;-0.09637999534606934;0.9659959673881531;0.20691199600696564;-0.230335995554924;1.0784800052642822;2.6293749809265137;-17.97249984741211;-30.91374969482422
1735;0.0;0.0;0.0;0.1756799966096878;-0.21862399578094482;1.0706720352172852;0.0;0.0;0.0
1737;0.0;0.0;0.0;0.17177599668502808;-0.2147199958562851;1.0501760244369507;0.0;0.0;0.0
1740;0.0;0.0;0.0;0.11711999773979187;-0.19910399615764618;1.0950720310211182;0.0;0.0;0.0
1742;0.04440800100564957;-0.06368400156497955;0.958187997341156;0.10931199789047241;-0.19129599630832672;1.0706720352172852;-0.940625011920929;-15.242500305175781;-30.563749313354492
1744;0.0;0.0;0.0;0.12492799758911133;-0.21081599593162537;1.1028800010681152;0.0;0.0;0.0
1746;0.0;0.0;0.0;0.11321599781513214;-0.15225599706172943;1.1028800010681152;0.0;0.0;0.0
1748;0.0;0.0;0.0;0.08295999467372894;-0.17177599668502808;1.0872639417648315;0.0;0.0;0.0
1750;-0.014151999726891518;-0.04025999829173088;0.9706319570541382;0.04782399907708168;-0.1600639969110489;1.0989760160446167;-4.020625114440918;-13.492500305175781;-29.653749465942383
1753;0.0;0.0;0.0;0.032207999378442764;-0.187391996383667;1.1233760118484497;0.0;0.0;0.0
1755;0.0;0.0;0.0;0.04001599922776222;-0.1600639969110489;1.1272799968719482;0.0;0.0;0.0
1757;0.0;0.0;0.0;0.05172799900174141;-0.16396799683570862;1.1233760118484497;0.0;0.0;0.0
1759;-0.07515199482440948;-0.03513599932193756;0.9813680052757263;0.0009759999811649323;-0.1600639969110489;1.0872639417648315;-5.840625286102295;-13.002500534057617;-27.34375
1761;0.0;0.0;0.0;-0.022447999566793442;-0.17958399653434753;1.0950720310211182;0.0;0.0;0.0
1763;0.0;0.0;0.0;-0.0302559994161129;-0.1600639969110489;1.107759952545166;0.0;0.0;0.0
1765;0.0;0.0;0.0;-0.04196799919009209;-0.17177599668502808;1.0989760160446167;0.0;0.0;0.0
1767;-0.14347200095653534;-0.03855200111865997;0.9730719923973083;-0.06539200246334076;-0.19910399615764618;1.0872639417648315;-6.050624847412109;-12.092499732971191;-23.70374870300293
1770;0.0;0.0;0.0;-0.053679998964071274;-0.1756799966096878;1.09116792678833;0.0;0.0;0.0
1772;0.0;0.0;0.0;-0.053679998964071274;-0.187391996383667;1.0745760202407837;0.0;0.0;0.0
1774;0.0;0.0;0.0;-0.10443200170993805;-0.1483519971370697;1.0784800052642822;0.0;0.0;0.0
1776;-0.2012999951839447;-0.04928799718618393;0.9515999555587769;-0.12785600125789642;-0.19519999623298645;1.083359956741333;-3.1806249618530273;-11.112500190734863;-19.153749465942383
1778;0.0;0.0;0.0;-0.16591998934745789;-0.17177599668502808;1.0794559717178345;0.0;0.0;0.0
1780;0.0;0.0;0.0;-0.15811198949813843;-0.17177599668502808;1.0950720310211182;0.0;0.0;0.0
1782;0.0;0.0;0.0;-0.17372798919677734;-0.17958399653434753;1.0784800052642822;0.0;0.0;0.0
1784;-0.28547999262809753;-0.04904399812221527;0.9533079862594604;-0.20105600357055664;-0.17958399653434753;1.083359956741333;2.6293749809265137;-10.90250015258789;-13.83375072479248
1787;0.0;0.0;0.0;-0.18934398889541626;-0.17958399653434753;1.083359956741333;0.0;0.0;0.0
1789;0.0;0.0;0.0;-0.17763200402259827;-0.1600639969110489;1.083359956741333;0.0;0.0;0.0
1791;0.0;0.0;0.0;-0.20105600357055664;-0.13663999736309052;1.0784800052642822;0.0;0.0;0.0
1793;-0.3306199908256531;-0.021715998649597168;0.9589200019836426;-0.2479040026664734;-0.1483519971370697;1.0989760160446167;9.069375038146973;-9.502500534057617;-9.633750915527344
1795;0.0;0.0;0.0;-0.2479040026664734;-0.1327359974384308;1.1116639375686646;0.0;0.0;0.0
1797;0.0;0.0;0.0;-0.2518079876899719;-0.1210239976644516;1.1272799968719482;0.0;0.0;0.0
1799;0.0;0.0;0.0;-0.25571200251579285;-0.10931199789047241;1.1233760118484497;0.0;0.0;0.0
1801;-0.38332399725914;-0.0012199999764561653;0.986735999584198;-0.2752319872379303;-0.1327359974384308;1.115567922592163;13.829375267028809;-8.382499694824219;-5.643750190734863
1804;0.0;0.0;0.0;-0.2791360020637512;-0.10931199789047241;1.1360639333724976;0.0;0.0;0.0
1806;0.0;0.0;0.0;-0.3025600016117096;-0.0936959981918335;1.139967918395996;0.0;0.0;0.0
1808;0.0;0.0;0.0;-0.3181760013103485;-0.10931199789047241;1.1360639333724976;0.0;0.0;0.0
1810;-0.4172399938106537;0.013663999736309052;1.0055240392684937;-0.31036800146102905;-0.11321599781513214;1.132159948348999;16.9793758392334;-10.132499694824219;-2.5637500286102295
1812;0.0;0.0;0.0;-0.3181760013103485;-0.09759999811649323;1.1477760076522827;0.0;0.0;0.0
1814;0.0;0.0;0.0;-0.3142719864845276;-0.11711999773979187;1.1272799968719482;0.0;0.0;0.0
1816;0.0;0.0;0.0;-0.2908479869365692;-0.09759999811649323;1.1555839776992798;0.0;0.0;0.0
1818;-0.4306599795818329;0.03537999838590622;1.0145519971847534;-0.31036800146102905;-0.07417599856853485;1.1272799968719482;16.83937644958496;-10.97249984741211;0.44624999165534973
1821;0.0;0.0;0.0;-0.29865598678588867;-0.10931199789047241;1.1360639333724976;0.0;0.0;0.0
1823;0.0;0.0;0.0;-0.31036800146102905;-0.08588799834251404;1.1311839818954468;0.0;0.0;0.0
1825;0.0;0.0;0.0;-0.3533119857311249;-0.0936959981918335;1.1194720268249512;0.0;0.0;0.0
1827;-0.4416399896144867;0.03611199930310249;1.0091840028762817;-0.3337920010089874;-0.08979199826717377;1.1116639375686646;13.899374961853027;-11.392499923706055;3.2462501525878906
1829;0.0;0.0;0.0;-0.33769598603248596;-0.11711999773979187;1.1116639375686646;0.0;0.0;0.0
1831;0.0;0.0;0.0;-0.32207998633384705;-0.10931199789047241;1.0950720310211182;0.0;0.0;0.0
1833;0.0;0.0;0.0;-0.31036800146102905;-0.10540799796581268;1.083359956741333;0.0;0.0;0.0
1835;-0.44139599800109863;0.019519999623298645;0.9838079810142517;-0.29475200176239014;-0.12883199751377106;1.1038559675216675;10.259374618530273;-11.742500305175781;5.556250095367432
1838;0.0;0.0;0.0;-0.3181760013103485;-0.13663999736309052;1.0989760160446167;0.0;0.0;0.0
1840;0.0;0.0;0.0;-0.31036800146102905;-0.12883199751377106;1.1116639375686646;0.0;0.0;0.0
1842;0.0;0.0;0.0;-0.3181760013103485;-0.1327359974384308;1.0950720310211182;0.0;0.0;0.0
1844;-0.43090400099754333;-0.015615999698638916;0.9720959663391113;-0.3025600016117096;-0.1756799966096878;1.083359956741333;6.899374961853027;-10.762499809265137;6.18625020980835
1846;0.0;0.0;0.0;-0.2479040026664734;-0.15615999698638916;1.1067839860916138;0.0;0.0;0.0
1848;0.0;0.0;0.0;-0.3025600016117096;-0.19910399615764618;1.09116792678833;0.0;0.0;0.0
1850;0.0;0.0;0.0;-0.28303998708724976;-0.16787199676036835;1.0989760160446167;0.0;0.0;0.0
1852;-0.40455198287963867;-0.03562399744987488;0.9750239849090576;-0.2869440019130707;-0.15225599706172943;1.107759952545166;4.029375076293945;-9.15250015258789;5.766250133514404
1855;0.0;0.0;0.0;-0.3025600016117096;-0.19129599630832672;1.1194720268249512;0.0;0.0;0.0
1857;0.0;0.0;0.0;-0.32598400115966797;-0.17958399653434753;1.1360639333724976;0.0;0.0;0.0
1859;0.0;0.0;0.0;-0.29475200176239014;-0.2147199958562851;1.1116639375686646;0.0;0.0;0.0
1861;-0.4189479947090149;-0.05953599885106087;1.0072319507598877;-0.2752319872379303;-0.230335995554924;1.1233760118484497;0.6693750023841858;-8.102499961853027;6.256249904632568
1863;0.0;0.0;0.0;-0.32207998633384705;-0.21081599593162537;1.1194720268249512;0.0;0.0;0.0
1865;0.0;0.0;0.0;-0.3142719864845276;-0.21081599593162537;1.132159948348999;0.0;0.0;0.0
1867;0.0;0.0;0.0;-0.3416000008583069;-0.23423999547958374;1.139967918395996;0.0;0.0;0.0
1869;-0.4572559893131256;-0.0861319974064827;1.013819932937622;-0.39137598872184753;-0.230335995554924;1.1516799926757812;-1.8506250381469727;-6.5625;6.536250114440918
1872;0.0;0.0;0.0;-0.3416000008583069;-0.21862399578094482;1.1643680334091187;0.0;0.0;0.0
1874;0.0;0.0;0.0;-0.3845439851284027;-0.22643199563026428;1.1682720184326172;0.0;0.0;0.0
1876;0.0;0.0;0.0;-0.4108960032463074;-0.24985599517822266;1.1643680334091187;0.0;0.0;0.0
1878;-0.5116679668426514;-0.10638399422168732;1.0326080322265625;-0.41870400309562683;-0.23423999547958374;1.1799839735031128;-3.2506251335144043;-5.022500038146973;5.626250267028809
1880;0.0;0.0;0.0;-0.4108960032463074;-0.2420479953289032;1.1760799884796143;0.0;0.0;0.0
1882;0.0;0.0;0.0;-0.43432000279426575;-0.28889599442481995;1.1555839776992798;0.0;0.0;0.0
1884;0.0;0.0;0.0;-0.4421280026435852;-0.2537599802017212;1.1721760034561157;0.0;0.0;0.0
1886;-0.5531479716300964;-0.12639199197292328;1.040903925895691;-0.4382239878177643;-0.3084160089492798;1.1799839735031128;-3.1806249618530273;-4.532500267028809;4.296249866485596
1889;0.0;0.0;0.0;-0.44993600249290466;-0.30451199412345886;1.132159948348999;0.0;0.0;0.0
1891;0.0;0.0;0.0;-0.46164798736572266;-0.30451199412345886;1.1604639291763306;0.0;0.0;0.0
1893;0.0;0.0;0.0;-0.44993600249290466;-0.29280000925064087;1.156559944152832;0.0;0.0;0.0
1895;-0.5926759839057922;-0.1681160032749176;1.0243120193481445;-0.4538399875164032;-0.30451199412345886;1.132159948348999;-1.080625057220459;-5.022500038146973;1.006250023841858
1897;0.0;0.0;0.0;-0.4304159879684448;-0.3201279938220978;1.115567922592163;0.0;0.0;0.0
1899;0.0;0.0;0.0;-0.41870400309562683;-0.2810879945755005;1.107759952545166;0.0;0.0;0.0
1901;0.0;0.0;0.0;-0.46164798736572266;-0.3123199939727783;1.115567922592163;0.0;0.0;0.0
1903;-0.5719360113143921;-0.1693359911441803;0.985759973526001;-0.42260798811912537;-0.29280000925064087;1.083359956741333;3.049375057220459;-3.4825000762939453;-4.943749904632568
1906;0.0;0.0;0.0;-0.4147999882698059;-0.3123199939727783;1.107759952545166;0.0;0.0;0.0
1908;0.0;0.0;0.0;-0.3962559998035431;-0.29280000925064087;1.107759952545166;0.0;0.0;0.0
1910;0.0;0.0;0.0;-0.3806400001049042;-0.2810879945755005;1.107759952545166;0.0;0.0;0.0
1912;-0.5389959812164307;-0.152988001704216;0.9769759774208069;-0.4001599848270416;-0.2693759799003601;1.0872639417648315;7.669374942779541;-2.012500047683716;-10.68375015258789
1914;0.0;0.0;0.0;-0.3689279854297638;-0.2537599802017212;1.115567922592163;0.0;0.0;0.0
1916;0.0;0.0;0.0;-0.36502400040626526;-0.23814399540424347;1.107759952545166;0.0;0.0;0.0
1918;0.0;0.0;0.0;-0.3533119857311249;-0.22252799570560455;1.1360639333724976;0.0;0.0;0.0
1920;-0.49312397837638855;-0.11394799500703812;0.9918599724769592;-0.34940800070762634;-0.23423999547958374;1.1233760118484497;12.079375267028809;-2.012500047683716;-14.673750877380371
1923;0.0;0.0;0.0;-0.3298879861831665;-0.20691199600696564;1.1477760076522827;0.0;0.0;0.0
1925;0.0;0.0;0.0;-0.3181760013103485;-0.187391996383667;1.1682720184326172;0.0;0.0;0.0
1927;0.0;0.0;0.0;-0.31036800146102905;-0.16787199676036835;1.1682720184326172;0.0;0.0;0.0
1929;-0.45188799500465393;-0.06026799976825714;1.0389519929885864;-0.3337920010089874;-0.16396799683570862;1.1848639249801636;12.569375038146973;-1.662500023841858;-16.63374900817871
1931;0.0;0.0;0.0;-0.31036800146102905;-0.17958399653434753;1.1887680292129517;0.0;0.0;0.0
1933;0.0;0.0;0.0;-0.31036800146102905;-0.15615999698638916;1.1926720142364502;0.0;0.0;0.0
1935;0.0;0.0;0.0;-0.2518079876899719;-0.1327359974384308;1.2209759950637817;0.0;0.0;0.0
1937;-0.4199239909648895;-0.019276000559329987;1.0738439559936523;-0.2752319872379303;-0.14054399728775024;1.2092639207839966;8.999375343322754;-2.3625001907348633;-15.6537504196167
1940;0.0;0.0;0.0;-0.2635200023651123;-0.1483519971370697;1.2004799842834473;0.0;0.0;0.0
1942;0.0;0.0;0.0;-0.2479040026664734;-0.12883199751377106;1.2248799800872803;0.0;0.0;0.0
1944;0.0;0.0;0.0;-0.2088640034198761;-0.12883199751377106;1.1887680292129517;0.0;0.0;0.0
1946;-0.37088000774383545;-0.005123999901115894;1.0728679895401;-0.21667200326919556;-0.11711999773979187;1.1760799884796143;3.3293750286102295;-2.992500066757202;-13.483750343322754
1948;0.0;0.0;0.0;-0.20495998859405518;-0.13663999736309052;1.1760799884796143;0.0;0.0;0.0
1950;0.0;0.0;0.0;-0.20105600357055664;-0.14054399728775024;1.1682720184326172;0.0;0.0;0.0
1952;0.0;0.0;0.0;-0.18934398889541626;-0.1327359974384308;1.1682720184326172;0.0;0.0;0.0
1954;-0.31622397899627686;-0.01439599972218275;1.0438319444656372;-0.17763200402259827;-0.15225599706172943;1.1516799926757812;-1.5006250143051147;-2.3625001907348633;-11.173750877380371
1957;0.0;0.0;0.0;-0.16201600432395935;-0.1600639969110489;1.139967918395996;0.0;0.0;0.0
1959;0.0;0.0;0.0;-0.16201600432395935;-0.1756799966096878;1.1438720226287842;0.0;0.0;0.0
1961;0.0;0.0;0.0;-0.1542080044746399;-0.17177599668502808;1.1233760118484497;0.0;0.0;0.0
1963;-0.2793799936771393;-0.035868000239133835;1.012355923652649;-0.13566400110721588;-0.17177599668502808;1.132159948348999;-3.880625009536743;-0.5425000190734863;-8.373750686645508
1965;0.0;0.0;0.0;-0.14737600088119507;-0.21081599593162537;1.0950720310211182;0.0;0.0;0.0
1967;0.0;0.0;0.0;-0.13176000118255615;-0.19519999623298645;1.107759952545166;0.0;0.0;0.0
1969;0.0;0.0;0.0;-0.13859200477600098;-0.17177599668502808;1.1272799968719482;0.0;0.0;0.0
1971;-0.26498398184776306;-0.049531999975442886;0.9799039959907532;-0.13176000118255615;-0.17958399653434753;1.0989760160446167;-3.1106250286102295;1.2075001001358032;-5.573750019073486
1974;0.0;0.0;0.0;-0.13176000118255615;-0.18348799645900726;1.0706720352172852;0.0;0.0;0.0
1976;0.0;0.0;0.0;-0.12004800140857697;-0.19519999623298645;1.0745760202407837;0.0;0.0;0.0
1978;0.0;0.0;0.0;-0.1239520013332367;-0.187391996383667;1.0706720352172852;0.0;0.0;0.0
1980;-0.25400400161743164;-0.046115998178720474;0.958187997341156;-0.11614400148391724;-0.17958399653434753;1.083359956741333;0.17937499284744263;2.047499895095825;-3.1937499046325684
1982;0.0;0.0;0.0;-0.10052800178527832;-0.16396799683570862;1.0794559717178345;0.0;0.0;0.0
1984;0.0;0.0;0.0;-0.09272000193595886;-0.1483519971370697;1.083359956741333;0.0;0.0;0.0
1986;0.0;0.0;0.0;-0.0849120020866394;-0.17958399653434753;1.0628639459609985;0.0;0.0;0.0
1988;-0.2176479995250702;-0.03806399926543236;0.9520879983901978;-0.053679998964071274;-0.17177599668502808;1.066767930984497;3.8893749713897705;3.1675000190734863;-1.653749942779541
1991;0.0;0.0;0.0;-0.06148799881339073;-0.1600639969110489;1.0745760202407837;0.0;0.0;0.0
1993;0.0;0.0;0.0;-0.045871999114751816;-0.15615999698638916;1.0745760202407837;0.0;0.0;0.0
1995;0.0;0.0;0.0;-0.022447999566793442;-0.1600639969110489;1.09116792678833;0.0;0.0;0.0
1997;-0.14932799339294434;-0.03294000029563904;0.9486719965934753;-0.010735999792814255;-0.16787199676036835;1.0745760202407837;6.549375057220459;5.547500133514404;-0.7437500357627869
1999;0.0;0.0;0.0;-0.006831999868154526;-0.17958399653434753;1.0784800052642822;0.0;0.0;0.0
2001;0.0;0.0;0.0;0.04782399907708168;-0.16787199676036835;1.0745760202407837;0.0;0.0;0.0
2003;0.0;0.0;0.0;0.04391999915242195;-0.16787199676036835;1.0462720394134521;0.0;0.0;0.0
2005;-0.09686800092458725;-0.02122800052165985;0.9472079873085022;0.0634399950504303;-0.14054399728775024;1.0706720352172852;7.179375171661377;8.977499961853027;0.16624999046325684
2008;0.0;0.0;0.0;0.07905599474906921;-0.16787199676036835;1.0462720394134521;0.0;0.0;0.0
2010;0.0;0.0;0.0;0.0634399950504303;-0.18348799645900726;1.0550559759140015;0.0;0.0;0.0
2012;0.0;0.0;0.0;0.0634399950504303;-0.1483519971370697;1.0462720394134521;0.0;0.0;0.0
2014;-0.052216000854969025;-0.019763998687267303;0.9315919876098633;0.0907679945230484;-0.15615999698638916;1.0628639459609985;6.689374923706055;13.2475004196167;1.0762500762939453
2016;0.0;0.0;0.0;0.0907679945230484;-0.14444799721240997;1.0706720352172852;0.0;0.0;0.0
2018;0.0;0.0;0.0;0.08295999467372894;-0.12883199751377106;1.0784800052642822;0.0;0.0;0.0
2020;0.0;0.0;0.0;0.06734399497509003;-0.14054399728775024;1.0589599609375;0.0;0.0;0.0
2022;-0.043431997299194336;-0.014639999717473984;0.9398880004882812;0.07515199482440948;-0.13663999736309052;1.0589599609375;5.63937520980835;16.397499084472656;2.6862499713897705
2025;0.0;0.0;0.0;0.07515199482440948;-0.15225599706172943;1.0501760244369507;0.0;0.0;0.0
2027;0.0;0.0;0.0;0.07515199482440948;-0.14444799721240997;1.0550559759140015;0.0;0.0;0.0
2029;0.0;0.0;0.0;0.07124799489974976;-0.1483519971370697;1.0706720352172852;0.0;0.0;0.0
2031;-0.05245999991893768;-0.01195599976927042;0.9335439801216125;0.07027199864387512;-0.12883199751377106;1.0306559801101685;5.07937479019165;17.237499237060547;3.596250057220459
2033;0.0;0.0;0.0;0.08295999467372894;-0.1327359974384308;1.0706720352172852;0.0;0.0;0.0
2035;0.0;0.0;0.0;0.09467199444770813;-0.1327359974384308;1.066767930984497;0.0;0.0;0.0
2037;0.0;0.0;0.0;0.10540799796581268;-0.11711999773979187;1.0501760244369507;0.0;0.0;0.0
2039;-0.02903600037097931;0.0029279999434947968;0.9308599829673767;0.10150399804115295;-0.1483519971370697;1.0589599609375;5.779375076293945;17.02750015258789;4.786250114440918
2042;0.0;0.0;0.0;0.14054399728775024;-0.12883199751377106;1.0540800094604492;0.0;0.0;0.0
2044;0.0;0.0;0.0;0.12883199751377106;-0.10931199789047241;1.0794559717178345;0.0;0.0;0.0
2046;0.0;0.0;0.0;0.1210239976644516;-0.12883199751377106;1.0550559759140015;0.0;0.0;0.0
2048;0.00878399983048439;0.006587999872863293;0.9386679530143738;0.16787199676036835;-0.10150399804115295;1.0745760202407837;6.619375228881836;17.09749984741211;7.446249961853027
2050;0.0;0.0;0.0;0.15225599706172943;-0.10540799796581268;1.066767930984497;0.0;0.0;0.0
2052;0.0;0.0;0.0;0.18348799645900726;-0.14054399728775024;1.0462720394134521;0.0;0.0;0.0
2054;0.0;0.0;0.0;0.2030079960823059;-0.10150399804115295;1.0745760202407837;0.0;0.0;0.0
2056;0.06392800062894821;0.013663999736309052;0.9474520087242126;0.1756799966096878;-0.09759999811649323;1.0950720310211182;6.619375228881836;16.747499465942383;11.086249351501465
2059;0.0;0.0;0.0;0.22252799570560455;-0.09759999811649323;1.0784800052642822;0.0;0.0;0.0
2061;0.0;0.0;0.0;0.26156800985336304;-0.10931199789047241;1.0589599609375;0.0;0.0;0.0
2063;0.0;0.0;0.0;0.24595199525356293;-0.10931199789047241;1.0628639459609985;0.0;0.0;0.0
2065;0.12809999287128448;0.026839999482035637;0.9430599808692932;0.2967039942741394;-0.09759999811649323;1.0745760202407837;4.939374923706055;16.607500076293945;14.446249961853027
2067;0.0;0.0;0.0;0.30060797929763794;-0.0936959981918335;1.0384639501571655;0.0;0.0;0.0
2069;0.0;0.0;0.0;0.32793599367141724;-0.1210239976644516;1.0501760244369507;0.0;0.0;0.0
2071;0.0;0.0;0.0;0.3396480083465576;-0.10150399804115295;1.0257760286331177;0.0;0.0;0.0
2073;0.2117919921875;0.03147599846124649;0.9303719997406006;0.38551998138427734;-0.08588799834251404;1.0589599609375;2.2793750762939453;17.727500915527344;16.33625030517578
2076;0.0;0.0;0.0;0.3777119815349579;-0.08198399841785431;1.0550559759140015;0.0;0.0;0.0
2078;0.0;0.0;0.0;0.4323679804801941;-0.12492799758911133;1.0501760244369507;0.0;0.0;0.0
2080;0.0;0.0;0.0;0.45579198002815247;-0.10931199789047241;1.034559965133667;0.0;0.0;0.0
2082;0.29060399532318115;0.0287919994443655;0.9230519533157349;0.46750399470329285;-0.10931199789047241;1.0296800136566162;-1.2206250429153442;19.267499923706055;18.15625
2084;0.0;0.0;0.0;0.4714079797267914;-0.08979199826717377;1.017967939376831;0.0;0.0;0.0
2086;0.0;0.0;0.0;0.4987359941005707;-0.11711999773979187;1.0384639501571655;0.0;0.0;0.0
2088;0.0;0.0;0.0;0.4596959948539734;-0.10540799796581268;1.042367935180664;0.0;0.0;0.0
2090;0.3518480062484741;0.0348920002579689;0.9059720039367676;0.46750399470329285;-0.09759999811649323;1.0589599609375;-4.370625019073486;22.207500457763672;20.326250076293945
2093;0.0;0.0;0.0;0.4635999798774719;-0.1210239976644516;1.0462720394134521;0.0;0.0;0.0
2095;0.0;0.0;0.0;0.4909279942512512;-0.0936959981918335;1.0218719244003296;0.0;0.0;0.0
2097;0.0;0.0;0.0;0.5260639786720276;-0.0936959981918335;1.0140639543533325;0.0;0.0;0.0
2099;0.38478800654411316;0.032207999378442764;0.8996279835700989;0.537775993347168;-0.08588799834251404;0.9974719882011414;-6.890625;23.887500762939453;19.83625030517578
2101;0.0;0.0;0.0;0.47921597957611084;-0.08979199826717377;0.9974719882011414;0.0;0.0;0.0
2103;0.0;0.0;0.0;0.5338720083236694;-0.062463998794555664;1.042367935180664;0.0;0.0;0.0
2105;0.0;0.0;0.0;0.5182560086250305;-0.08198399841785431;1.042367935180664;0.0;0.0;0.0
2107;0.4106519818305969;0.0500199981033802;0.9069479703903198;0.5690079927444458;-0.08588799834251404;1.042367935180664;-8.850625038146973;26.337499618530273;18.15625
2110;0.0;0.0;0.0;0.6002399921417236;-0.10540799796581268;1.0218719244003296;0.0;0.0;0.0
2112;0.0;0.0;0.0;0.5729119777679443;-0.10150399804115295;1.0384639501571655;0.0;0.0;0.0
2114;0.0;0.0;0.0;0.5924319624900818;-0.08198399841785431;1.0540800094604492;0.0;0.0;0.0
2116;0.4660399854183197;0.044652000069618225;0.9157319664955139;0.611952006816864;-0.0936959981918335;1.034559965133667;-11.30062484741211;27.737499237060547;16.756250381469727
2118;0.0;0.0;0.0;0.5963360071182251;-0.11711999773979187;1.0628639459609985;0.0;0.0;0.0
2120;0.0;0.0;0.0;0.5572959780693054;-0.11711999773979187;1.0784800052642822;0.0;0.0;0.0
2122;0.0;0.0;0.0;0.46750399470329285;-0.062463998794555664;1.1028800010681152;0.0;0.0;0.0
2124;0.43724799156188965;0.044895999133586884;0.945743978023529;0.5651040077209473;-0.08198399841785431;1.0589599609375;-13.960624694824219;28.857500076293945;15.356249809265137
2127;0.0;0.0;0.0;0.6158559918403625;-0.09759999811649323;1.0589599609375;0.0;0.0;0.0
2129;0.0;0.0;0.0;0.5963360071182251;-0.1483519971370697;1.0745760202407837;0.0;0.0;0.0
2131;0.0;0.0;0.0;0.5690079927444458;-0.11711999773979187;1.1116639375686646;0.0;0.0;0.0
2133;0.4701879918575287;0.020739998668432236;0.9518439769744873;0.6197599768638611;-0.10150399804115295;1.1028800010681152;-17.040624618530273;27.107500076293945;9.826250076293945
2135;0.0;0.0;0.0;0.6236639618873596;-0.0936959981918335;1.0950720310211182;0.0;0.0;0.0
2137;0.0;0.0;0.0;0.6431840062141418;-0.14054399728775024;1.0872639417648315;0.0;0.0;0.0
2139;0.0;0.0;0.0;0.7202879786491394;-0.12492799758911133;1.0872639417648315;0.0;0.0;0.0
2141;0.5382639765739441;0.013907999731600285;0.9601399898529053;0.7241919636726379;-0.17177599668502808;1.0706720352172852;-18.650623321533203;27.247499465942383;7.166250228881836
2144;0.0;0.0;0.0;0.7124800086021423;-0.11321599781513214;1.09116792678833;0.0;0.0;0.0
2146;0.0;0.0;0.0;0.7280960083007812;-0.14444799721240997;1.0784800052642822;0.0;0.0;0.0
2148;0.0;0.0;0.0;0.708575963973999;-0.14054399728775024;1.0950720310211182;0.0;0.0;0.0
2150;0.590723991394043;0.003659999929368496;0.9589200019836426;0.7359039783477783;-0.1327359974384308;1.0745760202407837;-18.440624237060547;28.087499618530273;8.8462495803833
2152;0.0;0.0;0.0;0.6968640089035034;-0.1327359974384308;1.0794559717178345;0.0;0.0;0.0
2154;0.0;0.0;0.0;0.7241919636726379;-0.13663999736309052;1.083359956741333;0.0;0.0;0.0
2156;0.0;0.0;0.0;0.7319999933242798;-0.14054399728775024;1.0989760160446167;0.0;0.0;0.0
2159;0.5978000164031982;0.0058559998869895935;0.9589200019836426;0.7241919636726379;-0.13663999736309052;1.09116792678833;-15.500624656677246;27.247499465942383;10.246249198913574
2161;0.0;0.0;0.0;0.7515199780464172;-0.14054399728775024;1.107759952545166;0.0;0.0;0.0
2163;0.0;0.0;0.0;0.7437120079994202;-0.10931199789047241;1.1116639375686646;0.0;0.0;0.0
2165;0.0;0.0;0.0;0.7710399627685547;-0.14444799721240997;1.1067839860916138;0.0;0.0;0.0
2167;0.6302520036697388;0.0019519999623298645;0.981611967086792;0.7827519774436951;-0.1600639969110489;1.107759952545166;-12.7006254196167;27.457500457763672;11.226249694824219
2169;0.0;0.0;0.0;0.774944007396698;-0.16396799683570862;1.107759952545166;0.0;0.0;0.0
2171;0.0;0.0;0.0;0.7671359777450562;-0.15225599706172943;1.1194720268249512;0.0;0.0;0.0
2173;0.0;0.0;0.0;0.7944639921188354;-0.16396799683570862;1.1438720226287842;0.0;0.0;0.0
2176;0.6634359955787659;-0.02513200044631958;0.9938119649887085;0.8022719621658325;-0.16396799683570862;1.139967918395996;-9.970624923706055;27.947500228881836;14.586249351501465
2178;0.0;0.0;0.0;0.8178879618644714;-0.17958399653434753;1.115567922592163;0.0;0.0;0.0
2180;0.0;0.0;0.0;0.8100799918174744;-0.18348799645900726;1.1233760118484497;0.0;0.0;0.0
2182;0.0;0.0;0.0;0.798367977142334;-0.17177599668502808;1.1116639375686646;0.0;0.0;0.0
2184;0.6929599642753601;-0.04416399821639061;0.9933239817619324;0.7866559624671936;-0.19129599630832672;1.0989760160446167;-6.820625305175781;29.417499542236328;16.33625030517578
2186;0.0;0.0;0.0;0.7905600070953369;-0.20691199600696564;1.1360639333724976;0.0;0.0;0.0
2188;0.0;0.0;0.0;0.8217920064926147;-0.19910399615764618;1.1516799926757812;0.0;0.0;0.0
2190;0.0;0.0;0.0;0.798367977142334;-0.20691199600696564;1.1477760076522827;0.0;0.0;0.0
2193;0.6719759702682495;-0.06417199969291687;1.020651936531067;0.7866559624671936;-0.21862399578094482;1.1555839776992798;-3.530625104904175;30.25749969482422;17.946250915527344
2195;0.0;0.0;0.0;0.7710399627685547;-0.20691199600696564;1.180959939956665;0.0;0.0;0.0
2197;0.0;0.0;0.0;0.7671359777450562;-0.23814399540424347;1.1682720184326172;0.0;0.0;0.0
2199;0.0;0.0;0.0;0.774944007396698;-0.2420479953289032;1.1760799884796143;0.0;0.0;0.0
2201;0.6519680023193359;-0.08369199931621552;1.0474920272827148;0.7476159930229187;-0.22643199563026428;1.1926720142364502;-1.2906250953674316;29.417499542236328;17.876251220703125
2203;0.0;0.0;0.0;0.774944007396698;-0.230335995554924;1.1926720142364502;0.0;0.0;0.0
2205;0.0;0.0;0.0;0.7398079633712769;-0.23814399540424347;1.1848639249801636;0.0;0.0;0.0
2207;0.0;0.0;0.0;0.7671359777450562;-0.2576639950275421;1.2131680250167847;0.0;0.0;0.0
2210;0.639523983001709;-0.1088239997625351;1.0731120109558105;0.7515199780464172;-0.26156800985336304;1.2131680250167847;-0.030625000596046448;27.52750015258789;16.40625
2212;0.0;0.0;0.0;0.7554239630699158;-0.24985599517822266;1.2092639207839966;0.0;0.0;0.0
2214;0.0;0.0;0.0;0.7554239630699158;-0.2576639950275421;1.2375680208206177;0.0;0.0;0.0
2216;0.0;0.0;0.0;0.7593280076980591;-0.27718400955200195;1.2414720058441162;0.0;0.0;0.0
2218;0.6265919804573059;-0.1327359974384308;1.101415991783142;0.7437120079994202;-0.2654719948768616;1.229759931564331;0.9493749737739563;24.517499923706055;15.146249771118164
2220;0.0;0.0;0.0;0.7593280076980591;-0.27718400955200195;1.254159927368164;0.0;0.0;0.0
2222;0.0;0.0;0.0;0.7554239630699158;-0.2967039942741394;1.2248799800872803;0.0;0.0;0.0
2224;0.0;0.0;0.0;0.7476159930229187;-0.2810879945755005;1.254159927368164;0.0;0.0;0.0
2227;0.6246399879455566;-0.15323199331760406;1.129963994026184;0.7632319927215576;-0.3123199939727783;1.2658720016479492;0.6693750023841858;21.297500610351562;14.516249656677246
2229;0.0;0.0;0.0;0.7398079633712769;-0.3123199939727783;1.2697759866714478;0.0;0.0;0.0
2231;0.0;0.0;0.0;0.7632319927215576;-0.30060797929763794;1.2941759824752808;0.0;0.0;0.0
2233;0.0;0.0;0.0;0.7280960083007812;-0.3513599932193756;1.30295991897583;0.0;0.0;0.0
2235;0.6212239861488342;-0.18690399825572968;1.152899980545044;0.7593280076980591;-0.3357439935207367;1.2824640274047852;-0.24062499403953552;18.147499084472656;14.726249694824219
2237;0.0;0.0;0.0;0.7241919636726379;-0.35916799306869507;1.3263839483261108;0.0;0.0;0.0
2239;0.0;0.0;0.0;0.708575963973999;-0.3786879777908325;1.2863680124282837;0.0;0.0;0.0
2241;0.0;0.0;0.0;0.7241919636726379;-0.38259199261665344;1.3068640232086182;0.0;0.0;0.0
2244;0.6041439771652222;-0.23838800191879272;1.1629040241241455;0.708575963973999;-0.39820799231529236;1.2863680124282837;-0.4506250023841858;14.507499694824219;14.446249961853027
2246;0.0;0.0;0.0;0.7202879786491394;-0.4138239920139313;1.2863680124282837;0.0;0.0;0.0
2248;0.0;0.0;0.0;0.6968640089035034;-0.42553597688674927;1.2980799674987793;0.0;0.0;0.0
2250;0.0;0.0;0.0;0.6929599642753601;-0.4567679762840271;1.2697759866714478;0.0;0.0;0.0
2252;0.5768159627914429;-0.29475200176239014;1.1604639291763306;0.6929599642753601;-0.44896000623703003;1.2941759824752808;0.9493749737739563;10.657500267028809;12.3462495803833
2254;0.0;0.0;0.0;0.6744160056114197;-0.48019200563430786;1.2902719974517822;0.0;0.0;0.0
2256;0.0;0.0;0.0;0.6812480092048645;-0.46457600593566895;1.2824640274047852;0.0;0.0;0.0
2258;0.0;0.0;0.0;0.6705119609832764;-0.5036159753799438;1.2775839567184448;0.0;0.0;0.0
2261;0.5553439855575562;-0.33720800280570984;1.1560720205307007;0.6617279648780823;-0.47628799080848694;1.2736799716949463;4.029375076293945;6.947499752044678;8.776249885559082
2263;0.0;0.0;0.0;0.6627039909362793;-0.4958080053329468;1.2658720016479492;0.0;0.0;0.0
2265;0.0;0.0;0.0;0.6548959612846375;-0.48799997568130493;1.2697759866714478;0.0;0.0;0.0
2267;0.0;0.0;0.0;0.6656320095062256;-0.5036159753799438;1.2658720016479492;0.0;0.0;0.0
2269;0.5394839644432068;-0.35526400804519653;1.1470439434051514;0.6548959612846375;-0.4684799909591675;1.2658720016479492;7.809374809265137;3.237499952316284;4.016250133514404
2272;0.0;0.0;0.0;0.6461119651794434;-0.4997119903564453;1.2580640316009521;0.0;0.0;0.0
2273;0.0;0.0;0.0;0.6509919762611389;-0.4684799909591675;1.2658720016479492;0.0;0.0;0.0
2275;0.0;0.0;0.0;0.6431840062141418;-0.48019200563430786;1.2658720016479492;0.0;0.0;0.0
2278;0.5248439908027649;-0.34989598393440247;1.1306959390640259;0.6588000059127808;-0.47628799080848694;1.2375680208206177;11.379375457763672;-0.4724999964237213;-1.5837500095367432
2280;0.0;0.0;0.0;0.6470879912376404;-0.45286399126052856;1.2492799758911133;0.0;0.0;0.0
2282;0.0;0.0;0.0;0.6353759765625;-0.46457600593566895;1.254159927368164;0.0;0.0;0.0
2284;0.0;0.0;0.0;0.6236639618873596;-0.46457600593566895;1.2248799800872803;0.0;0.0;0.0
2286;0.5121560096740723;-0.32549598813056946;1.1121519804000854;0.6158559918403625;-0.4411519765853882;1.229759931564331;13.969374656677246;-3.692500114440918;-7.953750133514404
2288;0.0;0.0;0.0;0.6236639618873596;-0.43724799156188965;1.2248799800872803;0.0;0.0;0.0
2290;0.0;0.0;0.0;0.6197599768638611;-0.42553597688674927;1.229759931564331;0.0;0.0;0.0
2292;0.0;0.0;0.0;0.5846239924430847;-0.4177280068397522;1.2209759950637817;0.0;0.0;0.0
2295;0.48555999994277954;-0.29767999053001404;1.099463939666748;0.5729119777679443;-0.42553597688674927;1.2336640357971191;15.369375228881836;-6.84250020980835;-14.533750534057617
2297;0.0;0.0;0.0;0.5729119777679443;-0.40991997718811035;1.2170720100402832;0.0;0.0;0.0
2299;0.0;0.0;0.0;0.561199963092804;-0.4021120071411133;1.2092639207839966;0.0;0.0;0.0
2301;0.0;0.0;0.0;0.537775993347168;-0.40991997718811035;1.1965759992599487;0.0;0.0;0.0
2303;0.44944798946380615;-0.2727919816970825;1.0882400274276733;0.537775993347168;-0.39820799231529236;1.2170720100402832;16.139375686645508;-10.6225004196167;-19.853750228881836
2305;0.0;0.0;0.0;0.5690079927444458;-0.3786879777908325;1.205359935760498;0.0;0.0;0.0
2307;0.0;0.0;0.0;0.537775993347168;-0.3630719780921936;1.205359935760498;0.0;0.0;0.0
2309;0.0;0.0;0.0;0.5026400089263916;-0.37088000774383545;1.2043839693069458;0.0;0.0;0.0
2312;0.4126040041446686;-0.2454639971256256;1.0728679895401;0.5260639786720276;-0.35526400804519653;1.1799839735031128;16.69937515258789;-15.382499694824219;-23.283748626708984
2314;0.0;0.0;0.0;0.5065439939498901;-0.35916799306869507;1.1721760034561157;0.0;0.0;0.0
2316;0.0;0.0;0.0;0.5065439939498901;-0.35916799306869507;1.1721760034561157;0.0;0.0;0.0
2318;0.0;0.0;0.0;0.522159993648529;-0.34355199337005615;1.1555839776992798;0.0;0.0;0.0
2320;0.39869600534439087;-0.22081999480724335;1.0404160022735596;0.5065439939498901;-0.3513599932193756;1.1516799926757812;16.629375457763672;-19.9325008392334;-25.733749389648438
2322;0.0;0.0;0.0;0.5260639786720276;-0.3357439935207367;1.1438720226287842;0.0;0.0;0.0
2324;0.0;0.0;0.0;0.522159993648529;-0.3396480083465576;1.1233760118484497;0.0;0.0;0.0
2327;0.0;0.0;0.0;0.5026400089263916;-0.3513599932193756;1.0872639417648315;0.0;0.0;0.0
2329;0.403331995010376;-0.20178799331188202;0.9945439696311951;0.4987359941005707;-0.29280000925064087;1.139967918395996;16.629375457763672;-22.872499465942383;-27.34375
2331;0.0;0.0;0.0;0.5338720083236694;-0.3240320086479187;1.083359956741333;0.0;0.0;0.0
2333;0.0;0.0;0.0;0.5065439939498901;-0.3201279938220978;1.083359956741333;0.0;0.0;0.0
2335;0.0;0.0;0.0;0.5143519639968872;-0.32793599367141724;1.0872639417648315;0.0;0.0;0.0
2337;0.39991599321365356;-0.17665599286556244;0.9642879962921143;0.5104479789733887;-0.3201279938220978;1.066767930984497;15.929375648498535;-23.572500228881836;-28.25374984741211
2339;0.0;0.0;0.0;0.5182560086250305;-0.28889599442481995;1.0628639459609985;0.0;0.0;0.0
2341;0.0;0.0;0.0;0.4909279942512512;-0.284991979598999;1.09116792678833;0.0;0.0;0.0
2344;0.0;0.0;0.0;0.4870239794254303;-0.2693759799003601;1.0745760202407837;0.0;0.0;0.0
2346;0.374783992767334;-0.15908800065517426;0.9401319622993469;0.4635999798774719;-0.26156800985336304;1.066767930984497;15.229374885559082;-22.662500381469727;-28.04374885559082
2348;0.0;0.0;0.0;0.4440799951553345;-0.28889599442481995;1.0628639459609985;0.0;0.0;0.0
2350;0.0;0.0;0.0;0.4167519807815552;-0.29280000925064087;1.0706720352172852;0.0;0.0;0.0
2352;0.0;0.0;0.0;0.4206559956073761;-0.27327999472618103;1.0589599609375;0.0;0.0;0.0
2354;0.3079279959201813;-0.1332239955663681;0.9367159605026245;0.3972319960594177;-0.27327999472618103;1.0706720352172852;14.529375076293945;-21.752500534057617;-29.583749771118164
2356;0.0;0.0;0.0;0.40113598108291626;-0.230335995554924;1.0784800052642822;0.0;0.0;0.0
2358;0.0;0.0;0.0;0.3699039816856384;-0.2537599802017212;1.0784800052642822;0.0;0.0;0.0
2361;0.0;0.0;0.0;0.37380799651145935;-0.20691199600696564;1.0745760202407837;0.0;0.0;0.0
2363;0.2588839828968048;-0.10369999706745148;0.9501360058784485;0.3630719780921936;-0.22252799570560455;1.0784800052642822;12.709375381469727;-22.592500686645508;-30.77375030517578
2365;0.0;0.0;0.0;0.3669759929180145;-0.2420479953289032;1.0745760202407837;0.0;0.0;0.0
2367;0.0;0.0;0.0;0.33183997869491577;-0.21862399578094482;1.0745760202407837;0.0;0.0;0.0
2369;0.0;0.0;0.0;0.3084160089492798;-0.22252799570560455;1.0706720352172852;0.0;0.0;0.0
2371;0.21789199113845825;-0.08369199931621552;0.9494040012359619;0.28889599442481995;-0.21862399578094482;1.0589599609375;9.209375381469727;-23.502500534057617;-27.553749084472656
2373;0.0;0.0;0.0;0.27327999472618103;-0.19129599630832672;1.0589599609375;0.0;0.0;0.0
2375;0.0;0.0;0.0;0.24595199525356293;-0.17958399653434753;1.066767930984497;0.0;0.0;0.0
2378;0.0;0.0;0.0;0.21862399578094482;-0.187391996383667;1.0384639501571655;0.0;0.0;0.0
2380;0.13298000395298004;-0.0663679987192154;0.9271999597549438;0.23814399540424347;-0.16787199676036835;1.0628639459609985;6.409375190734863;-24.762500762939453;-27.13374900817871
