Timestamp(ms);LG-Accel x(g);LG-Accel y(g);LG-Accel z(g);HG-Accel x(g);HG-Accel y(g);HG-Accel z(g);Gyro x(dps);Gyro y(dps);Gyro z(dps)
93;0.0;0.0;0.0;0.39235198497772217;-0.06148799881339073;1.124351978302002;0.0;0.0;0.0
95;0.0;0.0;0.0;0.4509119987487793;-0.06148799881339073;1.1331360340118408;0.0;0.0;0.0
97;0.0;0.0;0.0;0.44310399889945984;-0.014639999717473984;1.1575360298156738;0.0;0.0;0.0
99;0.0;0.0;0.0;0.423583984375;-0.0302559994161129;1.1692479848861694;0.0;0.0;0.0
101;0.0;0.0;0.0;0.4626239836215973;-0.0302559994161129;1.173151969909668;0.0;0.0;0.0
103;0.0;0.0;0.0;0.4382239878177643;-0.024399999529123306;1.1663199663162231;0.0;0.0;0.0
105;0.0;0.0;0.0;0.4147999882698059;-0.05172799900174141;1.182911992073059;0.0;0.0;0.0
108;0.0;0.0;0.0;0.44993600249290466;-0.05563199892640114;1.1380159854888916;0.0;0.0;0.0
110;0.33086398243904114;0.08442399650812149;1.0418800115585327;0.5163040161132812;-0.06734399497509003;1.1546080112457275;0.0;0.0;0.0
112;0.0;0.0;0.0;0.5241119861602783;-0.10247999429702759;1.126304030418396;0.0;0.0;0.0
114;0.0;0.0;0.0;0.5475360155105591;-0.10247999429702759;1.1302080154418945;0.0;0.0;0.0
116;0.0;0.0;0.0;0.5514400005340576;-0.09467199444770813;1.1302080154418945;0.0;0.0;0.0
118;0.4184599816799164;0.034648001194000244;1.0196759700775146;0.5436319708824158;-0.14151999354362488;1.1712000370025635;0.0;0.0;0.0
120;0.0;0.0;0.0;0.5758399963378906;-0.11028799414634705;1.1712000370025635;0.0;0.0;0.0
122;0.0;0.0;0.0;0.5407040119171143;-0.12590399384498596;1.182911992073059;0.0;0.0;0.0
125;0.0;0.0;0.0;0.5524159669876099;-0.1298079937696457;1.1663199663162231;0.0;0.0;0.0
127;0.4433479905128479;0.009759999811649323;1.0440759658813477;0.5680319666862488;-0.13371199369430542;1.175104022026062;0.0;0.0;0.0
129;0.0;0.0;0.0;0.5836479663848877;-0.14151999354362488;1.1946239471435547;0.0;0.0;0.0
131;0.0;0.0;0.0;0.5797439813613892;-0.12590399384498596;1.1712000370025635;0.0;0.0;0.0
133;0.0;0.0;0.0;0.5992639660835266;-0.1454239934682846;1.1712000370025635;0.0;0.0;0.0
135;0.4614039957523346;-0.008539999835193157;1.0362679958343506;0.6100000143051147;-0.12199999392032623;1.146799921989441;0.0;0.0;0.0
137;0.0;0.0;0.0;0.5904799699783325;-0.14932799339294434;1.158511996269226;0.0;0.0;0.0
139;0.0;0.0;0.0;0.6168320178985596;-0.12590399384498596;1.182911992073059;0.0;0.0;0.0
142;0.0;0.0;0.0;0.6129279732704163;-0.12590399384498596;1.1956000328063965;0.0;0.0;0.0
144;0.4833639860153198;0.00317199993878603;1.0513960123062134;0.6051200032234192;-0.14151999354362488;1.199504017829895;0.0;0.0;0.0
146;0.0;0.0;0.0;0.6246399879455566;-0.1298079937696457;1.1907199621200562;0.0;0.0;0.0
148;0.0;0.0;0.0;0.6832000017166138;-0.12590399384498596;1.182911992073059;0.0;0.0;0.0
150;0.0;0.0;0.0;0.7066239714622498;-0.12199999392032623;1.150704026222229;0.0;0.0;0.0
152;0.5331400036811829;0.010979999788105488;1.0570080280303955;0.6402559876441956;-0.16103999316692352;1.207311987876892;-4.598124980926514;9.336250305175781;12.193124771118164
154;0.0;0.0;0.0;0.6714879870414734;-0.16103999316692352;1.1868159770965576;0.0;0.0;0.0
156;0.0;0.0;0.0;0.6988160014152527;-0.1180959939956665;1.1790080070495605;0.0;0.0;0.0
159;0.0;0.0;0.0;0.6519680023193359;-0.14151999354362488;1.1868159770965576;0.0;0.0;0.0
161;0.5563200116157532;-0.005367999896407127;1.0601799488067627;0.6871039867401123;-0.1180959939956665;1.1946239471435547;-5.088125228881836;8.006250381469727;9.743124961853027
163;0.0;0.0;0.0;0.6714879870414734;-0.12199999392032623;1.207311987876892;0.0;0.0;0.0
165;0.0;0.0;0.0;0.6832000017166138;-0.12590399384498596;1.1868159770965576;0.0;0.0;0.0
167;0.0;0.0;0.0;0.7027199864387512;-0.10638399422168732;1.1956000328063965;0.0;0.0;0.0
169;0.575107991695404;0.00878399983048439;1.0745760202407837;0.7066239714622498;-0.11419199407100677;1.207311987876892;-5.648125171661377;7.02625036239624;7.92312479019165
171;0.0;0.0;0.0;0.7066239714622498;-0.11419199407100677;1.2112159729003906;0.0;0.0;0.0
173;0.0;0.0;0.0;0.6988160014152527;-0.12590399384498596;1.2112159729003906;0.0;0.0;0.0
176;0.0;0.0;0.0;0.6988160014152527;-0.1298079937696457;1.207311987876892;0.0;0.0;0.0
178;0.5868200063705444;0.00317199993878603;1.0831159353256226;0.7183359861373901;-0.16103999316692352;1.199504017829895;-6.838125228881836;5.90625;8.413125038146973
180;0.0;0.0;0.0;0.6753919720649719;-0.15323199331760406;1.182911992073059;0.0;0.0;0.0
182;0.0;0.0;0.0;0.7183359861373901;-0.1454239934682846;1.2034080028533936;0.0;0.0;0.0
184;0.0;0.0;0.0;0.6910079717636108;-0.16884799301624298;1.207311987876892;0.0;0.0;0.0
186;0.5746200084686279;-0.027084000408649445;1.0740879774093628;0.6871039867401123;-0.17665599286556244;1.182911992073059;-7.258125305175781;4.926249980926514;7.993124961853027
188;0.0;0.0;0.0;0.7027199864387512;-0.19227199256420135;1.1663199663162231;0.0;0.0;0.0
190;0.0;0.0;0.0;0.7144320011138916;-0.19617599248886108;1.199504017829895;0.0;0.0;0.0
193;0.0;0.0;0.0;0.6949119567871094;-0.23521599173545837;1.182911992073059;0.0;0.0;0.0
195;0.5755959749221802;-0.06392800062894821;1.0606679916381836;0.6871039867401123;-0.2117919921875;1.182911992073059;-6.348124980926514;4.716250419616699;6.383124828338623
197;0.0;0.0;0.0;0.6832000017166138;-0.24692799150943756;1.175104022026062;0.0;0.0;0.0
199;0.0;0.0;0.0;0.6949119567871094;-0.2235039919614792;1.199504017829895;0.0;0.0;0.0
201;0.0;0.0;0.0;0.6714879870414734;-0.23131199181079865;1.1868159770965576;0.0;0.0;0.0
203;0.5653479695320129;-0.09125600010156631;1.0533479452133179;0.6753919720649719;-0.24302399158477783;1.1868159770965576;-4.10812520980835;5.556250095367432;4.213124752044678
205;0.0;0.0;0.0;0.6988160014152527;-0.23131199181079865;1.1663199663162231;0.0;0.0;0.0
207;0.0;0.0;0.0;0.6753919720649719;-0.24692799150943756;1.1712000370025635;0.0;0.0;0.0
210;0.0;0.0;0.0;0.6910079717636108;-0.23131199181079865;1.1712000370025635;0.0;0.0;0.0
212;0.5572959780693054;-0.11297199875116348;1.044808030128479;0.6910079717636108;-0.2508319914340973;1.1663199663162231;-0.46812501549720764;5.626250267028809;3.093125104904175
214;0.0;0.0;0.0;0.6753919720649719;-0.26254400610923767;1.1702239513397217;0.0;0.0;0.0
216;0.0;0.0;0.0;0.6832000017166138;-0.27035200595855713;1.1624159812927246;0.0;0.0;0.0
218;0.0;0.0;0.0;0.6636799573898315;-0.26254400610923767;1.1712000370025635;0.0;0.0;0.0
220;0.550707995891571;-0.13346800208091736;1.04066002368927;0.6441599726676941;-0.27035200595855713;1.1790080070495605;4.221874713897705;5.6962504386901855;3.583125114440918
223;0.0;0.0;0.0;0.6519680023193359;-0.2820639908313751;1.1624159812927246;0.0;0.0;0.0
225;0.0;0.0;0.0;0.636352002620697;-0.2820639908313751;1.175104022026062;0.0;0.0;0.0
227;0.0;0.0;0.0;0.636352002620697;-0.2820639908313751;1.1663199663162231;0.0;0.0;0.0
229;0.5192319750785828;-0.1449359953403473;1.0416359901428223;0.6168320178985596;-0.28596800565719604;1.158511996269226;9.611875534057617;4.716250419616699;5.543124675750732
231;0.0;0.0;0.0;0.636352002620697;-0.2820639908313751;1.1663199663162231;0.0;0.0;0.0
233;0.0;0.0;0.0;0.6168320178985596;-0.2781600058078766;1.1663199663162231;0.0;0.0;0.0
235;0.0;0.0;0.0;0.5934079885482788;-0.28596800565719604;1.1907199621200562;0.0;0.0;0.0
237;0.48799997568130493;-0.14591199159622192;1.0413919687271118;0.6129279732704163;-0.29767999053001404;1.158511996269226;13.881875038146973;3.106250047683716;7.643124580383301
240;0.0;0.0;0.0;0.6168320178985596;-0.3054879903793335;1.1624159812927246;0.0;0.0;0.0
241;0.0;0.0;0.0;0.586575984954834;-0.28596800565719604;1.175104022026062;0.0;0.0;0.0
244;0.0;0.0;0.0;0.5904799699783325;-0.29767999053001404;1.1868159770965576;0.0;0.0;0.0
246;0.46408799290657043;-0.1600639969110489;1.0557879209518433;0.5670560002326965;-0.2937760055065155;1.2112159729003906;15.631875038146973;1.7762500047683716;9.11312484741211
248;0.0;0.0;0.0;0.5475360155105591;-0.31329599022865295;1.2190239429473877;0.0;0.0;0.0
250;0.0;0.0;0.0;0.5592479705810547;-0.3172000050544739;1.223904013633728;0.0;0.0;0.0
252;0.0;0.0;0.0;0.5123999714851379;-0.3093920052051544;1.231711983680725;0.0;0.0;0.0
254;0.4169960021972656;-0.1710439920425415;1.0928759574890137;0.5123999714851379;-0.3093920052051544;1.2395199537277222;14.441875457763672;-0.6737499833106995;9.183124542236328
257;0.0;0.0;0.0;0.4928799867630005;-0.32891198992729187;1.2200000286102295;0.0;0.0;0.0
258;0.0;0.0;0.0;0.44993600249290466;-0.3445279896259308;1.2522079944610596;0.0;0.0;0.0
261;0.0;0.0;0.0;0.4928799867630005;-0.3093920052051544;1.2395199537277222;0.0;0.0;0.0
263;0.35624000430107117;-0.18348799645900726;1.1101999282836914;0.4694559872150421;-0.34062400460243225;1.231711983680725;10.871875762939453;-5.083749771118164;6.733124732971191
265;0.0;0.0;0.0;0.44603198766708374;-0.34062400460243225;1.2356159687042236;0.0;0.0;0.0
267;0.0;0.0;0.0;0.44603198766708374;-0.3445279896259308;1.2112159729003906;0.0;0.0;0.0
269;0.0;0.0;0.0;0.39528000354766846;-0.33671998977661133;1.223904013633728;0.0;0.0;0.0
271;0.30695199966430664;-0.20520399510860443;1.1004400253295898;0.39137598872184753;-0.3211039900779724;1.231711983680725;7.301875114440918;-10.543749809265137;1.6231250762939453
273;0.0;0.0;0.0;0.4108960032463074;-0.3640480041503906;1.1946239471435547;0.0;0.0;0.0
276;0.0;0.0;0.0;0.4147999882698059;-0.30158400535583496;1.2034080028533936;0.0;0.0;0.0
278;0.0;0.0;0.0;0.4108960032463074;-0.3328160047531128;1.2151199579238892;0.0;0.0;0.0
280;0.2857239842414856;-0.2083759903907776;1.0679880380630493;0.39137598872184753;-0.33671998977661133;1.158511996269226;4.711874961853027;-15.93375015258789;-4.466875076293945
282;0.0;0.0;0.0;0.39137598872184753;-0.3484320044517517;1.1907199621200562;0.0;0.0;0.0
284;0.0;0.0;0.0;0.4108960032463074;-0.32500800490379333;1.1712000370025635;0.0;0.0;0.0
286;0.0;0.0;0.0;0.37966400384902954;-0.33671998977661133;1.1907199621200562;0.0;0.0;0.0
288;0.2681559920310974;-0.1966639906167984;1.0545679330825806;0.36795198917388916;-0.3328160047531128;1.1868159770965576;1.9818750619888306;-18.173749923706055;-11.396875381469727
291;0.0;0.0;0.0;0.33769598603248596;-0.3172000050544739;1.1663199663162231;0.0;0.0;0.0
293;0.0;0.0;0.0;0.3572160005569458;-0.3172000050544739;1.1790080070495605;0.0;0.0;0.0
295;0.0;0.0;0.0;0.3298879861831665;-0.3093920052051544;1.150704026222229;0.0;0.0;0.0
297;0.22081999480724335;-0.17080000042915344;1.0401719808578491;0.32598400115966797;-0.28596800565719604;1.1380159854888916;-1.8681249618530273;-19.853750228881836;-18.536874771118164
299;0.0;0.0;0.0;0.2908479869365692;-0.28596800565719604;1.150704026222229;0.0;0.0;0.0
301;0.0;0.0;0.0;0.29475200176239014;-0.2664479911327362;1.150704026222229;0.0;0.0;0.0
303;0.0;0.0;0.0;0.2791360020637512;-0.2781600058078766;1.134112000465393;0.0;0.0;0.0
305;0.17885199189186096;-0.15201199054718018;1.014307975769043;0.3025600016117096;-0.2937760055065155;1.122399926185608;-6.69812536239624;-20.973751068115234;-27.00687599182129
308;0.0;0.0;0.0;0.2869440019130707;-0.25863999128341675;1.10971200466156;0.0;0.0;0.0
310;0.0;0.0;0.0;0.26742398738861084;-0.26254400610923767;1.101904034614563;0.0;0.0;0.0
312;0.0;0.0;0.0;0.2752319872379303;-0.2781600058078766;1.10971200466156;0.0;0.0;0.0
314;0.16103999316692352;-0.130295991897583;0.990884006023407;0.26742398738861084;-0.24692799150943756;1.10971200466156;-10.408124923706055;-21.813751220703125;-32.046875
316;0.0;0.0;0.0;0.2791360020637512;-0.24692799150943756;1.101904034614563;0.0;0.0;0.0
318;0.0;0.0;0.0;0.236191987991333;-0.23131199181079865;1.0892159938812256;0.0;0.0;0.0
320;0.0;0.0;0.0;0.23228800296783447;-0.23131199181079865;1.0775039196014404;0.0;0.0;0.0
322;0.11663199961185455;-0.09955199807882309;0.9657520055770874;0.21667200326919556;-0.2117919921875;1.0775039196014404;-12.578125;-22.09375;-30.996875762939453
325;0.0;0.0;0.0;0.17372798919677734;-0.18836799263954163;1.0648159980773926;0.0;0.0;0.0
327;0.0;0.0;0.0;0.18934398889541626;-0.19227199256420135;1.0775039196014404;0.0;0.0;0.0
329;0.0;0.0;0.0;0.18934398889541626;-0.2000799924135208;1.0531039237976074;0.0;0.0;0.0
331;0.06002400070428848;-0.06588000059127808;0.9386679530143738;0.16201600432395935;-0.2000799924135208;1.0648159980773926;-12.578125;-23.2137508392334;-30.856874465942383
333;0.0;0.0;0.0;0.11126399785280228;-0.19227199256420135;1.0491999387741089;0.0;0.0;0.0
335;0.0;0.0;0.0;0.13078400492668152;-0.17665599286556244;1.0482239723205566;0.0;0.0;0.0
337;0.0;0.0;0.0;0.115167997777462;-0.16103999316692352;1.0404160022735596;0.0;0.0;0.0
339;-0.00024399999529123306;-0.04440800100564957;0.9193919897079468;0.115167997777462;-0.16494399309158325;1.036512017250061;-12.0181245803833;-23.563751220703125;-29.106874465942383
342;0.0;0.0;0.0;0.049775999039411545;-0.1571359932422638;1.0160160064697266;0.0;0.0;0.0
344;0.0;0.0;0.0;0.06148799881339073;-0.12199999392032623;1.0287039279937744;0.0;0.0;0.0
346;0.0;0.0;0.0;0.057583998888731;-0.15323199331760406;1.0287039279937744;0.0;0.0;0.0
348;-0.05538799986243248;-0.01512799970805645;0.8988959789276123;0.014639999717473984;-0.12590399384498596;1.0160160064697266;-11.598124504089355;-23.003751754760742;-27.496875762939453
350;0.0;0.0;0.0;0.010735999792814255;-0.13371199369430542;1.0287039279937744;0.0;0.0;0.0
352;0.0;0.0;0.0;0.0302559994161129;-0.10638399422168732;0.9955199956893921;0.0;0.0;0.0
354;0.0;0.0;0.0;0.04196799919009209;-0.08686399459838867;1.0043039321899414;0.0;0.0;0.0
356;-0.08954799920320511;0.0226919986307621;0.8769359588623047;0.02635199949145317;-0.09467199444770813;0.9994239807128906;-10.968124389648438;-21.813751220703125;-26.026874542236328
358;0.0;0.0;0.0;0.049775999039411545;-0.10247999429702759;0.9838079810142517;0.0;0.0;0.0
361;0.0;0.0;0.0;0.006831999868154526;-0.05953599885106087;1.0043039321899414;0.0;0.0;0.0
363;0.0;0.0;0.0;0.03415999934077263;-0.07515199482440948;0.9838079810142517;0.0;0.0;0.0
365;-0.09125600010156631;0.057583998888731;0.8598560094833374;0.03806399926543236;-0.04782399907708168;0.9672159552574158;-10.198124885559082;-19.993751525878906;-23.856874465942383
367;0.0;0.0;0.0;0.04196799919009209;-0.05953599885106087;0.9799039959907532;0.0;0.0;0.0
369;0.0;0.0;0.0;0.014639999717473984;-0.04782399907708168;0.9515999555587769;0.0;0.0;0.0
371;0.0;0.0;0.0;0.0029279999434947968;-0.07515199482440948;0.9145119786262512;0.0;0.0;0.0
373;-0.10077200084924698;0.07515199482440948;0.8242319822311401;0.006831999868154526;-0.06734399497509003;0.9067040085792542;-9.148124694824219;-16.77375030517578;-20.776874542236328
376;0.0;0.0;0.0;0.006831999868154526;-0.04391999915242195;0.9476959705352783;0.0;0.0;0.0
378;0.0;0.0;0.0;-0.01268799975514412;-0.032207999378442764;0.9067040085792542;0.0;0.0;0.0
380;0.0;0.0;0.0;-0.01268799975514412;-0.07515199482440948;0.9271999597549438;0.0;0.0;0.0
382;-0.12785600125789642;0.07930000126361847;0.7925119996070862;-0.032207999378442764;-0.03611199930310249;0.8988959789276123;-5.85812520980835;-10.473750114440918;-15.246875762939453
384;0.0;0.0;0.0;-0.05953599885106087;-0.04782399907708168;0.9067040085792542;0.0;0.0;0.0
386;0.0;0.0;0.0;-0.06734399497509003;-0.03611199930310249;0.9106079936027527;0.0;0.0;0.0
388;0.0;0.0;0.0;-0.0907679945230484;0.006831999868154526;0.9106079936027527;0.0;0.0;0.0
390;-0.183243989944458;0.09174399822950363;0.7956839799880981;-0.09857599437236786;-0.024399999529123306;0.9106079936027527;-0.048124998807907104;-3.0537500381469727;-9.296875
393;0.0;0.0;0.0;-0.10638399422168732;-0.01659199967980385;0.9515999555587769;0.0;0.0;0.0
395;0.0;0.0;0.0;-0.12590399384498596;0.014639999717473984;0.9594079852104187;0.0;0.0;0.0
397;0.0;0.0;0.0;-0.16396799683570862;0.006831999868154526;0.9877119660377502;0.0;0.0;0.0
399;-0.2640079855918884;0.12199999392032623;0.8356999754905701;-0.19519999623298645;-0.0009759999811649323;0.9759999513626099;5.131875038146973;2.896250009536743;-5.5868754386901855
401;0.0;0.0;0.0;-0.2030079960823059;0.022447999566793442;0.9877119660377502;0.0;0.0;0.0
403;0.0;0.0;0.0;-0.2147199958562851;0.022447999566793442;1.0043039321899414;0.0;0.0;0.0
405;0.0;0.0;0.0;-0.230335995554924;-0.0009759999811649323;1.0326080322265625;0.0;0.0;0.0
407;-0.34013599157333374;0.14420399069786072;0.8803519606590271;-0.24595199525356293;0.014639999717473984;1.036512017250061;6.741875171661377;8.006250381469727;-3.486875057220459
410;0.0;0.0;0.0;-0.23814399540424347;0.022447999566793442;1.0404160022735596;0.0;0.0;0.0
412;0.0;0.0;0.0;-0.29280000925064087;0.0302559994161129;1.0531039237976074;0.0;0.0;0.0
414;0.0;0.0;0.0;-0.28889599442481995;0.03806399926543236;1.0814080238342285;0.0;0.0;0.0
416;-0.39869600534439087;0.15981999039649963;0.9391559958457947;-0.27718400955200195;0.03806399926543236;1.0892159938812256;5.271874904632568;11.226250648498535;-1.456874966621399
418;0.0;0.0;0.0;-0.2810879945755005;0.02635199949145317;1.0531039237976074;0.0;0.0;0.0
420;0.0;0.0;0.0;-0.3201279938220978;-0.020495999604463577;1.0931199789047241;0.0;0.0;0.0
422;0.0;0.0;0.0;-0.3240320086479187;0.03806399926543236;1.1175199747085571;0.0;0.0;0.0
424;-0.4416399896144867;0.16299200057983398;0.9696559906005859;-0.3513599932193756;0.057583998888731;1.1458239555358887;2.541874885559082;13.4662504196167;1.2731250524520874
427;0.0;0.0;0.0;-0.3669759929180145;0.053679998964071274;1.1624159812927246;0.0;0.0;0.0
429;0.0;0.0;0.0;-0.3474559783935547;0.03415999934077263;1.158511996269226;0.0;0.0;0.0
431;0.0;0.0;0.0;-0.3630719780921936;0.057583998888731;1.1712000370025635;0.0;0.0;0.0
433;-0.4777520000934601;0.17714399099349976;1.0313879251480103;-0.39820799231529236;0.0849120020866394;1.1946239471435547;0.861875057220459;11.366250038146973;7.223124980926514
435;0.0;0.0;0.0;-0.4060159921646118;0.053679998964071274;1.1868159770965576;0.0;0.0;0.0
437;0.0;0.0;0.0;-0.4323679804801941;0.03415999934077263;1.2395199537277222;0.0;0.0;0.0
439;0.0;0.0;0.0;-0.46750399470329285;0.045871999114751816;1.248304009437561;0.0;0.0;0.0
441;-0.5480239987373352;0.18251200020313263;1.1106879711151123;-0.44017598032951355;0.03806399926543236;1.2922239303588867;-4.808125019073486;8.426250457763672;12.823124885559082
444;0.0;0.0;0.0;-0.4714079797267914;0.049775999039411545;1.2805119752883911;0.0;0.0;0.0
446;0.0;0.0;0.0;-0.4635999798774719;0.03415999934077263;1.2805119752883911;0.0;0.0;0.0
448;0.0;0.0;0.0;-0.46750399470329285;-0.01268799975514412;1.2639199495315552;0.0;0.0;0.0
450;-0.5892599821090698;0.15225599706172943;1.148751974105835;-0.4440799951553345;-0.01268799975514412;1.2805119752883911;-13.138124465942383;3.666249990463257;16.323123931884766
452;0.0;0.0;0.0;-0.45579198002815247;-0.020495999604463577;1.2805119752883911;0.0;0.0;0.0
454;0.0;0.0;0.0;-0.45188799500465393;-0.01659199967980385;1.2229279279708862;0.0;0.0;0.0
456;0.0;0.0;0.0;-0.45188799500465393;-0.032207999378442764;1.2190239429473877;0.0;0.0;0.0
458;-0.5794999599456787;0.10052800178527832;1.115567922592163;-0.447983980178833;-0.0634399950504303;1.2151199579238892;-19.438125610351562;0.4462500214576721;17.233125686645508
461;0.0;0.0;0.0;-0.4089439809322357;-0.06734399497509003;1.2112159729003906;0.0;0.0;0.0
463;0.0;0.0;0.0;-0.42455998063087463;-0.09857599437236786;1.2151199579238892;0.0;0.0;0.0
465;0.0;0.0;0.0;-0.3933279812335968;-0.10247999429702759;1.2395199537277222;0.0;0.0;0.0
467;-0.5389959812164307;0.04001599922776222;1.091655969619751;-0.4089439809322357;-0.13371199369430542;1.223904013633728;-20.628124237060547;0.09624999761581421;16.953125
469;0.0;0.0;0.0;-0.4167519807815552;-0.13371199369430542;1.231711983680725;0.0;0.0;0.0
471;0.0;0.0;0.0;-0.3786879777908325;-0.14151999354362488;1.256111979484558;0.0;0.0;0.0
473;0.0;0.0;0.0;-0.3777119815349579;-0.14151999354362488;1.2434239387512207;0.0;0.0;0.0
475;-0.5123999714851379;-0.00878399983048439;1.113860011100769;-0.37088000774383545;-0.16494399309158325;1.256111979484558;-17.128124237060547;-1.3037500381469727;16.463125228881836
478;0.0;0.0;0.0;-0.38942399621009827;-0.17665599286556244;1.2522079944610596;0.0;0.0;0.0
480;0.0;0.0;0.0;-0.3816159963607788;-0.17665599286556244;1.2473279237747192;0.0;0.0;0.0
482;0.0;0.0;0.0;-0.38649600744247437;-0.1454239934682846;1.2522079944610596;0.0;0.0;0.0
484;-0.5114240050315857;-0.02903600037097931;1.126304030418396;-0.4089439809322357;-0.1727519929409027;1.2600159645080566;-12.368124961853027;-2.84375;14.223124504089355
486;0.0;0.0;0.0;-0.4167519807815552;-0.17665599286556244;1.2678239345550537;0.0;0.0;0.0
488;0.0;0.0;0.0;-0.3786879777908325;-0.1571359932422638;1.2805119752883911;0.0;0.0;0.0
490;0.0;0.0;0.0;-0.3933279812335968;-0.1727519929409027;1.2639199495315552;0.0;0.0;0.0
492;-0.537775993347168;-0.040748000144958496;1.136795997619629;-0.4323679804801941;-0.2117919921875;1.2278079986572266;-8.868124961853027;-5.293749809265137;10.933124542236328
495;0.0;0.0;0.0;-0.4206559956073761;-0.20398399233818054;1.2395199537277222;0.0;0.0;0.0
497;0.0;0.0;0.0;-0.436271995306015;-0.20398399233818054;1.223904013633728;0.0;0.0;0.0
499;0.0;0.0;0.0;-0.447983980178833;-0.2000799924135208;1.207311987876892;0.0;0.0;0.0
501;-0.558027982711792;-0.07417599856853485;1.0928759574890137;-0.44017598032951355;-0.2000799924135208;1.199504017829895;-4.948124885559082;-9.353750228881836;5.543124675750732
503;0.0;0.0;0.0;-0.4089439809322357;-0.18055999279022217;1.182911992073059;0.0;0.0;0.0
505;0.0;0.0;0.0;-0.40113598108291626;-0.2000799924135208;1.150704026222229;0.0;0.0;0.0
507;0.0;0.0;0.0;-0.38649600744247437;-0.18836799263954163;1.150704026222229;0.0;0.0;0.0
509;-0.526308000087738;-0.05685199797153473;1.0369999408721924;-0.3513599932193756;-0.16884799301624298;1.1380159854888916;-0.46812501549720764;-10.19374942779541;-1.386875033378601
512;0.0;0.0;0.0;-0.31622397899627686;-0.16103999316692352;1.1175199747085571;0.0;0.0;0.0
514;0.0;0.0;0.0;-0.3084160089492798;-0.16494399309158325;1.1419199705123901;0.0;0.0;0.0
516;0.0;0.0;0.0;-0.30451199412345886;-0.1454239934682846;1.1136159896850586;0.0;0.0;0.0
518;-0.44529998302459717;-0.028060000389814377;0.9938119649887085;-0.284991979598999;-0.14932799339294434;1.1058080196380615;5.131875038146973;-8.583749771118164;-5.516875267028809
520;0.0;0.0;0.0;-0.29280000925064087;-0.13761599361896515;1.097999930381775;0.0;0.0;0.0
522;0.0;0.0;0.0;-0.27718400955200195;-0.13761599361896515;1.0931199789047241;0.0;0.0;0.0
524;0.0;0.0;0.0;-0.2576639950275421;-0.11028799414634705;1.0814080238342285;0.0;0.0;0.0
526;-0.3925960063934326;0.0024399999529123306;0.9713639616966248;-0.2654719948768616;-0.09857599437236786;1.122399926185608;11.151875495910645;-6.483749866485596;-4.886875152587891
529;0.0;0.0;0.0;-0.2576639950275421;-0.11028799414634705;1.0648159980773926;0.0;0.0;0.0
531;0.0;0.0;0.0;-0.24985599517822266;-0.0907679945230484;1.101904034614563;0.0;0.0;0.0
533;0.0;0.0;0.0;-0.23814399540424347;-0.08295999467372894;1.0892159938812256;0.0;0.0;0.0
535;-0.3740519881248474;0.03245199844241142;0.9579439759254456;-0.24595199525356293;-0.09467199444770813;1.060912013053894;15.631875038146973;-4.59375;-1.0368750095367432
537;0.0;0.0;0.0;-0.2693759799003601;-0.0907679945230484;1.0814080238342285;0.0;0.0;0.0
539;0.0;0.0;0.0;-0.2420479953289032;-0.0907679945230484;1.0570080280303955;0.0;0.0;0.0
541;0.0;0.0;0.0;-0.2654719948768616;-0.0907679945230484;1.073599934577942;0.0;0.0;0.0
543;-0.3745400011539459;0.04928799718618393;0.948915958404541;-0.27327999472618103;-0.07124799489974976;1.0648159980773926;17.31187629699707;-3.8237500190734863;3.2331249713897705
546;0.0;0.0;0.0;-0.23423999547958374;-0.0634399950504303;1.0775039196014404;0.0;0.0;0.0
548;0.0;0.0;0.0;-0.23814399540424347;-0.07905599474906921;1.044319987297058;0.0;0.0;0.0
550;0.0;0.0;0.0;-0.2537599802017212;-0.0907679945230484;1.0648159980773926;0.0;0.0;0.0
552;-0.36795198917388916;0.05319199711084366;0.9325679540634155;-0.2654719948768616;-0.09857599437236786;1.0287039279937744;16.33187484741211;-3.543750047683716;5.193124771118164
554;0.0;0.0;0.0;-0.23423999547958374;-0.09467199444770813;1.036512017250061;0.0;0.0;0.0
556;0.0;0.0;0.0;-0.22252799570560455;-0.08686399459838867;1.0482239723205566;0.0;0.0;0.0
558;0.0;0.0;0.0;-0.21862399578094482;-0.08295999467372894;1.0404160022735596;0.0;0.0;0.0
560;-0.34940800070762634;0.04782399907708168;0.9142679572105408;-0.187391996383667;-0.09857599437236786;1.0287039279937744;13.951875686645508;-2.4937500953674316;5.543124675750732
563;0.0;0.0;0.0;-0.23423999547958374;-0.08686399459838867;1.036512017250061;0.0;0.0;0.0
565;0.0;0.0;0.0;-0.2030079960823059;-0.0634399950504303;1.0482239723205566;0.0;0.0;0.0
567;0.0;0.0;0.0;-0.18348799645900726;-0.07515199482440948;1.044319987297058;0.0;0.0;0.0
569;-0.3223240077495575;0.04806799814105034;0.9184159636497498;-0.17958399653434753;-0.10247999429702759;1.0326080322265625;11.01187515258789;-1.6537500619888306;5.543124675750732
571;0.0;0.0;0.0;-0.1600639969110489;-0.09467199444770813;1.0482239723205566;0.0;0.0;0.0
573;0.0;0.0;0.0;-0.1756799966096878;-0.09467199444770813;1.0531039237976074;0.0;0.0;0.0
575;0.0;0.0;0.0;-0.13371199369430542;-0.09467199444770813;1.044319987297058;0.0;0.0;0.0
577;-0.2764520049095154;0.03757599741220474;0.9247599840164185;-0.11028799414634705;-0.11028799414634705;1.0326080322265625;7.231874942779541;-1.3037500381469727;5.753124713897705
580;0.0;0.0;0.0;-0.10247999429702759;-0.10247999429702759;1.0687199831008911;0.0;0.0;0.0
582;0.0;0.0;0.0;-0.10247999429702759;-0.10638399422168732;1.044319987297058;0.0;0.0;0.0
584;0.0;0.0;0.0;-0.08295999467372894;-0.13371199369430542;1.0238239765167236;0.0;0.0;0.0
586;-0.21667200326919556;0.012443999759852886;0.9242720007896423;-0.0634399950504303;-0.13371199369430542;1.0247999429702759;3.8718748092651367;-1.5137500762939453;6.313124656677246
588;0.0;0.0;0.0;-0.03611199930310249;-0.16103999316692352;1.0570080280303955;0.0;0.0;0.0
590;0.0;0.0;0.0;-0.04782399907708168;-0.1727519929409027;1.044319987297058;0.0;0.0;0.0
592;0.0;0.0;0.0;-0.01268799975514412;-0.16884799301624298;1.0238239765167236;0.0;0.0;0.0
594;-0.15347599983215332;-0.020739998668432236;0.9208559989929199;-0.00878399983048439;-0.16884799301624298;1.0287039279937744;2.1918749809265137;-1.5137500762939453;6.733124732971191
597;0.0;0.0;0.0;0.018543999642133713;-0.18055999279022217;1.044319987297058;0.0;0.0;0.0
599;0.0;0.0;0.0;0.014639999717473984;-0.2000799924135208;1.044319987297058;0.0;0.0;0.0
601;0.0;0.0;0.0;0.014639999717473984;-0.19227199256420135;1.012112021446228;0.0;0.0;0.0
603;-0.10613999515771866;-0.05685199797153473;0.9003599882125854;0.02635199949145317;-0.18836799263954163;1.019919991493225;2.471874952316284;0.026250001043081284;5.963124752044678
605;0.0;0.0;0.0;0.04196799919009209;-0.20788799226284027;1.0160160064697266;0.0;0.0;0.0
607;0.0;0.0;0.0;0.06148799881339073;-0.21569599211215973;0.9916160106658936;0.0;0.0;0.0
609;0.0;0.0;0.0;0.06148799881339073;-0.2117919921875;0.9799039959907532;0.0;0.0;0.0
611;-0.06295199692249298;-0.0849120020866394;0.8693720102310181;0.07710400223731995;-0.22740799188613892;0.9711199998855591;5.131875038146973;3.526249885559082;3.7931249141693115
614;0.0;0.0;0.0;0.08881600201129913;-0.21569599211215973;0.9838079810142517;0.0;0.0;0.0
616;0.0;0.0;0.0;0.10052800178527832;-0.20788799226284027;0.9799039959907532;0.0;0.0;0.0
618;0.0;0.0;0.0;0.07320000231266022;-0.19617599248886108;0.9720959663391113;0.0;0.0;0.0
620;-0.022204000502824783;-0.07881199568510056;0.859611988067627;0.115167997777462;-0.19617599248886108;0.9877119660377502;9.051875114440918;8.49625015258789;0.8531250357627869
622;0.0;0.0;0.0;0.1268799901008606;-0.18055999279022217;0.9994239807128906;0.0;0.0;0.0
624;0.0;0.0;0.0;0.13859200477600098;-0.15323199331760406;1.0003999471664429;0.0;0.0;0.0
626;0.0;0.0;0.0;0.115167997777462;-0.16884799301624298;1.0082080364227295;0.0;0.0;0.0
628;0.010247999802231789;-0.045871999114751816;0.8793759942054749;0.13859200477600098;-0.1727519929409027;1.0247999429702759;12.341875076293945;13.256250381469727;-1.386875033378601
631;0.0;0.0;0.0;0.15030398964881897;-0.1454239934682846;1.0335839986801147;0.0;0.0;0.0
633;0.0;0.0;0.0;0.1542080044746399;-0.14932799339294434;1.0374879837036133;0.0;0.0;0.0
635;0.0;0.0;0.0;0.15030398964881897;-0.1180959939956665;1.0657919645309448;0.0;0.0;0.0
637;0.03611199930310249;-0.0058559998869895935;0.9184159636497498;0.17372798919677734;-0.1180959939956665;1.0579839944839478;13.671875;16.126249313354492;-2.5068750381469727
639;0.0;0.0;0.0;0.15030398964881897;-0.14151999354362488;1.073599934577942;0.0;0.0;0.0
641;0.0;0.0;0.0;0.1542080044746399;-0.11419199407100677;1.0862879753112793;0.0;0.0;0.0
643;0.0;0.0;0.0;0.20105600357055664;-0.13761599361896515;1.0901919603347778;0.0;0.0;0.0
645;0.040748000144958496;0.028303999453783035;0.9594079852104187;0.15030398964881897;-0.09467199444770813;1.1184959411621094;13.041875839233398;17.386249542236328;-2.296875
648;0.0;0.0;0.0;0.16591998934745789;-0.08686399459838867;1.122399926185608;0.0;0.0;0.0
650;0.0;0.0;0.0;0.1542080044746399;-0.07905599474906921;1.10971200466156;0.0;0.0;0.0
652;0.0;0.0;0.0;0.16201600432395935;-0.08686399459838867;1.1058080196380615;0.0;0.0;0.0
654;0.04123599827289581;0.042211998254060745;0.9872239828109741;0.15811198949813843;-0.07515199482440948;1.1136159896850586;11.431875228881836;16.616249084472656;-0.8968750238418579
656;0.0;0.0;0.0;0.19324800372123718;-0.09467199444770813;1.126304030418396;0.0;0.0;0.0
658;0.0;0.0;0.0;0.17763200402259827;-0.06734399497509003;1.1136159896850586;0.0;0.0;0.0
660;0.0;0.0;0.0;0.19715198874473572;-0.08295999467372894;1.126304030418396;0.0;0.0;0.0
663;0.07710400223731995;0.050995998084545135;0.9925919771194458;0.2205759882926941;-0.07905599474906921;1.126304030418396;10.241875648498535;14.376250267028809;0.7131249904632568
665;0.0;0.0;0.0;0.236191987991333;-0.07515199482440948;1.1184959411621094;0.0;0.0;0.0
667;0.0;0.0;0.0;0.25571200251579285;-0.07905599474906921;1.1136159896850586;0.0;0.0;0.0
669;0.0;0.0;0.0;0.2596159875392914;-0.05953599885106087;1.0970239639282227;0.0;0.0;0.0
671;0.1349319964647293;0.0663679987192154;0.981611967086792;0.2869440019130707;-0.05953599885106087;1.1058080196380615;9.961874961853027;12.766250610351562;2.6031250953674316
673;0.0;0.0;0.0;0.31036800146102905;-0.05953599885106087;1.1136159896850586;0.0;0.0;0.0
675;0.0;0.0;0.0;0.29865598678588867;-0.03611199930310249;1.097999930381775;0.0;0.0;0.0
677;0.0;0.0;0.0;0.3416000008583069;-0.05172799900174141;1.10971200466156;0.0;0.0;0.0
680;0.19519999623298645;0.08369199931621552;0.9735599756240845;0.3298879861831665;-0.032207999378442764;1.101904034614563;9.961874961853027;12.136250495910645;5.753124713897705
682;0.0;0.0;0.0;0.35233598947525024;-0.05563199892640114;1.1175199747085571;0.0;0.0;0.0
684;0.0;0.0;0.0;0.3572160005569458;-0.020495999604463577;1.122399926185608;0.0;0.0;0.0
686;0.0;0.0;0.0;0.36795198917388916;-0.032207999378442764;1.126304030418396;0.0;0.0;0.0
688;0.24619600176811218;0.09516000002622604;0.9872239828109741;0.37966400384902954;-0.04391999915242195;1.10971200466156;9.541875839233398;12.416250228881836;10.093124389648438
690;0.0;0.0;0.0;0.399183988571167;-0.04782399907708168;1.1136159896850586;0.0;0.0;0.0
692;0.0;0.0;0.0;0.39137598872184753;-0.04391999915242195;1.1175199747085571;0.0;0.0;0.0
694;0.0;0.0;0.0;0.37966400384902954;-0.04391999915242195;1.1058080196380615;0.0;0.0;0.0
697;0.2769399881362915;0.09613599628210068;0.9943000078201294;0.40699198842048645;-0.04391999915242195;1.126304030418396;7.441874980926514;12.766250610351562;13.663125038146973
699;0.0;0.0;0.0;0.4108960032463074;-0.04782399907708168;1.122399926185608;0.0;0.0;0.0
701;0.0;0.0;0.0;0.4108960032463074;-0.03611199930310249;1.1380159854888916;0.0;0.0;0.0
703;0.0;0.0;0.0;0.4304159879684448;-0.04782399907708168;1.1302080154418945;0.0;0.0;0.0
705;0.2962159812450409;0.08369199931621552;1.0089399814605713;0.399183988571167;-0.08295999467372894;1.1302080154418945;4.64187479019165;13.326250076293945;14.503125190734863
707;0.0;0.0;0.0;0.4382239878177643;-0.05953599885106087;1.146799921989441;0.0;0.0;0.0
709;0.0;0.0;0.0;0.4304159879684448;-0.07124799489974976;1.1790080070495605;0.0;0.0;0.0
711;0.0;0.0;0.0;0.43432000279426575;-0.06734399497509003;1.182911992073059;0.0;0.0;0.0
714;0.31207600235939026;0.06856399774551392;1.0399279594421387;0.43432000279426575;-0.07124799489974976;1.1790080070495605;1.2818750143051147;13.046250343322754;14.29312515258789
716;0.0;0.0;0.0;0.4538399875164032;-0.07124799489974976;1.1624159812927246;0.0;0.0;0.0
718;0.0;0.0;0.0;0.47336000204086304;-0.09467199444770813;1.175104022026062;0.0;0.0;0.0
720;0.0;0.0;0.0;0.47336000204086304;-0.07515199482440948;1.1907199621200562;0.0;0.0;0.0
722;0.342087984085083;0.054655998945236206;1.0540800094604492;0.48897600173950195;-0.09467199444770813;1.1712000370025635;-1.9381250143051147;11.7162504196167;13.80312442779541
724;0.0;0.0;0.0;0.48897600173950195;-0.09467199444770813;1.1624159812927246;0.0;0.0;0.0
726;0.0;0.0;0.0;0.4772639870643616;-0.1180959939956665;1.175104022026062;0.0;0.0;0.0
728;0.0;0.0;0.0;0.5280159711837769;-0.10638399422168732;1.1790080070495605;0.0;0.0;0.0
731;0.38308000564575195;0.037087999284267426;1.0582280158996582;0.5397279858589172;-0.11419199407100677;1.199504017829895;-3.408125162124634;10.456250190734863;13.103124618530273
733;0.0;0.0;0.0;0.5123999714851379;-0.11419199407100677;1.182911992073059;0.0;0.0;0.0
735;0.0;0.0;0.0;0.5475360155105591;-0.13761599361896515;1.199504017829895;0.0;0.0;0.0
737;0.0;0.0;0.0;0.5475360155105591;-0.12199999392032623;1.1946239471435547;0.0;0.0;0.0
739;0.4108960032463074;0.014883999712765217;1.0645719766616821;0.5514400005340576;-0.1180959939956665;1.199504017829895;-3.6181252002716064;9.756250381469727;12.263124465942383
741;0.0;0.0;0.0;0.5358240008354187;-0.1298079937696457;1.1907199621200562;0.0;0.0;0.0
743;0.0;0.0;0.0;0.5592479705810547;-0.1571359932422638;1.1907199621200562;0.0;0.0;0.0
745;0.0;0.0;0.0;0.5475360155105591;-0.16103999316692352;1.1868159770965576;0.0;0.0;0.0
748;0.4230960011482239;0.003659999929368496;1.0701839923858643;0.5514400005340576;-0.11028799414634705;1.1946239471435547;-3.338125228881836;8.56624984741211;10.79312515258789
750;0.0;0.0;0.0;0.586575984954834;-0.15323199331760406;1.1907199621200562;0.0;0.0;0.0
752;0.0;0.0;0.0;0.5826719999313354;-0.13761599361896515;1.175104022026062;0.0;0.0;0.0
754;0.0;0.0;0.0;0.5934079885482788;-0.13761599361896515;1.1663199663162231;0.0;0.0;0.0
756;0.44603198766708374;-0.004635999910533428;1.062619924545288;0.5748639702796936;-0.14932799339294434;1.199504017829895;-2.568125009536743;7.516250133514404;8.483124732971191
758;0.0;0.0;0.0;0.5982879996299744;-0.1454239934682846;1.175104022026062;0.0;0.0;0.0
760;0.0;0.0;0.0;0.6139039993286133;-0.16494399309158325;1.1907199621200562;0.0;0.0;0.0
762;0.0;0.0;0.0;0.6051200032234192;-0.14932799339294434;1.2034080028533936;0.0;0.0;0.0
765;0.48141199350357056;-0.010979999788105488;1.056764006614685;0.6168320178985596;-0.12199999392032623;1.1790080070495605;-1.168125033378601;6.816250324249268;6.663125038146973
767;0.0;0.0;0.0;0.6207360029220581;-0.16103999316692352;1.1624159812927246;0.0;0.0;0.0
769;0.0;0.0;0.0;0.636352002620697;-0.18055999279022217;1.1663199663162231;0.0;0.0;0.0
771;0.0;0.0;0.0;0.6441599726676941;-0.16103999316692352;1.1546080112457275;0.0;0.0;0.0
773;0.5182560086250305;-0.019763998687267303;1.0445640087127686;0.6636799573898315;-0.17665599286556244;1.150704026222229;0.6518750190734863;6.116250038146973;5.123124599456787
775;0.0;0.0;0.0;0.6714879870414734;-0.15323199331760406;1.175104022026062;0.0;0.0;0.0
777;0.0;0.0;0.0;0.6675840020179749;-0.16494399309158325;1.1419199705123901;0.0;0.0;0.0
779;0.0;0.0;0.0;0.6871039867401123;-0.16103999316692352;1.1380159854888916;0.0;0.0;0.0
782;0.5533919930458069;-0.026839999482035637;1.022603988647461;0.6910079717636108;-0.1727519929409027;1.1380159854888916;2.9618749618530273;6.18625020980835;3.443125009536743
784;0.0;0.0;0.0;0.6792960166931152;-0.13761599361896515;1.122399926185608;0.0;0.0;0.0
786;0.0;0.0;0.0;0.6558719873428345;-0.17665599286556244;1.1272799968719482;0.0;0.0;0.0
788;0.0;0.0;0.0;0.6753919720649719;-0.12199999392032623;1.122399926185608;0.0;0.0;0.0
790;0.5597360134124756;-0.02513200044631958;1.0013760328292847;0.6714879870414734;-0.14932799339294434;1.122399926185608;5.901875019073486;6.886250019073486;1.4831249713897705
792;0.0;0.0;0.0;0.6871039867401123;-0.1727519929409027;1.1106879711151123;0.0;0.0;0.0
794;0.0;0.0;0.0;0.659775972366333;-0.14151999354362488;1.1594879627227783;0.0;0.0;0.0
796;0.0;0.0;0.0;0.6441599726676941;-0.12590399384498596;1.1311839818954468;0.0;0.0;0.0
799;0.5463159680366516;-0.010735999792814255;1.0033279657363892;0.659775972366333;-0.1454239934682846;1.1106879711151123;7.861875057220459;7.516250133514404;-0.6168749928474426
801;0.0;0.0;0.0;0.6558719873428345;-0.13371199369430542;1.158511996269226;0.0;0.0;0.0
803;0.0;0.0;0.0;0.6246399879455566;-0.13761599361896515;1.134112000465393;0.0;0.0;0.0
805;0.0;0.0;0.0;0.636352002620697;-0.12199999392032623;1.146799921989441;0.0;0.0;0.0
807;0.5187439918518066;0.004147999919950962;1.0218719244003296;0.6324479579925537;-0.13371199369430542;1.146799921989441;8.07187557220459;7.376250267028809;-1.5968749523162842
809;0.0;0.0;0.0;0.6129279732704163;-0.12199999392032623;1.1624159812927246;0.0;0.0;0.0
811;0.0;0.0;0.0;0.6285439729690552;-0.1180959939956665;1.1712000370025635;0.0;0.0;0.0
813;0.0;0.0;0.0;0.5787680149078369;-0.09467199444770813;1.1712000370025635;0.0;0.0;0.0
816;0.48385199904441833;0.02635199949145317;1.046515941619873;0.5787680149078369;-0.10247999429702759;1.1868159770965576;6.671875;4.576250076293945;-1.456874966621399
818;0.0;0.0;0.0;0.5904799699783325;-0.07515199482440948;1.1790080070495605;0.0;0.0;0.0
820;0.0;0.0;0.0;0.5787680149078369;-0.08295999467372894;1.1790080070495605;0.0;0.0;0.0
822;0.0;0.0;0.0;0.5826719999313354;-0.11419199407100677;1.1868159770965576;0.0;0.0;0.0
824;0.4638440012931824;0.04440800100564957;1.0516400337219238;0.6246399879455566;-0.09467199444770813;1.1663199663162231;3.3118748664855957;-0.4637500047683716;-1.2468750476837158
826;0.0;0.0;0.0;0.5709599852561951;-0.0907679945230484;1.1458239555358887;0.0;0.0;0.0
828;0.0;0.0;0.0;0.586575984954834;-0.11028799414634705;1.1546080112457275;0.0;0.0;0.0
830;0.0;0.0;0.0;0.6246399879455566;-0.10638399422168732;1.1546080112457275;0.0;0.0;0.0
833;0.4718959927558899;0.04172400012612343;1.034071922302246;0.586575984954834;-0.11419199407100677;1.1302080154418945;-1.168125033378601;-5.923749923706055;-1.0368750095367432
835;0.0;0.0;0.0;0.5982879996299744;-0.10247999429702759;1.1175199747085571;0.0;0.0;0.0
837;0.0;0.0;0.0;0.6012159585952759;-0.1180959939956665;1.1458239555358887;0.0;0.0;0.0
839;0.0;0.0;0.0;0.586575984954834;-0.13761599361896515;1.1184959411621094;0.0;0.0;0.0
841;0.48263198137283325;0.017324000597000122;1.0011320114135742;0.5982879996299744;-0.15323199331760406;1.097999930381775;-5.85812520980835;-9.2837495803833;-0.8968750238418579
843;0.0;0.0;0.0;0.586575984954834;-0.15323199331760406;1.097999930381775;0.0;0.0;0.0
845;0.0;0.0;0.0;0.5826719999313354;-0.16103999316692352;1.101904034614563;0.0;0.0;0.0
847;0.0;0.0;0.0;0.6090239882469177;-0.1454239934682846;1.0931199789047241;0.0;0.0;0.0
850;0.4748239815235138;-0.01659199967980385;0.9759999513626099;0.6012159585952759;-0.1571359932422638;1.085312008857727;-8.658124923706055;-10.68375015258789;-0.19687500596046448
852;0.0;0.0;0.0;0.5670560002326965;-0.18836799263954163;1.0901919603347778;0.0;0.0;0.0
854;0.0;0.0;0.0;0.5787680149078369;-0.2117919921875;1.073599934577942;0.0;0.0;0.0
856;0.0;0.0;0.0;0.586575984954834;-0.2117919921875;1.0901919603347778;0.0;0.0;0.0
858;0.47433599829673767;-0.060999996960163116;0.9625799655914307;0.6090239882469177;-0.2117919921875;1.0657919645309448;-8.308124542236328;-11.733749389648438;1.9731249809265137
860;0.0;0.0;0.0;0.6021919846534729;-0.23131199181079865;1.0862879753112793;0.0;0.0;0.0
862;0.0;0.0;0.0;0.6090239882469177;-0.23521599173545837;1.0618879795074463;0.0;0.0;0.0
865;0.0;0.0;0.0;0.6129279732704163;-0.24302399158477783;1.0696959495544434;0.0;0.0;0.0
867;0.4845840036869049;-0.09784399718046188;0.9462319612503052;0.5982879996299744;-0.24692799150943756;1.0491999387741089;-5.088125228881836;-12.013750076293945;4.633124828338623
869;0.0;0.0;0.0;0.6285439729690552;-0.22740799188613892;1.0579839944839478;0.0;0.0;0.0
871;0.0;0.0;0.0;0.586575984954834;-0.24692799150943756;1.0618879795074463;0.0;0.0;0.0
873;0.0;0.0;0.0;0.6246399879455566;-0.24302399158477783;1.0579839944839478;0.0;0.0;0.0
875;0.4840959906578064;-0.1290760040283203;0.9386679530143738;0.6021919846534729;-0.2898719906806946;1.0540800094604492;-0.2581250071525574;-11.0337495803833;5.823124885559082
877;0.0;0.0;0.0;0.5748639702796936;-0.27425599098205566;1.0775039196014404;0.0;0.0;0.0
879;0.0;0.0;0.0;0.5826719999313354;-0.2820639908313751;1.073599934577942;0.0;0.0;0.0
881;0.0;0.0;0.0;0.5436319708824158;-0.30158400535583496;1.0618879795074463;0.0;0.0;0.0
884;0.4501799941062927;-0.1466439962387085;0.9437919855117798;0.5319200158119202;-0.28596800565719604;1.073599934577942;5.201874732971191;-10.053750038146973;5.33312463760376
886;0.0;0.0;0.0;0.5358240008354187;-0.27425599098205566;1.073599934577942;0.0;0.0;0.0
888;0.0;0.0;0.0;0.5241119861602783;-0.2937760055065155;1.0892159938812256;0.0;0.0;0.0
890;0.0;0.0;0.0;0.5241119861602783;-0.26254400610923767;1.0892159938812256;0.0;0.0;0.0
892;0.4047960042953491;-0.13834799826145172;0.9569680094718933;0.5045920014381409;-0.2547360062599182;1.085312008857727;9.751875877380371;-10.19374942779541;2.8131251335144043
894;0.0;0.0;0.0;0.5123999714851379;-0.25863999128341675;1.0687199831008911;0.0;0.0;0.0
896;0.0;0.0;0.0;0.5202080011367798;-0.27425599098205566;1.0775039196014404;0.0;0.0;0.0
899;0.0;0.0;0.0;0.5202080011367798;-0.24302399158477783;1.0775039196014404;0.0;0.0;0.0
901;0.38966798782348633;-0.12004800140857697;0.95306396484375;0.4967840015888214;-0.2508319914340973;1.0814080238342285;11.851875305175781;-10.263750076293945;-1.106874942779541
903;0.0;0.0;0.0;0.48507198691368103;-0.2547360062599182;1.0618879795074463;0.0;0.0;0.0
905;0.0;0.0;0.0;0.5163040161132812;-0.2235039919614792;1.0823839902877808;0.0;0.0;0.0
907;0.0;0.0;0.0;0.4928799867630005;-0.21959999203681946;1.0940959453582764;0.0;0.0;0.0
909;0.3760039806365967;-0.10272400081157684;0.9559919834136963;0.4967840015888214;-0.22740799188613892;1.0940959453582764;11.851875305175781;-9.423749923706055;-5.726875305175781
911;0.0;0.0;0.0;0.4577440023422241;-0.2117919921875;1.0862879753112793;0.0;0.0;0.0
913;0.0;0.0;0.0;0.4538399875164032;-0.21569599211215973;1.0862879753112793;0.0;0.0;0.0
916;0.0;0.0;0.0;0.4538399875164032;-0.2235039919614792;1.1145919561386108;0.0;0.0;0.0
918;0.3269599974155426;-0.07783599942922592;0.9672159552574158;0.4147999882698059;-0.20788799226284027;1.1067839860916138;10.381875038146973;-9.983749389648438;-9.716875076293945
920;0.0;0.0;0.0;0.4108960032463074;-0.1844639927148819;1.0931199789047241;0.0;0.0;0.0
922;0.0;0.0;0.0;0.3835679888725281;-0.19227199256420135;1.1058080196380615;0.0;0.0;0.0
924;0.0;0.0;0.0;0.39528000354766846;-0.19617599248886108;1.1058080196380615;0.0;0.0;0.0
926;0.26791200041770935;-0.057339999824762344;0.9789279699325562;0.3718560039997101;-0.16884799301624298;1.1184959411621094;7.301875114440918;-11.313750267028809;-12.866875648498535
928;0.0;0.0;0.0;0.3718560039997101;-0.2000799924135208;1.134112000465393;0.0;0.0;0.0
930;0.0;0.0;0.0;0.35233598947525024;-0.20398399233818054;1.101904034614563;0.0;0.0;0.0
933;0.0;0.0;0.0;0.3181760013103485;-0.2000799924135208;1.1380159854888916;0.0;0.0;0.0
935;0.20959599316120148;-0.04367600008845329;0.9938119649887085;0.3025600016117096;-0.16494399309158325;1.134112000465393;3.801874876022339;-13.483750343322754;-13.776875495910645
937;0.0;0.0;0.0;0.3142719864845276;-0.1727519929409027;1.1428959369659424;0.0;0.0;0.0
939;0.0;0.0;0.0;0.2635200023651123;-0.16494399309158325;1.1428959369659424;0.0;0.0;0.0
941;0.0;0.0;0.0;0.26742398738861084;-0.16103999316692352;1.1272799968719482;0.0;0.0;0.0
943;0.15786799788475037;-0.037331998348236084;1.0050359964370728;0.25571200251579285;-0.16494399309158325;1.1555839776992798;0.02187499962747097;-15.373749732971191;-13.146875381469727
945;0.0;0.0;0.0;0.21276798844337463;-0.16494399309158325;1.122399926185608;0.0;0.0;0.0
947;0.0;0.0;0.0;0.24399998784065247;-0.18836799263954163;1.1311839818954468;0.0;0.0;0.0
950;0.0;0.0;0.0;0.23228800296783447;-0.17665599286556244;1.097999930381775;0.0;0.0;0.0
952;0.11907199770212173;-0.0453839972615242;1.0016199350357056;0.22448000311851501;-0.18055999279022217;1.1067839860916138;-3.6881251335144043;-16.423749923706055;-12.376874923706055
954;0.0;0.0;0.0;0.18544000387191772;-0.18836799263954163;1.10971200466156;0.0;0.0;0.0
956;0.0;0.0;0.0;0.1815359890460968;-0.1727519929409027;1.10971200466156;0.0;0.0;0.0
958;0.0;0.0;0.0;0.16201600432395935;-0.23131199181079865;1.10971200466156;0.0;0.0;0.0
960;0.07173600047826767;-0.05416800081729889;0.9911279678344727;0.14640000462532043;-0.19227199256420135;1.1058080196380615;-5.718125343322754;-15.723750114440918;-11.676875114440918
963;0.0;0.0;0.0;0.15811198949813843;-0.21569599211215973;1.1136159896850586;0.0;0.0;0.0
964;0.0;0.0;0.0;0.1424959897994995;-0.21959999203681946;1.1058080196380615;0.0;0.0;0.0
967;0.0;0.0;0.0;0.1268799901008606;-0.2117919921875;1.0970239639282227;0.0;0.0;0.0
969;0.017324000597000122;-0.062463998794555664;0.9821000099182129;0.115167997777462;-0.21959999203681946;1.097999930381775;-5.228125095367432;-14.673749923706055;-11.326875686645508
971;0.0;0.0;0.0;0.0849120020866394;-0.1844639927148819;1.1067839860916138;0.0;0.0;0.0
973;0.0;0.0;0.0;0.10052800178527832;-0.19617599248886108;1.1106879711151123;0.0;0.0;0.0
975;0.0;0.0;0.0;0.06539200246334076;-0.20398399233818054;1.097999930381775;0.0;0.0;0.0
977;-0.04318799823522568;-0.06002400070428848;0.9808799624443054;0.053679998964071274;-0.19227199256420135;1.122399926185608;-2.2881250381469727;-13.623749732971191;-10.69687557220459
979;0.0;0.0;0.0;0.010735999792814255;-0.1844639927148819;1.1067839860916138;0.0;0.0;0.0
981;0.0;0.0;0.0;0.0029279999434947968;-0.16103999316692352;1.097999930381775;0.0;0.0;0.0
984;0.0;0.0;0.0;-0.020495999604463577;-0.16884799301624298;1.097999930381775;0.0;0.0;0.0
986;-0.12419600039720535;-0.037087999284267426;0.9840520024299622;-0.032207999378442764;-0.15323199331760406;1.1106879711151123;2.051874876022339;-13.623749732971191;-9.366875648498535
988;0.0;0.0;0.0;-0.07124799489974976;-0.15323199331760406;1.1067839860916138;0.0;0.0;0.0
990;0.0;0.0;0.0;-0.07515199482440948;-0.11419199407100677;1.0901919603347778;0.0;0.0;0.0
992;0.0;0.0;0.0;-0.06734399497509003;-0.1298079937696457;1.0862879753112793;0.0;0.0;0.0
994;-0.1954440027475357;0.00024399999529123306;0.9918599724769592;-0.11028799414634705;-0.10247999429702759;1.1311839818954468;6.041874885559082;-14.25374984741211;-7.82687520980835
996;0.0;0.0;0.0;-0.09467199444770813;-0.12199999392032623;1.1428959369659424;0.0;0.0;0.0
998;0.0;0.0;0.0;-0.12590399384498596;-0.09467199444770813;1.126304030418396;0.0;0.0;0.0
1001;0.0;0.0;0.0;-0.1298079937696457;-0.0907679945230484;1.150704026222229;0.0;0.0;0.0
1003;-0.2500999867916107;0.03903999924659729;1.010159969329834;-0.1298079937696457;-0.07515199482440948;1.146799921989441;7.861875057220459;-14.883749961853027;-6.426875114440918
1005;0.0;0.0;0.0;-0.15225599706172943;-0.05172799900174141;1.1633919477462769;0.0;0.0;0.0
1007;0.0;0.0;0.0;-0.1600639969110489;-0.05172799900174141;1.1428959369659424;0.0;0.0;0.0
1009;0.0;0.0;0.0;-0.17177599668502808;-0.06734399497509003;1.1594879627227783;0.0;0.0;0.0
1011;-0.2945079803466797;0.07295599579811096;1.016503930091858;-0.17958399653434753;-0.07124799489974976;1.1428959369659424;6.741875171661377;-15.373749732971191;-5.16687536239624
1013;0.0;0.0;0.0;-0.19910399615764618;-0.05563199892640114;1.1594879627227783;0.0;0.0;0.0
1015;0.0;0.0;0.0;-0.20691199600696564;-0.020495999604463577;1.1555839776992798;0.0;0.0;0.0
1018;0.0;0.0;0.0;-0.23423999547958374;-0.01659199967980385;1.1672959327697754;0.0;0.0;0.0
1020;-0.346235990524292;0.10809199512004852;1.0269960165023804;-0.2420479953289032;-0.020495999604463577;1.1594879627227783;3.661875009536743;-15.163749694824219;-3.976875066757202
1022;0.0;0.0;0.0;-0.2693759799003601;0.010735999792814255;1.1428959369659424;0.0;0.0;0.0
1024;0.0;0.0;0.0;-0.2693759799003601;0.014639999717473984;1.122399926185608;0.0;0.0;0.0
1026;0.0;0.0;0.0;-0.22643199563026428;0.02635199949145317;1.146799921989441;0.0;0.0;0.0
1028;-0.38088399171829224;0.15274399518966675;1.0252879858016968;-0.2576639950275421;0.022447999566793442;1.1516799926757812;-0.8181250095367432;-13.69374942779541;-2.296875
1030;0.0;0.0;0.0;-0.27327999472618103;0.04196799919009209;1.146799921989441;0.0;0.0;0.0
1032;0.0;0.0;0.0;-0.284991979598999;0.03806399926543236;1.1926720142364502;0.0;0.0;0.0
1035;0.0;0.0;0.0;-0.30060797929763794;0.022447999566793442;1.1799839735031128;0.0;0.0;0.0
1037;-0.4189479947090149;0.16591998934745789;1.0487120151519775;-0.33183997869491577;0.010735999792814255;1.2043839693069458;-4.738125324249268;-12.43375015258789;2.1831250190734863
1039;0.0;0.0;0.0;-0.3357439935207367;0.018543999642133713;1.1760799884796143;0.0;0.0;0.0
1041;0.0;0.0;0.0;-0.31622397899627686;0.057583998888731;1.1877919435501099;0.0;0.0;0.0
1043;0.0;0.0;0.0;-0.3396480083465576;0.049775999039411545;1.2121919393539429;0.0;0.0;0.0
1045;-0.4660399854183197;0.17445999383926392;1.0638400316238403;-0.38259199261665344;0.045871999114751816;1.2043839693069458;-9.498125076293945;-12.43375015258789;6.943124771118164
1048;0.0;0.0;0.0;-0.41284799575805664;0.053679998964071274;1.2043839693069458;0.0;0.0;0.0
1049;0.0;0.0;0.0;-0.4206559956073761;0.022447999566793442;1.2444000244140625;0.0;0.0;0.0
1052;0.0;0.0;0.0;-0.44017598032951355;0.03806399926543236;1.2531839609146118;0.0;0.0;0.0
1054;-0.5487560033798218;0.16152799129486084;1.1067839860916138;-0.4596959948539734;-0.020495999604463577;1.2453759908676147;-15.938124656677246;-10.473750114440918;11.353124618530273
1056;0.0;0.0;0.0;-0.46750399470329285;-0.01659199967980385;1.2697759866714478;0.0;0.0;0.0
1058;0.0;0.0;0.0;-0.48311999440193176;-0.020495999604463577;1.2404959201812744;0.0;0.0;0.0
1060;0.0;0.0;0.0;-0.4440799951553345;-0.01659199967980385;1.2365919351577759;0.0;0.0;0.0
1062;-0.5858439803123474;0.1210239976644516;1.1204479932785034;-0.48311999440193176;-0.03611199930310249;1.2453759908676147;-23.428125381469727;-11.313750267028809;12.05312442779541
1065;0.0;0.0;0.0;-0.4753119945526123;-0.05563199892640114;1.2453759908676147;0.0;0.0;0.0
1066;0.0;0.0;0.0;-0.4714079797267914;-0.05563199892640114;1.2414720058441162;0.0;0.0;0.0
1069;0.0;0.0;0.0;-0.46750399470329285;-0.08295999467372894;1.2287839651107788;0.0;0.0;0.0
1071;-0.5987759828567505;0.06880799680948257;1.118251919746399;-0.48311999440193176;-0.12590399384498596;1.2365919351577759;-27.978124618530273;-8.93375015258789;10.093124389648438
1073;0.0;0.0;0.0;-0.47921597957611084;-0.12590399384498596;1.223904013633728;0.0;0.0;0.0
1075;0.0;0.0;0.0;-0.45188799500465393;-0.1298079937696457;1.231711983680725;0.0;0.0;0.0
1077;0.0;0.0;0.0;-0.3786879777908325;-0.12590399384498596;1.256111979484558;0.0;0.0;0.0
1079;-0.5660799741744995;0.00634399987757206;1.1177639961242676;-0.4635999798774719;-0.1298079937696457;1.2766079902648926;-26.018125534057617;-9.213749885559082;7.783124923706055
1082;0.0;0.0;0.0;-0.4909279942512512;-0.15323199331760406;1.272704005241394;0.0;0.0;0.0
1084;0.0;0.0;0.0;-0.4714079797267914;-0.11028799414634705;1.2766079902648926;0.0;0.0;0.0
1086;0.0;0.0;0.0;-0.4870239794254303;-0.14151999354362488;1.2600159645080566;0.0;0.0;0.0
1088;-0.6051200032234192;-0.009759999811649323;1.1448479890823364;-0.4987359941005707;-0.16494399309158325;1.2883199453353882;-21.678125381469727;-8.793749809265137;7.08312463760376
1090;0.0;0.0;0.0;-0.5143519639968872;-0.16494399309158325;1.2775839567184448;0.0;0.0;0.0
1092;0.0;0.0;0.0;-0.5260639786720276;-0.1454239934682846;1.2648959159851074;0.0;0.0;0.0
1094;0.0;0.0;0.0;-0.522159993648529;-0.16103999316692352;1.2609919309616089;0.0;0.0;0.0
1096;-0.6536759734153748;-0.014883999712765217;1.1431399583816528;-0.5299679636955261;-0.16494399309158325;1.2814879417419434;-15.23812484741211;-10.403749465942383;3.023124933242798
1099;0.0;0.0;0.0;-0.522159993648529;-0.16103999316692352;1.2648959159851074;0.0;0.0;0.0
1101;0.0;0.0;0.0;-0.5260639786720276;-0.15323199331760406;1.28929603099823;0.0;0.0;0.0
1103;0.0;0.0;0.0;-0.5299679636955261;-0.16103999316692352;1.2736799716949463;0.0;0.0;0.0
1105;-0.6548959612846375;-0.012931999750435352;1.1406999826431274;-0.522159993648529;-0.13761599361896515;1.272704005241394;-8.448124885559082;-10.543749809265137;-3.906874895095825
1107;0.0;0.0;0.0;-0.5065439939498901;-0.13761599361896515;1.2814879417419434;0.0;0.0;0.0
1109;0.0;0.0;0.0;-0.5104479789733887;-0.13371199369430542;1.2697759866714478;0.0;0.0;0.0
1111;0.0;0.0;0.0;-0.47921597957611084;-0.11028799414634705;1.285391926765442;0.0;0.0;0.0
1113;-0.6278119683265686;0.01268799975514412;1.1431399583816528;-0.48311999440193176;-0.11419199407100677;1.2609919309616089;-2.4981250762939453;-12.223750114440918;-9.016875267028809
1116;0.0;0.0;0.0;-0.4714079797267914;-0.08686399459838867;1.2648959159851074;0.0;0.0;0.0
1118;0.0;0.0;0.0;-0.49483197927474976;-0.08295999467372894;1.2570879459381104;0.0;0.0;0.0
1120;0.0;0.0;0.0;-0.47921597957611084;-0.07515199482440948;1.2609919309616089;0.0;0.0;0.0
1122;-0.6007279753684998;0.05636399984359741;1.140455961227417;-0.49483197927474976;-0.04782399907708168;1.2688000202178955;2.471874952316284;-14.25374984741211;-11.6068754196167
1124;0.0;0.0;0.0;-0.45579198002815247;-0.04391999915242195;1.2453759908676147;0.0;0.0;0.0
1126;0.0;0.0;0.0;-0.4323679804801941;-0.04782399907708168;1.2492799758911133;0.0;0.0;0.0
1128;0.0;0.0;0.0;-0.4440799951553345;-0.020495999604463577;1.2775839567184448;0.0;0.0;0.0
1130;-0.574131965637207;0.09125600010156631;1.1277679204940796;-0.4206559956073761;-0.04782399907708168;1.2492799758911133;5.201874732971191;-16.633750915527344;-12.236875534057617
1133;0.0;0.0;0.0;-0.42455998063087463;-0.028303999453783035;1.2326879501342773;0.0;0.0;0.0
1135;0.0;0.0;0.0;-0.41284799575805664;-0.032207999378442764;1.2326879501342773;0.0;0.0;0.0
1137;0.0;0.0;0.0;-0.41284799575805664;-0.03611199930310249;1.2287839651107788;0.0;0.0;0.0
1139;-0.5389959812164307;0.10077200084924698;1.1067839860916138;-0.38259199261665344;-0.028303999453783035;1.2121919393539429;5.481874942779541;-18.66375160217285;-10.486875534057617
1141;0.0;0.0;0.0;-0.38649600744247437;-0.04391999915242195;1.1965759992599487;0.0;0.0;0.0
1143;0.0;0.0;0.0;-0.37088000774383545;-0.05953599885106087;1.2121919393539429;0.0;0.0;0.0
1145;0.0;0.0;0.0;-0.374783992767334;-0.05953599885106087;1.1877919435501099;0.0;0.0;0.0
1147;-0.4970279932022095;0.08637599647045135;1.0782359838485718;-0.3513599932193756;-0.05563199892640114;1.1712000370025635;4.361875057220459;-19.7137508392334;-7.756875038146973
1150;0.0;0.0;0.0;-0.34355199337005615;-0.05563199892640114;1.1721760034561157;0.0;0.0;0.0
1152;0.0;0.0;0.0;-0.3396480083465576;-0.07124799489974976;1.1428959369659424;0.0;0.0;0.0
1154;0.0;0.0;0.0;-0.3201279938220978;-0.09467199444770813;1.150704026222229;0.0;0.0;0.0
1156;-0.452131986618042;0.0558759979903698;1.0355359315872192;-0.30060797929763794;-0.0907679945230484;1.1350879669189453;3.591874837875366;-19.853750228881836;-5.726875305175781
1158;0.0;0.0;0.0;-0.27718400955200195;-0.1180959939956665;1.1184959411621094;0.0;0.0;0.0
1160;0.0;0.0;0.0;-0.31622397899627686;-0.10638399422168732;1.126304030418396;0.0;0.0;0.0
1162;0.0;0.0;0.0;-0.29280000925064087;-0.11028799414634705;1.1145919561386108;0.0;0.0;0.0
1164;-0.41235998272895813;0.023423999547958374;0.994055986404419;-0.2654719948768616;-0.13371199369430542;1.1106879711151123;4.361875057220459;-19.503751754760742;-4.256875038146973
1167;0.0;0.0;0.0;-0.27718400955200195;-0.1298079937696457;1.1028800010681152;0.0;0.0;0.0
1169;0.0;0.0;0.0;-0.26156800985336304;-0.13371199369430542;1.0784800052642822;0.0;0.0;0.0
1171;0.0;0.0;0.0;-0.22252799570560455;-0.14932799339294434;1.0657919645309448;0.0;0.0;0.0
1173;-0.3745400011539459;-0.00317199993878603;0.9628239870071411;-0.23814399540424347;-0.14151999354362488;1.0579839944839478;5.901875019073486;-18.173749923706055;-2.786875009536743
1175;0.0;0.0;0.0;-0.21862399578094482;-0.14932799339294434;1.060912013053894;0.0;0.0;0.0
1177;0.0;0.0;0.0;-0.1600639969110489;-0.15323199331760406;1.044319987297058;0.0;0.0;0.0
1179;0.0;0.0;0.0;-0.1756799966096878;-0.1571359932422638;1.019919991493225;0.0;0.0;0.0
1181;-0.31500399112701416;-0.016835998743772507;0.9276880025863647;-0.13761599361896515;-0.1727519929409027;1.0082080364227295;7.021874904632568;-16.2137508392334;-1.8768750429153442
1184;0.0;0.0;0.0;-0.11028799414634705;-0.16103999316692352;1.0160160064697266;0.0;0.0;0.0
1186;0.0;0.0;0.0;-0.11419199407100677;-0.1571359932422638;1.0043039321899414;0.0;0.0;0.0
1188;0.0;0.0;0.0;-0.05563199892640114;-0.1571359932422638;1.0082080364227295;0.0;0.0;0.0
1190;-0.22472399473190308;-0.0287919994443655;0.8859639763832092;-0.05563199892640114;-0.16494399309158325;0.9916160106658936;8.07187557220459;-13.203749656677246;-1.2468750476837158
1192;0.0;0.0;0.0;-0.01268799975514412;-0.1571359932422638;0.9564799666404724;0.0;0.0;0.0
1194;0.0;0.0;0.0;-0.01268799975514412;-0.1727519929409027;0.9847840070724487;0.0;0.0;0.0
1196;0.0;0.0;0.0;0.03806399926543236;-0.1844639927148819;0.9808799624443054;0.0;0.0;0.0
1198;-0.1315159946680069;-0.03513599932193756;0.84716796875;0.04196799919009209;-0.17665599286556244;0.9681919813156128;8.841875076293945;-8.93375015258789;-0.2668749988079071
1201;0.0;0.0;0.0;0.03806399926543236;-0.16103999316692352;0.9398880004882812;0.0;0.0;0.0
1203;0.0;0.0;0.0;0.03806399926543236;-0.15323199331760406;0.9564799666404724;0.0;0.0;0.0
1205;0.0;0.0;0.0;0.06929600238800049;-0.14151999354362488;0.9564799666404724;0.0;0.0;0.0
1207;-0.06197600066661835;-0.020495999604463577;0.8247199654579163;0.08100800216197968;-0.13371199369430542;0.9398880004882812;8.701875686645508;-4.803750038146973;0.9231250286102295
1209;0.0;0.0;0.0;0.1268799901008606;-0.13371199369430542;0.9359839558601379;0.0;0.0;0.0
1211;0.0;0.0;0.0;0.09955199807882309;-0.12590399384498596;0.9437919855117798;0.0;0.0;0.0
1213;0.0;0.0;0.0;0.13468798995018005;-0.14151999354362488;0.9281759858131409;0.0;0.0;0.0
1215;-0.007563999854028225;0.0017079999670386314;0.8164240121841431;0.1542080044746399;-0.12199999392032623;0.9398880004882812;7.301875114440918;-0.7437499761581421;1.553125023841858
1218;0.0;0.0;0.0;0.16201600432395935;-0.11419199407100677;0.9320799708366394;0.0;0.0;0.0
1220;0.0;0.0;0.0;0.18934398889541626;-0.13371199369430542;0.9398880004882812;0.0;0.0;0.0
1222;0.0;0.0;0.0;0.1698240041732788;-0.11028799414634705;0.9486719965934753;0.0;0.0;0.0
1224;0.049531999975442886;0.014151999726891518;0.8191080093383789;0.20495998859405518;-0.09857599437236786;0.9564799666404724;6.041874885559082;3.456249952316284;2.883125066757202
1226;0.0;0.0;0.0;0.1815359890460968;-0.10638399422168732;0.9525759816169739;0.0;0.0;0.0
1228;0.0;0.0;0.0;0.20105600357055664;-0.11419199407100677;0.9486719965934753;0.0;0.0;0.0
1230;0.0;0.0;0.0;0.19715198874473572;-0.10638399422168732;0.9720959663391113;0.0;0.0;0.0
1232;0.06905199587345123;0.02000799961388111;0.8249639868736267;0.20495998859405518;-0.11028799414634705;0.9437919855117798;5.061874866485596;7.02625036239624;4.9131245613098145
1235;0.0;0.0;0.0;0.19324800372123718;-0.12590399384498596;0.9681919813156128;0.0;0.0;0.0
1237;0.0;0.0;0.0;0.20105600357055664;-0.11419199407100677;0.9681919813156128;0.0;0.0;0.0
1239;0.0;0.0;0.0;0.18934398889541626;-0.13761599361896515;0.9476959705352783;0.0;0.0;0.0
1241;0.07759200036525726;0.01439599972218275;0.8347240090370178;0.18544000387191772;-0.12590399384498596;0.9642879962921143;4.431874752044678;10.596250534057617;6.803124904632568
1243;0.0;0.0;0.0;0.22448000311851501;-0.11419199407100677;0.9720959663391113;0.0;0.0;0.0
1245;0.0;0.0;0.0;0.2205759882926941;-0.11028799414634705;0.9564799666404724;0.0;0.0;0.0
1247;0.0;0.0;0.0;0.236191987991333;-0.14151999354362488;0.9681919813156128;0.0;0.0;0.0
1249;0.08832799643278122;0.00634399987757206;0.839847981929779;0.236191987991333;-0.1298079937696457;0.9886879920959473;6.251874923706055;12.90625;9.3931245803833
1252;0.0;0.0;0.0;0.24009600281715393;-0.1180959939956665;0.9603840112686157;0.0;0.0;0.0
1254;0.0;0.0;0.0;0.25571200251579285;-0.10638399422168732;0.9808799624443054;0.0;0.0;0.0
1256;0.0;0.0;0.0;0.26742398738861084;-0.1180959939956665;0.9847840070724487;0.0;0.0;0.0
1258;0.12541599571704865;0.023423999547958374;0.8557080030441284;0.3025600016117096;-0.0907679945230484;0.9808799624443054;9.961874961853027;13.676250457763672;12.263124465942383
1260;0.0;0.0;0.0;0.30646398663520813;-0.09467199444770813;0.9711199998855591;0.0;0.0;0.0
1262;0.0;0.0;0.0;0.3533119857311249;-0.11028799414634705;0.9428159594535828;0.0;0.0;0.0
1264;0.0;0.0;0.0;0.3718560039997101;-0.09467199444770813;0.9672159552574158;0.0;0.0;0.0
1266;0.22130799293518066;0.04172400012612343;0.8396039605140686;0.3757599890232086;-0.0634399950504303;0.9759999513626099;14.021875381469727;14.796250343322754;15.973125457763672
1269;0.0;0.0;0.0;0.3757599890232086;-0.028303999453783035;1.0082080364227295;0.0;0.0;0.0
1271;0.0;0.0;0.0;0.39137598872184753;-0.028303999453783035;1.019919991493225;0.0;0.0;0.0
1273;0.0;0.0;0.0;0.36795198917388916;-0.07905599474906921;1.0326080322265625;0.0;0.0;0.0
1275;0.2618120014667511;0.09393999725580215;0.8835240006446838;0.3718560039997101;-0.05172799900174141;1.019919991493225;15.491875648498535;15.986250877380371;21.503124237060547
1277;0.0;0.0;0.0;0.37966400384902954;-0.004879999905824661;1.0413919687271118;0.0;0.0;0.0
1279;0.0;0.0;0.0;0.36795198917388916;-0.020495999604463577;1.0618879795074463;0.0;0.0;0.0
1281;0.0;0.0;0.0;0.3718560039997101;-0.032207999378442764;1.0579839944839478;0.0;0.0;0.0
1283;0.2525399923324585;0.11199599504470825;0.9220759868621826;0.39528000354766846;-0.032207999378442764;1.0491999387741089;10.66187572479248;17.17624855041504;23.813125610351562
1286;0.0;0.0;0.0;0.39137598872184753;-0.032207999378442764;1.0579839944839478;0.0;0.0;0.0
1288;0.0;0.0;0.0;0.39137598872184753;-0.05172799900174141;1.0901919603347778;0.0;0.0;0.0
1290;0.0;0.0;0.0;0.399183988571167;-0.07124799489974976;1.0696959495544434;0.0;0.0;0.0
1292;0.27620798349380493;0.09272000193595886;0.9362279772758484;0.4147999882698059;-0.05563199892640114;1.0491999387741089;3.171875;17.31624984741211;23.253124237060547
1294;0.0;0.0;0.0;0.41870400309562683;-0.07905599474906921;1.0784800052642822;0.0;0.0;0.0
1296;0.0;0.0;0.0;0.4108960032463074;-0.04391999915242195;1.0579839944839478;0.0;0.0;0.0
1298;0.0;0.0;0.0;0.4382239878177643;-0.09467199444770813;1.0823839902877808;0.0;0.0;0.0
1300;0.2962159812450409;0.06124399974942207;0.9467200040817261;0.44993600249290466;-0.07905599474906921;1.0696959495544434;-3.1281251907348633;15.56624984741211;21.713125228881836
1303;0.0;0.0;0.0;0.44603198766708374;-0.09857599437236786;1.0696959495544434;0.0;0.0;0.0
1305;0.0;0.0;0.0;0.44993600249290466;-0.09857599437236786;1.0823839902877808;0.0;0.0;0.0
1307;0.0;0.0;0.0;0.4577440023422241;-0.10247999429702759;1.073599934577942;0.0;0.0;0.0
1309;0.3386719822883606;0.030499998480081558;0.9496479630470276;0.44993600249290466;-0.09467199444770813;1.0901919603347778;-7.748125076293945;13.536250114440918;20.103124618530273
1311;0.0;0.0;0.0;0.4421280026435852;-0.11419199407100677;1.0940959453582764;0.0;0.0;0.0
1313;0.0;0.0;0.0;0.4694559872150421;-0.14151999354362488;1.0775039196014404;0.0;0.0;0.0
1315;0.0;0.0;0.0;0.4928799867630005;-0.13371199369430542;1.073599934577942;0.0;0.0;0.0
1317;0.3606320023536682;-0.00024399999529123306;0.9557479619979858;0.5319200158119202;-0.13371199369430542;1.073599934577942;-11.528124809265137;11.786250114440918;17.513124465942383
1320;0.0;0.0;0.0;0.5592479705810547;-0.13761599361896515;1.0452959537506104;0.0;0.0;0.0
1322;0.0;0.0;0.0;0.5826719999313354;-0.14151999354362488;1.0696959495544434;0.0;0.0;0.0
1324;0.0;0.0;0.0;0.6285439729690552;-0.1298079937696457;1.0696959495544434;0.0;0.0;0.0
1326;0.4555479884147644;-0.00634399987757206;0.9374479651451111;0.6021919846534729;-0.15323199331760406;1.0862879753112793;-11.668124198913574;11.786250114440918;15.203125
1328;0.0;0.0;0.0;0.6060959696769714;-0.14151999354362488;1.0814080238342285;0.0;0.0;0.0
1330;0.0;0.0;0.0;0.6168320178985596;-0.1454239934682846;1.0775039196014404;0.0;0.0;0.0
1332;0.0;0.0;0.0;0.6519680023193359;-0.14932799339294434;1.0491999387741089;0.0;0.0;0.0
1334;0.4975159764289856;-0.015859998762607574;0.9496479630470276;0.5973119735717773;-0.17665599286556244;1.0687199831008911;-10.688124656677246;12.486249923706055;14.713125228881836
1337;0.0;0.0;0.0;0.6139039993286133;-0.17665599286556244;1.0687199831008911;0.0;0.0;0.0
1339;0.0;0.0;0.0;0.6129279732704163;-0.16884799301624298;1.0531039237976074;0.0;0.0;0.0
1341;0.0;0.0;0.0;0.636352002620697;-0.20788799226284027;1.0404160022735596;0.0;0.0;0.0
1343;0.49190399050712585;-0.04123599827289581;0.9340319633483887;0.6441599726676941;-0.16884799301624298;1.0404160022735596;-8.5181245803833;14.446249961853027;11.213125228881836
1345;0.0;0.0;0.0;0.6636799573898315;-0.18836799263954163;1.0413919687271118;0.0;0.0;0.0
1347;0.0;0.0;0.0;0.6558719873428345;-0.19617599248886108;1.0618879795074463;0.0;0.0;0.0
1349;0.0;0.0;0.0;0.6519680023193359;-0.1844639927148819;1.0531039237976074;0.0;0.0;0.0
1351;0.5250880122184753;-0.06148799881339073;0.9252479672431946;0.636352002620697;-0.18055999279022217;1.0657919645309448;-3.408125162124634;16.826250076293945;9.463125228881836
1354;0.0;0.0;0.0;0.6519680023193359;-0.2000799924135208;1.0657919645309448;0.0;0.0;0.0
1356;0.0;0.0;0.0;0.6168320178985596;-0.17665599286556244;1.0940959453582764;0.0;0.0;0.0
1358;0.0;0.0;0.0;0.5748639702796936;-0.14151999354362488;1.1389919519424438;0.0;0.0;0.0
1360;0.4926359951496124;-0.04270000010728836;0.9703879952430725;0.6246399879455566;-0.14932799339294434;1.097999930381775;0.37187498807907104;20.60624885559082;8.273124694824219
1362;0.0;0.0;0.0;0.6402559876441956;-0.16494399309158325;1.1311839818954468;0.0;0.0;0.0
1364;0.0;0.0;0.0;0.5982879996299744;-0.16103999316692352;1.122399926185608;0.0;0.0;0.0
1366;0.0;0.0;0.0;0.5670560002326965;-0.14932799339294434;1.1389919519424438;0.0;0.0;0.0
1368;0.47799599170684814;-0.02147199958562851;0.9999119639396667;0.5670560002326965;-0.1180959939956665;1.1516799926757812;1.421875;21.026248931884766;5.053124904632568
1371;0.0;0.0;0.0;0.5592479705810547;-0.1180959939956665;1.1633919477462769;0.0;0.0;0.0
1373;0.0;0.0;0.0;0.5436319708824158;-0.16494399309158325;1.1760799884796143;0.0;0.0;0.0
1375;0.0;0.0;0.0;0.5514400005340576;-0.1180959939956665;1.1799839735031128;0.0;0.0;0.0
1377;0.43187999725341797;0.0017079999670386314;1.0499320030212402;0.5553439855575562;-0.12199999392032623;1.1838879585266113;1.3518750667572021;18.506248474121094;4.353124618530273
1379;0.0;0.0;0.0;0.5319200158119202;-0.08686399459838867;1.1877919435501099;0.0;0.0;0.0
1381;0.0;0.0;0.0;0.5358240008354187;-0.10247999429702759;1.1877919435501099;0.0;0.0;0.0
1383;0.0;0.0;0.0;0.5592479705810547;-0.09857599437236786;1.2043839693069458;0.0;0.0;0.0
1385;0.423583984375;0.03001200035214424;1.0638400316238403;0.5709599852561951;-0.07515199482440948;1.1633919477462769;-0.328125;13.186250686645508;5.193124771118164
1388;0.0;0.0;0.0;0.5514400005340576;-0.09857599437236786;1.1838879585266113;0.0;0.0;0.0
1390;0.0;0.0;0.0;0.5904799699783325;-0.10638399422168732;1.1760799884796143;0.0;0.0;0.0
1392;0.0;0.0;0.0;0.6012159585952759;-0.0907679945230484;1.1799839735031128;0.0;0.0;0.0
1394;0.4609159827232361;0.033427998423576355;1.0482239723205566;0.6129279732704163;-0.12590399384498596;1.146799921989441;-2.9881250858306885;7.02625036239624;4.983124732971191
1396;0.0;0.0;0.0;0.6509919762611389;-0.12492799758911133;1.1311839818954468;0.0;0.0;0.0
1398;0.0;0.0;0.0;0.6431840062141418;-0.10150399804115295;1.1272799968719482;0.0;0.0;0.0
1400;0.0;0.0;0.0;0.7212640047073364;-0.10931199789047241;1.1106879711151123;0.0;0.0;0.0
1402;0.5636399984359741;0.030988000333309174;1.00381600856781;0.7173599600791931;-0.08588799834251404;1.1350879669189453;-4.878125190734863;4.43625020980835;4.143124580383301
1405;0.0;0.0;0.0;0.732975959777832;-0.08979199826717377;1.0940959453582764;0.0;0.0;0.0
1407;0.0;0.0;0.0;0.7290719747543335;-0.1210239976644516;1.1106879711151123;0.0;0.0;0.0
1409;0.0;0.0;0.0;0.725167989730835;-0.1327359974384308;1.1067839860916138;0.0;0.0;0.0
1411;0.6258599758148193;0.02903600037097931;0.9847840070724487;0.7407839894294739;-0.10540799796581268;1.1184959411621094;-5.928124904632568;5.136250019073486;5.193124771118164
1413;0.0;0.0;0.0;0.7378559708595276;-0.1298079937696457;1.0823839902877808;0.0;0.0;0.0
1415;0.0;0.0;0.0;0.7456640005111694;-0.14151999354362488;1.097999930381775;0.0;0.0;0.0
1417;0.0;0.0;0.0;0.7261439561843872;-0.1571359932422638;1.101904034614563;0.0;0.0;0.0
1419;0.6153680086135864;-0.011467999778687954;0.9662399888038635;0.7183359861373901;-0.16103999316692352;1.0696959495544434;-6.068125247955322;6.816250324249268;4.9131245613098145
1422;0.0;0.0;0.0;0.7066239714622498;-0.16494399309158325;1.0940959453582764;0.0;0.0;0.0
1424;0.0;0.0;0.0;0.7300480008125305;-0.1844639927148819;1.0579839944839478;0.0;0.0;0.0
1426;0.0;0.0;0.0;0.7261439561843872;-0.1571359932422638;1.0657919645309448;0.0;0.0;0.0
1428;0.614147961139679;-0.03855200111865997;0.9452559947967529;0.7378559708595276;-0.1844639927148819;1.073599934577942;-3.0581250190734863;7.726250171661377;2.6731250286102295
1430;0.0;0.0;0.0;0.7417600154876709;-0.17665599286556244;1.0579839944839478;0.0;0.0;0.0
1432;0.0;0.0;0.0;0.7183359861373901;-0.19227199256420135;1.0491999387741089;0.0;0.0;0.0
1434;0.0;0.0;0.0;0.7378559708595276;-0.15323199331760406;1.0618879795074463;0.0;0.0;0.0
1437;0.6246399879455566;-0.033427998423576355;0.937936007976532;0.7807999849319458;-0.1727519929409027;1.0579839944839478;1.1418750286102295;8.916250228881836;0.43312501907348633
1439;0.0;0.0;0.0;0.7612800002098083;-0.14932799339294434;1.0696959495544434;0.0;0.0;0.0
1441;0.0;0.0;0.0;0.7807999849319458;-0.14151999354362488;1.0696959495544434;0.0;0.0;0.0
1443;0.0;0.0;0.0;0.7847039699554443;-0.15323199331760406;1.0901919603347778;0.0;0.0;0.0
1445;0.6585559844970703;-0.005367999896407127;0.9384239912033081;0.7690879702568054;-0.13761599361896515;1.0618879795074463;4.571875095367432;10.456250190734863;-0.4768750071525574
1447;0.0;0.0;0.0;0.7729920148849487;-0.09467199444770813;1.0579839944839478;0.0;0.0;0.0
1449;0.0;0.0;0.0;0.7456640005111694;-0.10638399422168732;1.073599934577942;0.0;0.0;0.0
1451;0.0;0.0;0.0;0.7183359861373901;-0.10247999429702759;1.101904034614563;0.0;0.0;0.0
1453;0.6195160150527954;0.03147599846124649;0.9579439759254456;0.7105280160903931;-0.12199999392032623;1.097999930381775;5.971874713897705;12.346250534057617;0.013124998658895493
1456;0.0;0.0;0.0;0.6558719873428345;-0.08295999467372894;1.0940959453582764;0.0;0.0;0.0
1458;0.0;0.0;0.0;0.636352002620697;-0.08686399459838867;1.1184959411621094;0.0;0.0;0.0
1460;0.0;0.0;0.0;0.6441599726676941;-0.07515199482440948;1.1145919561386108;0.0;0.0;0.0
1462;0.5385079979896545;0.047335997223854065;0.9860039949417114;0.6129279732704163;-0.08295999467372894;1.1272799968719482;5.061874866485596;11.7162504196167;0.08312499523162842
1464;0.0;0.0;0.0;0.6285439729690552;-0.07515199482440948;1.1350879669189453;0.0;0.0;0.0
1466;0.0;0.0;0.0;0.6090239882469177;-0.08686399459838867;1.1145919561386108;0.0;0.0;0.0
1468;0.0;0.0;0.0;0.5787680149078369;-0.07515199482440948;1.1350879669189453;0.0;0.0;0.0
1470;0.47970399260520935;0.050995998084545135;1.0006439685821533;0.6060959696769714;-0.07905599474906921;1.1428959369659424;3.241874933242798;8.56624984741211;0.43312501907348633
1473;0.0;0.0;0.0;0.5904799699783325;-0.0907679945230484;1.1516799926757812;0.0;0.0;0.0
1475;0.0;0.0;0.0;0.6060959696769714;-0.09857599437236786;1.122399926185608;0.0;0.0;0.0
1477;0.0;0.0;0.0;0.6051200032234192;-0.0907679945230484;1.1106879711151123;0.0;0.0;0.0
1479;0.47555598616600037;0.04270000010728836;1.0008879899978638;0.6207360029220581;-0.11028799414634705;1.1184959411621094;1.071874976158142;5.626250267028809;1.9031250476837158
1481;0.0;0.0;0.0;0.6168320178985596;-0.11028799414634705;1.1389919519424438;0.0;0.0;0.0
1483;0.0;0.0;0.0;0.586575984954834;-0.12199999392032623;1.1350879669189453;0.0;0.0;0.0
1485;0.0;0.0;0.0;0.5934079885482788;-0.12199999392032623;1.1184959411621094;0.0;0.0;0.0
1488;0.4845840036869049;0.021715998649597168;0.9950319528579712;0.6012159585952759;-0.1571359932422638;1.1145919561386108;0.02187499962747097;3.456249952316284;4.003124713897705
1490;0.0;0.0;0.0;0.6246399879455566;-0.13761599361896515;1.1067839860916138;0.0;0.0;0.0
1492;0.0;0.0;0.0;0.6129279732704163;-0.1298079937696457;1.0862879753112793;0.0;0.0;0.0
1494;0.0;0.0;0.0;0.5904799699783325;-0.16494399309158325;1.0901919603347778;0.0;0.0;0.0
1496;0.47677600383758545;-0.008539999835193157;0.9725840091705322;0.6090239882469177;-0.16884799301624298;1.073599934577942;0.5118750333786011;1.9862499237060547;4.773124694824219
1498;0.0;0.0;0.0;0.586575984954834;-0.14151999354362488;1.0657919645309448;0.0;0.0;0.0
1500;0.0;0.0;0.0;0.5787680149078369;-0.16884799301624298;1.0823839902877808;0.0;0.0;0.0
1502;0.0;0.0;0.0;0.586575984954834;-0.17665599286556244;1.0940959453582764;0.0;0.0;0.0
1505;0.45481598377227783;-0.030743999406695366;0.9513559937477112;0.5826719999313354;-0.16884799301624298;1.0657919645309448;2.61187481880188;1.7062499523162842;4.003124713897705
1507;0.0;0.0;0.0;0.5280159711837769;-0.17665599286556244;1.0657919645309448;0.0;0.0;0.0
1509;0.0;0.0;0.0;0.5553439855575562;-0.1571359932422638;1.0696959495544434;0.0;0.0;0.0
1511;0.0;0.0;0.0;0.5280159711837769;-0.16103999316692352;1.0540800094604492;0.0;0.0;0.0
1513;0.4272439777851105;-0.03879600018262863;0.9401319622993469;0.5514400005340576;-0.17665599286556244;1.0862879753112793;4.991874694824219;2.40625;2.463124990463257
1515;0.0;0.0;0.0;0.5397279858589172;-0.17665599286556244;1.0491999387741089;0.0;0.0;0.0
1517;0.0;0.0;0.0;0.5123999714851379;-0.1727519929409027;1.0374879837036133;0.0;0.0;0.0
1519;0.0;0.0;0.0;0.5397279858589172;-0.1454239934682846;1.0579839944839478;0.0;0.0;0.0
1522;0.4055279791355133;-0.032207999378442764;0.9352520108222961;0.5045920014381409;-0.17665599286556244;1.0657919645309448;7.021874904632568;3.1762499809265137;0.7831250429153442
1524;0.0;0.0;0.0;0.4967840015888214;-0.1298079937696457;1.0657919645309448;0.0;0.0;0.0
1526;0.0;0.0;0.0;0.5202080011367798;-0.14932799339294434;1.0531039237976074;0.0;0.0;0.0
1528;0.0;0.0;0.0;0.5123999714851379;-0.13371199369430542;1.0618879795074463;0.0;0.0;0.0
1530;0.3852759897708893;-0.01659199967980385;0.9381799697875977;0.48507198691368103;-0.13371199369430542;1.0657919645309448;8.281875610351562;3.2462499141693115;-0.6868749856948853
1532;0.0;0.0;0.0;0.47628799080848694;-0.12492799758911133;1.0862879753112793;0.0;0.0;0.0
1534;0.0;0.0;0.0;0.472383975982666;-0.1210239976644516;1.0335839986801147;0.0;0.0;0.0
1536;0.0;0.0;0.0;0.4684799909591675;-0.1483519971370697;1.0775039196014404;0.0;0.0;0.0
1539;0.35941198468208313;-0.0012199999764561653;0.9469639658927917;0.472383975982666;-0.13663999736309052;1.073599934577942;7.301875114440918;2.476249933242798;-2.5068750381469727
1541;0.0;0.0;0.0;0.4411519765853882;-0.12883199751377106;1.0940959453582764;0.0;0.0;0.0
1543;0.0;0.0;0.0;0.4294399917125702;-0.10931199789047241;1.0775039196014404;0.0;0.0;0.0
1545;0.0;0.0;0.0;0.40991997718811035;-0.13663999736309052;1.0657919645309448;0.0;0.0;0.0
1547;0.3159799873828888;0.007563999854028225;0.9555040001869202;0.4177280068397522;-0.10931199789047241;1.0862879753112793;4.081874847412109;1.216249942779541;-4.746875286102295
1549;0.0;0.0;0.0;0.39528000354766846;-0.1454239934682846;1.0823839902877808;0.0;0.0;0.0
1551;0.0;0.0;0.0;0.387472003698349;-0.10638399422168732;1.0784800052642822;0.0;0.0;0.0
1553;0.0;0.0;0.0;0.3718560039997101;-0.1298079937696457;1.0823839902877808;0.0;0.0;0.0
1556;0.2610799968242645;0.010491999797523022;0.9628239870071411;0.3601439893245697;-0.11419199407100677;1.097999930381775;-0.11812499910593033;-0.6737499833106995;-6.426875114440918
1558;0.0;0.0;0.0;0.3640480041503906;-0.12590399384498596;1.1106879711151123;0.0;0.0;0.0
1560;0.0;0.0;0.0;0.3416000008583069;-0.12590399384498596;1.0901919603347778;0.0;0.0;0.0
1562;0.0;0.0;0.0;0.3298879861831665;-0.11028799414634705;1.0901919603347778;0.0;0.0;0.0
1564;0.2083759903907776;0.003415999934077263;0.9708759784698486;0.3025600016117096;-0.1454239934682846;1.101904034614563;-4.038125038146973;-2.5637500286102295;-7.196875095367432
1566;0.0;0.0;0.0;0.3142719864845276;-0.13371199369430542;1.0901919603347778;0.0;0.0;0.0
1568;0.0;0.0;0.0;0.30646398663520813;-0.1571359932422638;1.0940959453582764;0.0;0.0;0.0
1570;0.0;0.0;0.0;0.3025600016117096;-0.15323199331760406;1.097999930381775;0.0;0.0;0.0
1573;0.1768999993801117;-0.009271999821066856;0.9667279720306396;0.27132800221443176;-0.1571359932422638;1.0696959495544434;-5.508125305175781;-4.243749618530273;-5.796875476837158
1575;0.0;0.0;0.0;0.2908479869365692;-0.16103999316692352;1.0618879795074463;0.0;0.0;0.0
1577;0.0;0.0;0.0;0.2869440019130707;-0.16103999316692352;1.0657919645309448;0.0;0.0;0.0
1579;0.0;0.0;0.0;0.2596159875392914;-0.16494399309158325;1.0862879753112793;0.0;0.0;0.0
1581;0.1559159904718399;-0.019763998687267303;0.9523319602012634;0.2908479869365692;-0.1454239934682846;1.0696959495544434;-4.738125324249268;-3.333750009536743;-1.8768750429153442
1583;0.0;0.0;0.0;0.28303998708724976;-0.14932799339294434;1.0618879795074463;0.0;0.0;0.0
1585;0.0;0.0;0.0;0.21276798844337463;-0.16103999316692352;1.0901919603347778;0.0;0.0;0.0
1587;0.0;0.0;0.0;0.21276798844337463;-0.18055999279022217;1.0696959495544434;0.0;0.0;0.0
1590;0.09979599714279175;-0.03269600123167038;0.9496479630470276;0.20495998859405518;-0.2117919921875;1.073599934577942;-2.078125;-0.6737499833106995;3.3031251430511475
1592;0.0;0.0;0.0;0.16591998934745789;-0.2391199916601181;1.0208959579467773;0.0;0.0;0.0
1594;0.0;0.0;0.0;0.12297599762678146;-0.1298079937696457;1.073599934577942;0.0;0.0;0.0
1596;0.0;0.0;0.0;0.11224000155925751;-0.1727519929409027;1.0862879753112793;0.0;0.0;0.0
1598;0.019763998687267303;-0.0500199981033802;0.9401319622993469;0.09272000193595886;-0.18836799263954163;1.097999930381775;3.731874942779541;1.4962499141693115;4.073124885559082
1600;0.0;0.0;0.0;0.08393599838018417;-0.15225599706172943;1.097999930381775;0.0;0.0;0.0
1602;0.0;0.0;0.0;0.14932799339294434;-0.1327359974384308;1.126304030418396;0.0;0.0;0.0
1604;0.0;0.0;0.0;0.12199999392032623;-0.19519999623298645;1.0862879753112793;0.0;0.0;0.0
1607;-0.00951599981635809;-0.025863999500870705;0.9821000099182129;0.07612799853086472;-0.18348799645900726;1.0862879753112793;4.781875133514404;3.2462499141693115;4.633124828338623
1609;0.0;0.0;0.0;0.06831999868154526;-0.16787199676036835;1.0823839902877808;0.0;0.0;0.0
1611;0.0;0.0;0.0;0.07612799853086472;-0.17177599668502808;1.097999930381775;0.0;0.0;0.0
1613;0.0;0.0;0.0;0.029279999434947968;-0.1756799966096878;1.0862879753112793;0.0;0.0;0.0
1615;-0.0727119967341423;-0.025863999500870705;0.9618479609489441;0.0331839993596077;-0.15615999698638916;1.0618879795074463;6.111875057220459;6.046250343322754;6.17312479019165
1617;0.0;0.0;0.0;-0.00878399983048439;-0.14151999354362488;1.0491999387741089;0.0;0.0;0.0
1619;0.0;0.0;0.0;-0.032207999378442764;-0.1571359932422638;1.0862879753112793;0.0;0.0;0.0
1621;0.0;0.0;0.0;-0.05172799900174141;-0.1454239934682846;1.0823839902877808;0.0;0.0;0.0
1624;-0.16738399863243103;-0.004391999915242195;0.9494040012359619;-0.08295999467372894;-0.12199999392032623;1.1067839860916138;10.801875114440918;6.046250343322754;4.9131245613098145
1626;0.0;0.0;0.0;-0.10638399422168732;-0.12199999392032623;1.1106879711151123;0.0;0.0;0.0
1628;0.0;0.0;0.0;-0.13761599361896515;-0.1298079937696457;1.1145919561386108;0.0;0.0;0.0
1630;0.0;0.0;0.0;-0.14151999354362488;-0.0907679945230484;1.1184959411621094;0.0;0.0;0.0
1632;-0.26083600521087646;0.031964000314474106;0.9994239807128906;-0.19519999623298645;-0.07515199482440948;1.1633919477462769;13.881875038146973;5.836250305175781;5.473124980926514
1634;0.0;0.0;0.0;-0.21081599593162537;-0.06734399497509003;1.1838879585266113;0.0;0.0;0.0
1636;0.0;0.0;0.0;-0.23814399540424347;-0.04391999915242195;1.2082879543304443;0.0;0.0;0.0
1638;0.0;0.0;0.0;-0.2654719948768616;-0.00878399983048439;1.2248799800872803;0.0;0.0;0.0
1641;-0.3596560060977936;0.0802759975194931;1.0738439559936523;-0.2967039942741394;-0.024399999529123306;1.2453759908676147;11.781875610351562;3.8762500286102295;10.86312484741211
1643;0.0;0.0;0.0;-0.3123199939727783;-0.004879999905824661;1.2609919309616089;0.0;0.0;0.0
1645;0.0;0.0;0.0;-0.32793599367141724;-0.04001599922776222;1.2492799758911133;0.0;0.0;0.0
1647;0.0;0.0;0.0;-0.35916799306869507;-0.024399999529123306;1.2688000202178955;0.0;0.0;0.0
1649;-0.47165200114250183;0.11224000155925751;1.1282559633255005;-0.3903999924659729;-0.0009759999811649323;1.2697759866714478;4.64187479019165;-0.8837500214576721;16.88312530517578
1651;0.0;0.0;0.0;-0.3630719780921936;-0.00878399983048439;1.2736799716949463;0.0;0.0;0.0
1653;0.0;0.0;0.0;-0.38942399621009827;-0.00878399983048439;1.2814879417419434;0.0;0.0;0.0
1655;0.0;0.0;0.0;-0.39820799231529236;-0.024399999529123306;1.2648959159851074;0.0;0.0;0.0
1658;-0.5187439918518066;0.11687599867582321;1.1485079526901245;-0.4089439809322357;-0.020495999604463577;1.285391926765442;-3.198125123977661;-6.903749942779541;23.323123931884766
1660;0.0;0.0;0.0;-0.4206559956073761;-0.01268799975514412;1.2775839567184448;0.0;0.0;0.0
1662;0.0;0.0;0.0;-0.42846399545669556;-0.01659199967980385;1.2609919309616089;0.0;0.0;0.0
1664;0.0;0.0;0.0;-0.45579198002815247;-0.05172799900174141;1.2531839609146118;0.0;0.0;0.0
1666;-0.5426560044288635;0.09393999725580215;1.1394799947738647;-0.4323679804801941;-0.04782399907708168;1.2736799716949463;-10.968124389648438;-11.523750305175781;28.853124618530273
1668;0.0;0.0;0.0;-0.42846399545669556;-0.07515199482440948;1.2404959201812744;0.0;0.0;0.0
1670;0.0;0.0;0.0;-0.41284799575805664;-0.09467199444770813;1.2365919351577759;0.0;0.0;0.0
1673;0.0;0.0;0.0;-0.3933279812335968;-0.08295999467372894;1.2609919309616089;0.0;0.0;0.0
1675;-0.5472919940948486;0.054899998009204865;1.1143479347229004;-0.3903999924659729;-0.08686399459838867;1.2248799800872803;-16.77812385559082;-14.5337495803833;31.653125762939453
1677;0.0;0.0;0.0;-0.4089439809322357;-0.05953599885106087;1.2453759908676147;0.0;0.0;0.0
1679;0.0;0.0;0.0;-0.447983980178833;-0.0634399950504303;1.2365919351577759;0.0;0.0;0.0
1681;0.0;0.0;0.0;-0.42846399545669556;-0.09467199444770813;1.2775839567184448;0.0;0.0;0.0
1683;-0.5504639744758606;0.04636000096797943;1.1209360361099243;-0.4714079797267914;-0.12199999392032623;1.2658720016479492;-20.698123931884766;-14.883749961853027;34.31312561035156
1685;0.0;0.0;0.0;-0.46750399470329285;-0.13761599361896515;1.2648959159851074;0.0;0.0;0.0
1687;0.0;0.0;0.0;-0.4635999798774719;-0.1571359932422638;1.2736799716949463;0.0;0.0;0.0
1690;0.0;0.0;0.0;-0.4909279942512512;-0.2117919921875;1.2648959159851074;0.0;0.0;0.0
1692;-0.6158559918403625;-0.019519999623298645;1.1428959369659424;-0.5104479789733887;-0.20788799226284027;1.2531839609146118;-28.11812400817871;-15.44374942779541;34.80312728881836
1694;0.0;0.0;0.0;-0.545583963394165;-0.23131199181079865;1.2287839651107788;0.0;0.0;0.0
1696;0.0;0.0;0.0;-0.5416799783706665;-0.2391199916601181;1.2121919393539429;0.0;0.0;0.0
1698;0.0;0.0;0.0;-0.5299679636955261;-0.2508319914340973;1.2248799800872803;0.0;0.0;0.0
1700;-0.6473320126533508;-0.10150399804115295;1.1016600131988525;-0.5299679636955261;-0.27035200595855713;1.2287839651107788;-33.78812789916992;-14.673749923706055;30.603124618530273
1702;0.0;0.0;0.0;-0.5260639786720276;-0.26254400610923767;1.2082879543304443;0.0;0.0;0.0
1704;0.0;0.0;0.0;-0.5299679636955261;-0.27425599098205566;1.2287839651107788;0.0;0.0;0.0
1707;0.0;0.0;0.0;-0.545583963394165;-0.28596800565719604;1.2404959201812744;0.0;0.0;0.0
1709;-0.6612399816513062;-0.14151999354362488;1.085312008857727;-0.545583963394165;-0.2937760055065155;1.1926720142364502;-32.52812576293945;-13.763750076293945;24.86312484741211
1711;0.0;0.0;0.0;-0.5572959780693054;-0.3054879903793335;1.2248799800872803;0.0;0.0;0.0
1713;0.0;0.0;0.0;-0.5729119777679443;-0.2937760055065155;1.2365919351577759;0.0;0.0;0.0
1715;0.0;0.0;0.0;-0.561199963092804;-0.2820639908313751;1.2326879501342773;0.0;0.0;0.0
1717;-0.6819800138473511;-0.1559159904718399;1.0984879732131958;-0.5690079927444458;-0.2937760055065155;1.2414720058441162;-28.188125610351562;-12.573749542236328;18.143125534057617
1719;0.0;0.0;0.0;-0.5426560044288635;-0.28889599442481995;1.2531839609146118;0.0;0.0;0.0
1721;0.0;0.0;0.0;-0.5153279900550842;-0.27718400955200195;1.2609919309616089;0.0;0.0;0.0
1724;0.0;0.0;0.0;-0.5075199604034424;-0.28889599442481995;1.2697759866714478;0.0;0.0;0.0
1726;-0.6453799605369568;-0.15445199608802795;1.1380159854888916;-0.460671991109848;-0.29280000925064087;1.2688000202178955;-24.268125534057617;-13.413749694824219;10.163125038146973
1728;0.0;0.0;0.0;-0.4840959906578064;-0.2810879945755005;1.309791922569275;0.0;0.0;0.0
1730;0.0;0.0;0.0;-0.47628799080848694;-0.28889599442481995;1.313696026802063;0.0;0.0;0.0
1732;0.0;0.0;0.0;-0.45286399126052856;-0.2537599802017212;1.309791922569275;0.0;0.0;0.0
1734;-0.5926759839057922;-0.14737600088119507;1.1721760034561157;-0.47628799080848694;-0.27718400955200195;1.3019839525222778;-20.978124618530273;-14.743749618530273;3.3031251430511475
1736;0.0;0.0;0.0;-0.44017598032951355;-0.3211039900779724;1.313696026802063;0.0;0.0;0.0
1738;0.0;0.0;0.0;-0.4596959948539734;-0.2898719906806946;1.3019839525222778;0.0;0.0;0.0
1741;0.0;0.0;0.0;-0.42455998063087463;-0.2937760055065155;1.3058879375457764;0.0;0.0;0.0
1743;-0.5624200105667114;-0.15493999421596527;1.173151969909668;-0.45579198002815247;-0.30158400535583496;1.2736799716949463;-16.358123779296875;-16.84375;-3.1368749141693115
1745;0.0;0.0;0.0;-0.436271995306015;-0.32891198992729187;1.2697759866714478;0.0;0.0;0.0
1747;0.0;0.0;0.0;-0.3933279812335968;-0.3172000050544739;1.2453759908676147;0.0;0.0;0.0
1749;0.0;0.0;0.0;-0.436271995306015;-0.3445279896259308;1.2365919351577759;0.0;0.0;0.0
1751;-0.5529040098190308;-0.18177999556064606;1.1214239597320557;-0.4440799951553345;-0.3093920052051544;1.2121919393539429;-7.958125114440918;-17.68375015258789;-10.416874885559082
1753;0.0;0.0;0.0;-0.4089439809322357;-0.3211039900779724;1.2082879543304443;0.0;0.0;0.0
1755;0.0;0.0;0.0;-0.41284799575805664;-0.29767999053001404;1.2248799800872803;0.0;0.0;0.0
1758;0.0;0.0;0.0;-0.3903999924659729;-0.2898719906806946;1.2043839693069458;0.0;0.0;0.0
1760;-0.5431439876556396;-0.1693359911441803;1.0887279510498047;-0.40113598108291626;-0.27425599098205566;1.2043839693069458;3.101874828338623;-16.493751525878906;-16.576875686645508
1762;0.0;0.0;0.0;-0.38649600744247437;-0.2664479911327362;1.2004799842834473;0.0;0.0;0.0
1764;0.0;0.0;0.0;-0.40113598108291626;-0.2547360062599182;1.2209759950637817;0.0;0.0;0.0
1766;0.0;0.0;0.0;-0.37088000774383545;-0.21569599211215973;1.2043839693069458;0.0;0.0;0.0
1768;-0.513375997543335;-0.11199599504470825;1.079699993133545;-0.3786879777908325;-0.23131199181079865;1.1916959285736084;11.851875305175781;-14.673749923706055;-20.63687515258789
1770;0.0;0.0;0.0;-0.3630719780921936;-0.20788799226284027;1.2043839693069458;0.0;0.0;0.0
1772;0.0;0.0;0.0;-0.3240320086479187;-0.1844639927148819;1.1877919435501099;0.0;0.0;0.0
1775;0.0;0.0;0.0;-0.3396480083465576;-0.15323199331760406;1.2043839693069458;0.0;0.0;0.0
1777;-0.4748239815235138;-0.049775999039411545;1.0726239681243896;-0.3474559783935547;-0.18055999279022217;1.2082879543304443;16.821874618530273;-12.993749618530273;-22.946874618530273
1779;0.0;0.0;0.0;-0.32793599367141724;-0.16494399309158325;1.1760799884796143;0.0;0.0;0.0
1781;0.0;0.0;0.0;-0.31622397899627686;-0.12199999392032623;1.2043839693069458;0.0;0.0;0.0
1783;0.0;0.0;0.0;-0.30451199412345886;-0.13371199369430542;1.2160959243774414;0.0;0.0;0.0
1785;-0.4450559914112091;0.00024399999529123306;1.0706720352172852;-0.31622397899627686;-0.1180959939956665;1.1838879585266113;17.451875686645508;-12.643750190734863;-23.576875686645508
1787;0.0;0.0;0.0;-0.3093920052051544;-0.11321599781513214;1.1916959285736084;0.0;0.0;0.0
1789;0.0;0.0;0.0;-0.30158400535583496;-0.10931199789047241;1.1594879627227783;0.0;0.0;0.0
1792;0.0;0.0;0.0;-0.3093920052051544;-0.07027199864387512;1.1877919435501099;0.0;0.0;0.0
1794;-0.4184599816799164;0.0424560010433197;1.0587159395217896;-0.2664479911327362;-0.07417599856853485;1.1838879585266113;13.531875610351562;-13.553750038146973;-23.22687530517578
1796;0.0;0.0;0.0;-0.22740799188613892;-0.08198399841785431;1.1721760034561157;0.0;0.0;0.0
1798;0.0;0.0;0.0;-0.2547360062599182;-0.07027199864387512;1.1760799884796143;0.0;0.0;0.0
1800;0.0;0.0;0.0;-0.21569599211215973;-0.058559998869895935;1.1594879627227783;0.0;0.0;0.0
1802;-0.35819199681282043;0.06709999591112137;1.04066002368927;-0.18055999279022217;-0.058559998869895935;1.1311839818954468;6.461874961853027;-15.023750305175781;-21.686874389648438
1804;0.0;0.0;0.0;-0.16787199676036835;-0.05563199892640114;1.1555839776992798;0.0;0.0;0.0
1806;0.0;0.0;0.0;-0.1180959939956665;-0.07124799489974976;1.122399926185608;0.0;0.0;0.0
1809;0.0;0.0;0.0;-0.11419199407100677;-0.03611199930310249;1.1145919561386108;0.0;0.0;0.0
1811;-0.2564440071582794;0.0756400004029274;1.0067440271377563;-0.07124799489974976;-0.05953599885106087;1.1028800010681152;-1.3781249523162842;-16.633750915527344;-19.026874542236328
1813;0.0;0.0;0.0;-0.05953599885106087;-0.0634399950504303;1.1067839860916138;0.0;0.0;0.0
1815;0.0;0.0;0.0;-0.04001599922776222;-0.07124799489974976;1.0940959453582764;0.0;0.0;0.0
1817;0.0;0.0;0.0;-0.020495999604463577;-0.03611199930310249;1.0618879795074463;0.0;0.0;0.0
1819;-0.15981999039649963;0.0727119967341423;0.9669719934463501;-0.0009759999811649323;-0.07905599474906921;1.0540800094604492;-6.908124923706055;-16.493751525878906;-16.016874313354492
1821;0.0;0.0;0.0;0.0019519999623298645;-0.08979199826717377;1.0657919645309448;0.0;0.0;0.0
1823;0.0;0.0;0.0;0.044895999133586884;-0.10931199789047241;1.0618879795074463;0.0;0.0;0.0
1826;0.0;0.0;0.0;0.04879999905824661;-0.11711999773979187;1.0696959495544434;0.0;0.0;0.0
1828;-0.09759999811649323;0.037331998348236084;0.9396439790725708;0.040991999208927155;-0.11711999773979187;1.0491999387741089;-9.918124198913574;-13.973750114440918;-13.076875686645508
1830;0.0;0.0;0.0;0.044895999133586884;-0.13663999736309052;1.0413919687271118;0.0;0.0;0.0
1832;0.0;0.0;0.0;0.040991999208927155;-0.1483519971370697;1.0540800094604492;0.0;0.0;0.0
1834;0.0;0.0;0.0;0.05660799890756607;-0.15615999698638916;1.0540800094604492;0.0;0.0;0.0
1836;-0.06368400156497955;-0.007563999854028225;0.924515962600708;0.0878399983048439;-0.17958399653434753;1.0335839986801147;-10.2681245803833;-10.403749465942383;-10.69687557220459
1838;0.0;0.0;0.0;0.08100800216197968;-0.1571359932422638;1.0491999387741089;0.0;0.0;0.0
1841;0.0;0.0;0.0;0.0849120020866394;-0.17665599286556244;1.0452959537506104;0.0;0.0;0.0
1843;0.0;0.0;0.0;0.12297599762678146;-0.16494399309158325;1.0413919687271118;0.0;0.0;0.0
1845;-0.0302559994161129;-0.04172400012612343;0.9088999629020691;0.12297599762678146;-0.19227199256420135;1.0247999429702759;-7.818125247955322;-8.023750305175781;-9.646875381469727
1847;0.0;0.0;0.0;0.14640000462532043;-0.1844639927148819;1.0247999429702759;0.0;0.0;0.0
1849;0.0;0.0;0.0;0.1815359890460968;-0.2000799924135208;1.0130879878997803;0.0;0.0;0.0
1851;0.0;0.0;0.0;0.1815359890460968;-0.20398399233818054;1.0013760328292847;0.0;0.0;0.0
1853;0.043431997299194336;-0.05245999991893768;0.8935279846191406;0.2205759882926941;-0.1727519929409027;1.0169919729232788;-2.3581252098083496;-6.273749828338623;-8.736875534057617
1856;0.0;0.0;0.0;0.2547360062599182;-0.21081599593162537;0.9925919771194458;0.0;0.0;0.0
1857;0.0;0.0;0.0;0.23131199181079865;-0.18348799645900726;1.0091840028762817;0.0;0.0;0.0
1860;0.0;0.0;0.0;0.2664479911327362;-0.17177599668502808;0.9964959621429443;0.0;0.0;0.0
1862;0.12199999392032623;-0.04660400003194809;0.871567964553833;0.2781600058078766;-0.1600639969110489;1.0052800178527832;5.761875152587891;-2.773750066757202;-6.006875038146973
1864;0.0;0.0;0.0;0.28596800565719604;-0.15615999698638916;0.9964959621429443;0.0;0.0;0.0
1866;0.0;0.0;0.0;0.2898719906806946;-0.15615999698638916;0.9681919813156128;0.0;0.0;0.0
1868;0.0;0.0;0.0;0.3328160047531128;-0.13663999736309052;0.9525759816169739;0.0;0.0;0.0
1870;0.18861199915409088;-0.006099999882280827;0.8598560094833374;0.3445279896259308;-0.14054399728775024;0.9730719923973083;13.811875343322754;2.40625;-1.386875033378601
1873;0.0;0.0;0.0;0.33769598603248596;-0.09467199444770813;0.9603840112686157;0.0;0.0;0.0
1875;0.0;0.0;0.0;0.3416000008583069;-0.07905599474906921;0.9720959663391113;0.0;0.0;0.0
1877;0.0;0.0;0.0;0.3416000008583069;-0.04782399907708168;0.9886879920959473;0.0;0.0;0.0
1879;0.22911599278450012;0.05026400089263916;0.859611988067627;0.3445279896259308;-0.020495999604463577;1.0052800178527832;21.161874771118164;8.006250381469727;3.1631250381469727
1881;0.0;0.0;0.0;0.35233598947525024;-0.00878399983048439;1.0091840028762817;0.0;0.0;0.0
1883;0.0;0.0;0.0;0.31036800146102905;0.018543999642133713;1.0452959537506104;0.0;0.0;0.0
1885;0.0;0.0;0.0;0.3533119857311249;0.03806399926543236;1.0296800136566162;0.0;0.0;0.0
1887;0.21252399682998657;0.12004800140857697;0.8935279846191406;0.387472003698349;-0.08295999467372894;0.9525759816169739;20.74187469482422;11.646249771118164;3.9331250190734863
1889;0.0;0.0;0.0;0.3572160005569458;-0.01659199967980385;0.9925919771194458;0.0;0.0;0.0
1892;0.0;0.0;0.0;0.3298879861831665;0.0302559994161129;1.0413919687271118;0.0;0.0;0.0
1894;0.0;0.0;0.0;0.32207998633384705;0.022447999566793442;1.0618879795074463;0.0;0.0;0.0
1896;0.22155199944972992;0.14127600193023682;0.9020679593086243;0.3298879861831665;0.018543999642133713;1.0823839902877808;16.751874923706055;16.40625;2.953125
1898;0.0;0.0;0.0;0.34062400460243225;-0.0009759999811649323;1.0823839902877808;0.0;0.0;0.0
1900;0.0;0.0;0.0;0.3533119857311249;-0.004879999905824661;1.0531039237976074;0.0;0.0;0.0
1902;0.0;0.0;0.0;0.35233598947525024;0.014639999717473984;1.0491999387741089;0.0;0.0;0.0
1904;0.23204399645328522;0.14591199159622192;0.9459879994392395;0.34940800070762634;0.022447999566793442;1.0862879753112793;8.07187557220459;17.456249237060547;4.983124732971191
1907;0.0;0.0;0.0;0.3533119857311249;0.02635199949145317;1.0862879753112793;0.0;0.0;0.0
1909;0.0;0.0;0.0;0.3484320044517517;0.0029279999434947968;1.0696959495544434;0.0;0.0;0.0
1911;0.0;0.0;0.0;0.34940800070762634;0.010735999792814255;1.0657919645309448;0.0;0.0;0.0
1913;0.22423599660396576;0.1559159904718399;0.9535520076751709;0.33769598603248596;0.03806399926543236;1.0862879753112793;0.16187499463558197;15.56624984741211;6.663125038146973
1915;0.0;0.0;0.0;0.3718560039997101;0.04196799919009209;1.073599934577942;0.0;0.0;0.0
1917;0.0;0.0;0.0;0.399183988571167;-0.00878399983048439;1.0657919645309448;0.0;0.0;0.0
1919;0.0;0.0;0.0;0.44603198766708374;-0.020495999604463577;1.0540800094604492;0.0;0.0;0.0
1921;0.26620399951934814;0.13053999841213226;0.9415959715843201;0.37966400384902954;-0.03611199930310249;1.0618879795074463;-7.538125038146973;12.346250534057617;3.513124942779541
1924;0.0;0.0;0.0;0.4577440023422241;-0.00878399983048439;1.0657919645309448;0.0;0.0;0.0
1926;0.0;0.0;0.0;0.4577440023422241;-0.04391999915242195;1.0696959495544434;0.0;0.0;0.0
1928;0.0;0.0;0.0;0.48507198691368103;-0.08686399459838867;1.0208959579467773;0.0;0.0;0.0
1930;0.3352559804916382;0.07685999572277069;0.9232959747314453;0.4967840015888214;-0.07515199482440948;1.0491999387741089;-12.438124656677246;9.336250305175781;0.15312500298023224
1932;0.0;0.0;0.0;0.4967840015888214;-0.07905599474906921;1.0247999429702759;0.0;0.0;0.0
1934;0.0;0.0;0.0;0.4772639870643616;-0.08295999467372894;1.0657919645309448;0.0;0.0;0.0
1936;0.0;0.0;0.0;0.5123999714851379;-0.1180959939956665;1.0491999387741089;0.0;0.0;0.0
1938;0.37039199471473694;0.044895999133586884;0.9232959747314453;0.5280159711837769;-0.09857599437236786;1.0579839944839478;-12.788125038146973;7.586250305175781;1.8331249952316284
1941;0.0;0.0;0.0;0.5553439855575562;-0.10247999429702759;1.0169919729232788;0.0;0.0;0.0
1943;0.0;0.0;0.0;0.6051200032234192;-0.11419199407100677;1.0296800136566162;0.0;0.0;0.0
1945;0.0;0.0;0.0;0.6256160140037537;-0.09857599437236786;1.0130879878997803;0.0;0.0;0.0
1947;0.46701598167419434;0.03245199844241142;0.8988959789276123;0.6636799573898315;-0.09857599437236786;1.0091840028762817;-10.758124351501465;8.56624984741211;2.883125066757202
1949;0.0;0.0;0.0;0.6753919720649719;-0.1180959939956665;1.0374879837036133;0.0;0.0;0.0
1951;0.0;0.0;0.0;0.7144320011138916;-0.12590399384498596;1.0208959579467773;0.0;0.0;0.0
1953;0.0;0.0;0.0;0.7105280160903931;-0.13761599361896515;1.0208959579467773;0.0;0.0;0.0
1955;0.5648599863052368;0.01659199967980385;0.8920639753341675;0.6675840020179749;-0.1180959939956665;0.9964959621429443;-6.558125019073486;12.90625;5.403124809265137
1958;0.0;0.0;0.0;0.6832000017166138;-0.14151999354362488;1.0130879878997803;0.0;0.0;0.0
1960;0.0;0.0;0.0;0.6480640172958374;-0.17665599286556244;1.0531039237976074;0.0;0.0;0.0
1962;0.0;0.0;0.0;0.6324479579925537;-0.12199999392032623;1.0540800094604492;0.0;0.0;0.0
1964;0.5236240029335022;-0.013175999745726585;0.9067040085792542;0.5934079885482788;-0.16884799301624298;1.0540800094604492;-1.9381250143051147;17.666250228881836;5.963124752044678
1966;0.0;0.0;0.0;0.6207360029220581;-0.16884799301624298;1.0413919687271118;0.0;0.0;0.0
1968;0.0;0.0;0.0;0.586575984954834;-0.16103999316692352;1.0862879753112793;0.0;0.0;0.0
1970;0.0;0.0;0.0;0.5904799699783325;-0.20398399233818054;1.0901919603347778;0.0;0.0;0.0
1972;0.4728719890117645;-0.035868000239133835;0.9450119733810425;0.6051200032234192;-0.1727519929409027;1.0784800052642822;0.7918750047683716;21.026248931884766;1.6931250095367432
1975;0.0;0.0;0.0;0.5895040035247803;-0.16787199676036835;1.101904034614563;0.0;0.0;0.0
1977;0.0;0.0;0.0;0.6041439771652222;-0.19519999623298645;1.1145919561386108;0.0;0.0;0.0
1979;0.0;0.0;0.0;0.6041439771652222;-0.15615999698638916;1.122399926185608;0.0;0.0;0.0
1981;0.4823879897594452;-0.04172400012612343;0.9913719892501831;0.611952006816864;-0.1756799966096878;1.1184959411621094;1.5618749856948853;22.986249923706055;-2.0868749618530273
1983;0.0;0.0;0.0;0.6431840062141418;-0.15615999698638916;1.146799921989441;0.0;0.0;0.0
1985;0.0;0.0;0.0;0.6275680065155029;-0.17177599668502808;1.146799921989441;0.0;0.0;0.0
1987;0.0;0.0;0.0;0.6158559918403625;-0.1756799966096878;1.1555839776992798;0.0;0.0;0.0
1989;0.5177679657936096;-0.024156000465154648;1.0287039279937744;0.6509919762611389;-0.14444799721240997;1.1760799884796143;1.421875;21.936248779296875;-4.396875381469727
1992;0.0;0.0;0.0;0.6431840062141418;-0.14444799721240997;1.1799839735031128;0.0;0.0;0.0
1994;0.0;0.0;0.0;0.6353759765625;-0.1483519971370697;1.1672959327697754;0.0;0.0;0.0
1996;0.0;0.0;0.0;0.611952006816864;-0.17177599668502808;1.1594879627227783;0.0;0.0;0.0
1998;0.5148400068283081;-0.016103999689221382;1.0482239723205566;0.6275680065155029;-0.15225599706172943;1.175104022026062;0.2318750023841858;18.576250076293945;-5.866875171661377
2000;0.0;0.0;0.0;0.5934079885482788;-0.13663999736309052;1.1760799884796143;0.0;0.0;0.0
2002;0.0;0.0;0.0;0.6090239882469177;-0.14444799721240997;1.1672959327697754;0.0;0.0;0.0
2004;0.0;0.0;0.0;0.6588000059127808;-0.1483519971370697;1.1633919477462769;0.0;0.0;0.0
2006;0.5075199604034424;-0.007075999863445759;1.0416359901428223;0.6470879912376404;-0.14054399728775024;1.1428959369659424;-2.4281251430511475;13.326250076293945;-8.596875190734863
2009;0.0;0.0;0.0;0.6675840020179749;-0.1298079937696457;1.1350879669189453;0.0;0.0;0.0
2011;0.0;0.0;0.0;0.7066239714622498;-0.12199999392032623;1.1184959411621094;0.0;0.0;0.0
2013;0.0;0.0;0.0;0.6832000017166138;-0.12199999392032623;1.1106879711151123;0.0;0.0;0.0
2015;0.563152015209198;0.0021959999576210976;1.0084519386291504;0.7183359861373901;-0.1454239934682846;1.1350879669189453;-6.488125324249268;9.9662504196167;-12.096875190734863
2017;0.0;0.0;0.0;0.733951985836029;-0.13371199369430542;1.1350879669189453;0.0;0.0;0.0
2019;0.0;0.0;0.0;0.7417600154876709;-0.12590399384498596;1.1350879669189453;0.0;0.0;0.0
2021;0.0;0.0;0.0;0.7417600154876709;-0.10638399422168732;1.1184959411621094;0.0;0.0;0.0
2023;0.602679967880249;0.010491999797523022;1.0069879293441772;0.7105280160903931;-0.09467199444770813;1.1389919519424438;-10.688124656677246;9.686250686645508;-14.336874961853027
2026;0.0;0.0;0.0;0.7290719747543335;-0.10540799796581268;1.1428959369659424;0.0;0.0;0.0
2028;0.0;0.0;0.0;0.7134559750556946;-0.12883199751377106;1.1672959327697754;0.0;0.0;0.0
2030;0.0;0.0;0.0;0.7134559750556946;-0.12492799758911133;1.150704026222229;0.0;0.0;0.0
2032;0.606827974319458;0.0226919986307621;1.0269960165023804;0.7134559750556946;-0.1210239976644516;1.1555839776992798;-15.378124237060547;7.166250228881836;-14.966875076293945
2034;0.0;0.0;0.0;0.7563999891281128;-0.14444799721240997;1.1311839818954468;0.0;0.0;0.0
2036;0.0;0.0;0.0;0.7603039741516113;-0.10931199789047241;1.122399926185608;0.0;0.0;0.0
2038;0.0;0.0;0.0;0.7798239588737488;-0.13663999736309052;1.1516799926757812;0.0;0.0;0.0
2040;0.6412320137023926;0.0009759999811649323;1.013819932937622;0.7837280035018921;-0.16396799683570862;1.122399926185608;-19.438125610351562;5.066250324249268;-14.19687557220459
2043;0.0;0.0;0.0;0.7925119996070862;-0.16494399309158325;1.1184959411621094;0.0;0.0;0.0
2045;0.0;0.0;0.0;0.7886079549789429;-0.1571359932422638;1.1145919561386108;0.0;0.0;0.0
2047;0.0;0.0;0.0;0.8159359693527222;-0.20788799226284027;1.097999930381775;0.0;0.0;0.0
2049;0.6829559803009033;-0.03903999924659729;0.9838079810142517;0.8042240142822266;-0.1727519929409027;1.1145919561386108;-19.018125534057617;4.996250152587891;-12.166874885559082
2051;0.0;0.0;0.0;0.7886079549789429;-0.1844639927148819;1.1028800010681152;0.0;0.0;0.0
2053;0.0;0.0;0.0;0.7768959999084473;-0.2117919921875;1.097999930381775;0.0;0.0;0.0
2055;0.0;0.0;0.0;0.7534719705581665;-0.18836799263954163;1.0901919603347778;0.0;0.0;0.0
2057;0.6734399795532227;-0.06783200055360794;0.973315954208374;0.7534719705581665;-0.20398399233818054;1.1028800010681152;-14.328125;6.956250190734863;-10.626874923706055
2060;0.0;0.0;0.0;0.7847039699554443;-0.19227199256420135;1.0862879753112793;0.0;0.0;0.0
2062;0.0;0.0;0.0;0.7807999849319458;-0.19617599248886108;1.0862879753112793;0.0;0.0;0.0
2064;0.0;0.0;0.0;0.7807999849319458;-0.19227199256420135;1.1067839860916138;0.0;0.0;0.0
2066;0.655627965927124;-0.06417199969291687;0.9747799634933472;0.7847039699554443;-0.1844639927148819;1.097999930381775;-7.818125247955322;7.376250267028809;-9.576875686645508
2068;0.0;0.0;0.0;0.7768959999084473;-0.1844639927148819;1.1106879711151123;0.0;0.0;0.0
2070;0.0;0.0;0.0;0.8003199696540833;-0.1844639927148819;1.0775039196014404;0.0;0.0;0.0
2072;0.0;0.0;0.0;0.8159359693527222;-0.19227199256420135;1.0775039196014404;0.0;0.0;0.0
2074;0.6788079738616943;-0.05685199797153473;0.9679479598999023;0.8159359693527222;-0.2000799924135208;1.0657919645309448;-1.9381250143051147;9.546250343322754;-8.806875228881836
2077;0.0;0.0;0.0;0.7651839852333069;-0.1727519929409027;1.0657919645309448;0.0;0.0;0.0
2079;0.0;0.0;0.0;0.7729920148849487;-0.19617599248886108;1.101904034614563;0.0;0.0;0.0
2081;0.0;0.0;0.0;0.7886079549789429;-0.20398399233818054;1.101904034614563;0.0;0.0;0.0
2083;0.659775972366333;-0.052216000854969025;0.9657520055770874;0.7222399711608887;-0.16494399309158325;1.1106879711151123;4.011875152587891;12.976250648498535;-7.476875305175781
2085;0.0;0.0;0.0;0.7378559708595276;-0.16494399309158325;1.122399926185608;0.0;0.0;0.0
2087;0.0;0.0;0.0;0.6910079717636108;-0.13761599361896515;1.097999930381775;0.0;0.0;0.0
2089;0.0;0.0;0.0;0.6871039867401123;-0.14932799339294434;1.1350879669189453;0.0;0.0;0.0
2091;0.574131965637207;-0.02635199949145317;1.0045479536056519;0.6753919720649719;-0.13761599361896515;1.1350879669189453;8.701875686645508;13.676250457763672;-7.476875305175781
2094;0.0;0.0;0.0;0.6168320178985596;-0.14932799339294434;1.1555839776992798;0.0;0.0;0.0
2096;0.0;0.0;0.0;0.659775972366333;-0.1571359932422638;1.1516799926757812;0.0;0.0;0.0
2098;0.0;0.0;0.0;0.6792960166931152;-0.14932799339294434;1.1428959369659424;0.0;0.0;0.0
2100;0.5270400047302246;-0.004635999910533428;1.0250439643859863;0.6441599726676941;-0.11028799414634705;1.1555839776992798;10.521875381469727;11.15625;-8.666874885559082
2102;0.0;0.0;0.0;0.6129279732704163;-0.1180959939956665;1.1516799926757812;0.0;0.0;0.0
2104;0.0;0.0;0.0;0.6246399879455566;-0.13761599361896515;1.1760799884796143;0.0;0.0;0.0
2106;0.0;0.0;0.0;0.6129279732704163;-0.12590399384498596;1.1594879627227783;0.0;0.0;0.0
2108;0.49946799874305725;0.014883999712765217;1.0318759679794312;0.6207360029220581;-0.10247999429702759;1.1594879627227783;11.291875839233398;7.306250095367432;-9.506875038146973
2111;0.0;0.0;0.0;0.5982879996299744;-0.10638399422168732;1.150704026222229;0.0;0.0;0.0
2113;0.0;0.0;0.0;0.586575984954834;-0.09857599437236786;1.1594879627227783;0.0;0.0;0.0
2115;0.0;0.0;0.0;0.586575984954834;-0.10638399422168732;1.1516799926757812;0.0;0.0;0.0
2117;0.47384798526763916;0.024156000465154648;1.0228480100631714;0.5787680149078369;-0.11419199407100677;1.1350879669189453;11.221875190734863;3.1762499809265137;-9.436875343322754
2119;0.0;0.0;0.0;0.563152015209198;-0.11028799414634705;1.1428959369659424;0.0;0.0;0.0
2121;0.0;0.0;0.0;0.5787680149078369;-0.1180959939956665;1.1350879669189453;0.0;0.0;0.0
2123;0.0;0.0;0.0;0.5709599852561951;-0.10638399422168732;1.1028800010681152;0.0;0.0;0.0
2125;0.4487159848213196;0.021959999576210976;0.9977160096168518;0.5553439855575562;-0.12590399384498596;1.1145919561386108;11.781875610351562;0.16625000536441803;-8.94687557220459
2128;0.0;0.0;0.0;0.5397279858589172;-0.11419199407100677;1.1067839860916138;0.0;0.0;0.0
2130;0.0;0.0;0.0;0.5475360155105591;-0.11419199407100677;1.0862879753112793;0.0;0.0;0.0
2132;0.0;0.0;0.0;0.5202080011367798;-0.1298079937696457;1.0696959495544434;0.0;0.0;0.0
2134;0.4201679825782776;0.01878799870610237;0.9650200009346008;0.5358240008354187;-0.11419199407100677;1.0784800052642822;13.671875;-1.3037500381469727;-8.45687484741211
2136;0.0;0.0;0.0;0.5319200158119202;-0.11028799414634705;1.0775039196014404;0.0;0.0;0.0
2138;0.0;0.0;0.0;0.5163040161132812;-0.1180959939956665;1.0618879795074463;0.0;0.0;0.0
2140;0.0;0.0;0.0;0.48897600173950195;-0.11419199407100677;1.0657919645309448;0.0;0.0;0.0
2142;0.38649600744247437;0.024156000465154648;0.9464759826660156;0.5006880164146423;-0.11028799414634705;1.0823839902877808;16.821874618530273;-1.6537500619888306;-7.82687520980835
2145;0.0;0.0;0.0;0.47336000204086304;-0.10638399422168732;1.0618879795074463;0.0;0.0;0.0
2147;0.0;0.0;0.0;0.46164798736572266;-0.10638399422168732;1.0862879753112793;0.0;0.0;0.0
2149;0.0;0.0;0.0;0.43432000279426575;-0.10247999429702759;1.0901919603347778;0.0;0.0;0.0
2151;0.3398919999599457;0.037087999284267426;0.9469639658927917;0.44603198766708374;-0.0907679945230484;1.0657919645309448;19.83187484741211;-1.8637501001358032;-6.426875114440918
2153;0.0;0.0;0.0;0.44993600249290466;-0.0907679945230484;1.073599934577942;0.0;0.0;0.0
2155;0.0;0.0;0.0;0.42260798811912537;-0.07124799489974976;1.0696959495544434;0.0;0.0;0.0
2157;0.0;0.0;0.0;0.387472003698349;-0.07124799489974976;1.0862879753112793;0.0;0.0;0.0
2159;0.2879199981689453;0.05660799890756607;0.9562360048294067;0.387472003698349;-0.04391999915242195;1.0696959495544434;21.231876373291016;-2.7037501335144043;-4.186875343322754
2162;0.0;0.0;0.0;0.36795198917388916;-0.06734399497509003;1.0862879753112793;0.0;0.0;0.0
2164;0.0;0.0;0.0;0.3757599890232086;-0.05953599885106087;1.1028800010681152;0.0;0.0;0.0
2166;0.0;0.0;0.0;0.3484320044517517;-0.0634399950504303;1.0940959453582764;0.0;0.0;0.0
2168;0.23545999825000763;0.07466399669647217;0.9686799645423889;0.3601439893245697;-0.07905599474906921;1.1067839860916138;20.321874618530273;-3.963750123977661;-2.156874895095825
2170;0.0;0.0;0.0;0.3142719864845276;-0.0634399950504303;1.1106879711151123;0.0;0.0;0.0
2172;0.0;0.0;0.0;0.31036800146102905;-0.07124799489974976;1.101904034614563;0.0;0.0;0.0
2174;0.0;0.0;0.0;0.2869440019130707;-0.04001599922776222;1.1067839860916138;0.0;0.0;0.0
2176;0.18714798986911774;0.08003199845552444;0.9840520024299622;0.2869440019130707;-0.05172799900174141;1.1067839860916138;17.24187469482422;-6.133749961853027;-1.106874942779541
2179;0.0;0.0;0.0;0.27035200595855713;-0.07417599856853485;1.1067839860916138;0.0;0.0;0.0
2181;0.0;0.0;0.0;0.2664479911327362;-0.058559998869895935;1.1428959369659424;0.0;0.0;0.0
2183;0.0;0.0;0.0;0.2547360062599182;-0.058559998869895935;1.1028800010681152;0.0;0.0;0.0
2185;0.1449359953403473;0.0634399950504303;0.9918599724769592;0.24302399158477783;-0.07417599856853485;1.1028800010681152;12.621875762939453;-8.863749504089355;-1.386875033378601
2187;0.0;0.0;0.0;0.20398399233818054;-0.08979199826717377;1.126304030418396;0.0;0.0;0.0
2189;0.0;0.0;0.0;0.21569599211215973;-0.08979199826717377;1.1389919519424438;0.0;0.0;0.0
2191;0.0;0.0;0.0;0.23131199181079865;-0.08198399841785431;1.1555839776992798;0.0;0.0;0.0
2193;0.10369999706745148;0.047091998159885406;1.012355923652649;0.2235039919614792;-0.0936959981918335;1.1555839776992798;8.141875267028809;-11.103750228881836;-1.5268750190734863
2196;0.0;0.0;0.0;0.18544000387191772;-0.12199999392032623;1.1428959369659424;0.0;0.0;0.0
2198;0.0;0.0;0.0;0.17763200402259827;-0.09467199444770813;1.146799921989441;0.0;0.0;0.0
2200;0.0;0.0;0.0;0.17372798919677734;-0.1180959939956665;1.1067839860916138;0.0;0.0;0.0
2202;0.06270799785852432;0.01878799870610237;1.0174800157546997;0.1698240041732788;-0.1180959939956665;1.1106879711151123;3.731874942779541;-13.34375;-0.2668749988079071
2204;0.0;0.0;0.0;0.15030398964881897;-0.16103999316692352;1.146799921989441;0.0;0.0;0.0
2206;0.0;0.0;0.0;0.1268799901008606;-0.1298079937696457;1.1145919561386108;0.0;0.0;0.0
2208;0.0;0.0;0.0;0.115167997777462;-0.14151999354362488;1.1067839860916138;0.0;0.0;0.0
2210;0.010247999802231789;-0.014639999717473984;0.9930799603462219;0.10735999792814255;-0.14932799339294434;1.1184959411621094;2.8918750286102295;-15.373749732971191;-2.296875
2213;0.0;0.0;0.0;0.09564799815416336;-0.1483519971370697;1.1184959411621094;0.0;0.0;0.0
2215;0.0;0.0;0.0;0.11126399785280228;-0.1600639969110489;1.146799921989441;0.0;0.0;0.0
2217;0.0;0.0;0.0;0.09955199807882309;-0.2030079960823059;1.1184959411621094;0.0;0.0;0.0
2219;-0.00951599981635809;-0.03269600123167038;1.0016199350357056;0.10247999429702759;-0.21081599593162537;1.126304030418396;3.731874942779541;-16.91375160217285;-0.8968750238418579
2221;0.0;0.0;0.0;0.0878399983048439;-0.1756799966096878;1.1389919519424438;0.0;0.0;0.0
2223;0.0;0.0;0.0;0.08393599838018417;-0.15225599706172943;1.1106879711151123;0.0;0.0;0.0
2225;0.0;0.0;0.0;0.06441599875688553;-0.1756799966096878;1.0784800052642822;0.0;0.0;0.0
2227;-0.03440399840474129;-0.04562800005078316;0.977463960647583;0.0878399983048439;-0.17958399653434753;1.073599934577942;5.691874980926514;-14.813750267028809;4.283124923706055
2230;0.0;0.0;0.0;0.06148799881339073;-0.18055999279022217;1.0823839902877808;0.0;0.0;0.0
2232;0.0;0.0;0.0;0.04196799919009209;-0.17665599286556244;1.0862879753112793;0.0;0.0;0.0
2234;0.0;0.0;0.0;0.0029279999434947968;-0.16103999316692352;1.101904034614563;0.0;0.0;0.0
2236;-0.08808399736881256;-0.04025999829173088;0.9594079852104187;-0.020495999604463577;-0.17665599286556244;1.097999930381775;9.82187557220459;-12.153749465942383;6.663125038146973
2238;0.0;0.0;0.0;-0.020495999604463577;-0.17665599286556244;1.122399926185608;0.0;0.0;0.0
2240;0.0;0.0;0.0;-0.04001599922776222;-0.17665599286556244;1.1106879711151123;0.0;0.0;0.0
2242;0.0;0.0;0.0;-0.05172799900174141;-0.1727519929409027;1.097999930381775;0.0;0.0;0.0
2244;-0.15445199608802795;-0.04928799718618393;0.9818559885025024;-0.05172799900174141;-0.26254400610923767;1.073599934577942;10.871875762939453;-10.893750190734863;7.363124847412109
2247;0.0;0.0;0.0;-0.040991999208927155;-0.17177599668502808;1.0940959453582764;0.0;0.0;0.0
2249;0.0;0.0;0.0;-0.14640000462532043;-0.16396799683570862;1.1555839776992798;0.0;0.0;0.0
2251;0.0;0.0;0.0;-0.14640000462532043;-0.2030079960823059;1.1516799926757812;0.0;0.0;0.0
2253;-0.24643999338150024;-0.05685199797153473;1.0118680000305176;-0.18836799263954163;-0.1600639969110489;1.1965759992599487;11.781875610351562;-8.583749771118164;9.603124618530273
2255;0.0;0.0;0.0;-0.19227199256420135;-0.19519999623298645;1.1926720142364502;0.0;0.0;0.0
2257;0.0;0.0;0.0;-0.23131199181079865;-0.1600639969110489;1.1712000370025635;0.0;0.0;0.0
2259;0.0;0.0;0.0;-0.24302399158477783;-0.16787199676036835;1.1555839776992798;0.0;0.0;0.0
2261;-0.34696799516677856;-0.03171999752521515;1.052616000175476;-0.2820639908313751;-0.14054399728775024;1.2043839693069458;8.631875038146973;-9.913749694824219;12.8931245803833
2264;0.0;0.0;0.0;-0.32891198992729187;-0.1483519971370697;1.2004799842834473;0.0;0.0;0.0
2266;0.0;0.0;0.0;-0.32500800490379333;-0.15615999698638916;1.2248799800872803;0.0;0.0;0.0
2268;0.0;0.0;0.0;-0.33671998977661133;-0.14054399728775024;1.2121919393539429;0.0;0.0;0.0
2270;-0.4438360035419464;-0.017079999670386314;1.0767719745635986;-0.34062400460243225;-0.16787199676036835;1.2121919393539429;4.781875133514404;-13.413749694824219;16.04312515258789
2272;0.0;0.0;0.0;-0.33671998977661133;-0.17177599668502808;1.2004799842834473;0.0;0.0;0.0
2274;0.0;0.0;0.0;-0.387472003698349;-0.2030079960823059;1.2004799842834473;0.0;0.0;0.0
2276;0.0;0.0;0.0;-0.37966400384902954;-0.187391996383667;1.2082879543304443;0.0;0.0;0.0
2279;-0.4816559851169586;-0.0500199981033802;1.0760400295257568;-0.3640480041503906;-0.20691199600696564;1.1956000328063965;0.09187500178813934;-17.473751068115234;15.483124732971191
2281;0.0;0.0;0.0;-0.3396480083465576;-0.2235039919614792;1.1838879585266113;0.0;0.0;0.0
2283;0.0;0.0;0.0;-0.35526400804519653;-0.19227199256420135;1.1877919435501099;0.0;0.0;0.0
2285;0.0;0.0;0.0;-0.3240320086479187;-0.19227199256420135;1.1672959327697754;0.0;0.0;0.0
2287;-0.4682359993457794;-0.07002799957990646;1.059448003768921;-0.3396480083465576;-0.22740799188613892;1.1838879585266113;-5.578125;-16.633750915527344;13.313124656677246
2289;0.0;0.0;0.0;-0.34355199337005615;-0.2000799924135208;1.1799839735031128;0.0;0.0;0.0
2291;0.0;0.0;0.0;-0.3474559783935547;-0.23521599173545837;1.1633919477462769;0.0;0.0;0.0
2293;0.0;0.0;0.0;-0.3786879777908325;-0.2235039919614792;1.1877919435501099;0.0;0.0;0.0
2296;-0.47433599829673767;-0.08906000107526779;1.0528600215911865;-0.35916799306869507;-0.24692799150943756;1.1916959285736084;-10.2681245803833;-15.303750038146973;12.473124504089355
2298;0.0;0.0;0.0;-0.374783992767334;-0.2391199916601181;1.1760799884796143;0.0;0.0;0.0
2300;0.0;0.0;0.0;-0.38551998138427734;-0.24692799150943756;1.1555839776992798;0.0;0.0;0.0
2302;0.0;0.0;0.0;-0.40113598108291626;-0.2508319914340973;1.1350879669189453;0.0;0.0;0.0
2304;-0.5187439918518066;-0.11394799500703812;1.0374879837036133;-0.4167519807815552;-0.2664479911327362;1.1428959369659424;-14.468124389648438;-13.903749465942383;9.04312515258789
2306;0.0;0.0;0.0;-0.40113598108291626;-0.25863999128341675;1.1389919519424438;0.0;0.0;0.0
2308;0.0;0.0;0.0;-0.4089439809322357;-0.24692799150943756;1.1428959369659424;0.0;0.0;0.0
2310;0.0;0.0;0.0;-0.4050399959087372;-0.26254400610923767;1.1633919477462769;0.0;0.0;0.0
2313;-0.537775993347168;-0.11614400148391724;1.0284600257873535;-0.42455998063087463;-0.2391199916601181;1.1721760034561157;-17.268125534057617;-9.143750190734863;3.653125047683716
2315;0.0;0.0;0.0;-0.42553597688674927;-0.23814399540424347;1.1672959327697754;0.0;0.0;0.0
2317;0.0;0.0;0.0;-0.44896000623703003;-0.23814399540424347;1.1760799884796143;0.0;0.0;0.0
2319;0.0;0.0;0.0;-0.4411519765853882;-0.2420479953289032;1.1799839735031128;0.0;0.0;0.0
2321;-0.559004008769989;-0.12029200047254562;1.044808030128479;-0.48019200563430786;-0.2420479953289032;1.1672959327697754;-16.288124084472656;-4.943749904632568;1.1331250667572021
2323;0.0;0.0;0.0;-0.48799997568130493;-0.22252799570560455;1.2043839693069458;0.0;0.0;0.0
2325;0.0;0.0;0.0;-0.5036159753799438;-0.22252799570560455;1.2121919393539429;0.0;0.0;0.0
2327;0.0;0.0;0.0;-0.5309439897537231;-0.24595199525356293;1.2248799800872803;0.0;0.0;0.0
2330;-0.6239079833030701;-0.10101599991321564;1.091655969619751;-0.5231360197067261;-0.2147199958562851;1.2531839609146118;-12.158124923706055;-2.213750123977661;0.7131249904632568
2332;0.0;0.0;0.0;-0.545583963394165;-0.18055999279022217;1.285391926765442;0.0;0.0;0.0
2334;0.0;0.0;0.0;-0.5651040077209473;-0.2000799924135208;1.2932000160217285;0.0;0.0;0.0
2336;0.0;0.0;0.0;-0.5963360071182251;-0.1844639927148819;1.3176000118255615;0.0;0.0;0.0
2338;-0.6829559803009033;-0.062463998794555664;1.1694920063018799;-0.611952006816864;-0.18836799263954163;1.3420000076293945;-9.778124809265137;-3.0537500381469727;1.4131250381469727
2340;0.0;0.0;0.0;-0.6197599768638611;-0.1727519929409027;1.3263839483261108;0.0;0.0;0.0
2342;0.0;0.0;0.0;-0.6197599768638611;-0.16884799301624298;1.3302879333496094;0.0;0.0;0.0
2344;0.0;0.0;0.0;-0.6158559918403625;-0.16103999316692352;1.3176000118255615;0.0;0.0;0.0
2347;-0.7366359829902649;-0.03952799737453461;1.2034080028533936;-0.6158559918403625;-0.17665599286556244;1.334191918373108;-11.248125076293945;-7.463749885559082;0.3631250262260437
2349;0.0;0.0;0.0;-0.6500160098075867;-0.16884799301624298;1.297104001045227;0.0;0.0;0.0
2351;0.0;0.0;0.0;-0.6002399921417236;-0.17665599286556244;1.28929603099823;0.0;0.0;0.0
2353;0.0;0.0;0.0;-0.6080479621887207;-0.1571359932422638;1.28929603099823;0.0;0.0;0.0
2355;-0.7400519847869873;-0.03806399926543236;1.1719319820404053;-0.6197599768638611;-0.1727519929409027;1.2648959159851074;-12.368124961853027;-12.223750114440918;-3.7668750286102295
2357;0.0;0.0;0.0;-0.5651040077209473;-0.19227199256420135;1.2736799716949463;0.0;0.0;0.0
2359;0.0;0.0;0.0;-0.5885279774665833;-0.16494399309158325;1.2648959159851074;0.0;0.0;0.0
2361;0.0;0.0;0.0;-0.561199963092804;-0.18836799263954163;1.2697759866714478;0.0;0.0;0.0
2364;-0.6932039856910706;-0.039772000163793564;1.132159948348999;-0.5143519639968872;-0.16884799301624298;1.2453759908676147;-9.98812484741211;-16.2137508392334;-9.366875648498535
2366;0.0;0.0;0.0;-0.4958080053329468;-0.19129599630832672;1.2404959201812744;0.0;0.0;0.0
2368;0.0;0.0;0.0;-0.47628799080848694;-0.16787199676036835;1.2248799800872803;0.0;0.0;0.0
2370;0.0;0.0;0.0;-0.48019200563430786;-0.1483519971370697;1.2209759950637817;0.0;0.0;0.0
2372;-0.6190279722213745;-0.0226919986307621;1.1011719703674316;-0.4567679762840271;-0.13663999736309052;1.2004799842834473;-4.808125019073486;-19.43375015258789;-14.266875267028809
2374;0.0;0.0;0.0;-0.4567679762840271;-0.14054399728775024;1.2004799842834473;0.0;0.0;0.0
2376;0.0;0.0;0.0;-0.4294399917125702;-0.10931199789047241;1.1838879585266113;0.0;0.0;0.0
2378;0.0;0.0;0.0;-0.4060159921646118;-0.11711999773979187;1.1721760034561157;0.0;0.0;0.0
2381;-0.5458279848098755;0.015371999703347683;1.062619924545288;-0.39820799231529236;-0.09759999811649323;1.1760799884796143;-0.11812499910593033;-20.55375099182129;-17.836875915527344
2383;0.0;0.0;0.0;-0.3786879777908325;-0.08686399459838867;1.1712000370025635;0.0;0.0;0.0
2385;0.0;0.0;0.0;-0.374783992767334;-0.08295999467372894;1.146799921989441;0.0;0.0;0.0
2387;0.0;0.0;0.0;-0.35526400804519653;-0.03611199930310249;1.1389919519424438;0.0;0.0;0.0
2389;-0.4894639849662781;0.05660799890756607;1.0211399793624878;-0.3630719780921936;-0.07124799489974976;1.122399926185608;3.591874837875366;-19.503751754760742;-20.496875762939453
2391;0.0;0.0;0.0;-0.3201279938220978;-0.04391999915242195;1.1184959411621094;0.0;0.0;0.0
2393;0.0;0.0;0.0;-0.3240320086479187;-0.03611199930310249;1.0901919603347778;0.0;0.0;0.0
2395;0.0;0.0;0.0;-0.31622397899627686;-0.05953599885106087;1.097999930381775;0.0;0.0;0.0
2398;-0.44652000069618225;0.09101200103759766;0.97843998670578;-0.2967039942741394;-0.028303999453783035;1.0823839902877808;7.091875076293945;-17.68375015258789;-21.686874389648438
2400;0.0;0.0;0.0;-0.2781600058078766;0.0;1.0618879795074463;0.0;0.0;0.0
2402;0.0;0.0;0.0;-0.27035200595855713;-0.015615999698638916;1.0452959537506104;0.0;0.0;0.0
