Timestamp(ms);LG-Accel x(g);LG-Accel y(g);LG-Accel z(g);HG-Accel x(g);HG-Accel y(g);HG-Accel z(g);Gyro x(dps);Gyro y(dps);Gyro z(dps)
66;0.0;0.0;0.0;0.6265919804573059;-0.44993600249290466;1.0745760202407837;0.0;0.0;0.0
68;0.0;0.0;0.0;0.5992639660835266;-0.4538399875164032;1.0745760202407837;0.0;0.0;0.0
70;0.0;0.0;0.0;0.5914559960365295;-0.4811680018901825;1.0784800052642822;0.0;0.0;0.0
72;0.0;0.0;0.0;0.6031680107116699;-0.4694559872150421;1.0784800052642822;0.0;0.0;0.0
74;0.0;0.0;0.0;0.6226879954338074;-0.48897600173950195;1.0784800052642822;0.0;0.0;0.0
76;0.0;0.0;0.0;0.5934079885482788;-0.4665279984474182;1.0687199831008911;0.0;0.0;0.0
78;0.0;0.0;0.0;0.5895040035247803;-0.49775999784469604;1.0726239681243896;0.0;0.0;0.0
80;0.0;0.0;0.0;0.5856000185012817;-0.4899519979953766;1.0726239681243896;0.0;0.0;0.0
83;0.47336000204086304;-0.34355199337005615;0.9464759826660156;0.5777919888496399;-0.47043198347091675;1.0970239639282227;0.0;0.0;0.0
85;0.0;0.0;0.0;0.569983959197998;-0.4509119987487793;1.1009279489517212;0.0;0.0;0.0
87;0.0;0.0;0.0;0.562175989151001;-0.5016639828681946;1.0970239639282227;0.0;0.0;0.0
89;0.0;0.0;0.0;0.562175989151001;-0.47043198347091675;1.0804319381713867;0.0;0.0;0.0
91;0.44310399889945984;-0.3379400074481964;0.9625799655914307;0.5582720041275024;-0.4665279984474182;1.0892159938812256;0.0;0.0;0.0
93;0.0;0.0;0.0;0.5426560044288635;-0.44310399889945984;1.0931199789047241;0.0;0.0;0.0
95;0.0;0.0;0.0;0.4997119903564453;-0.4665279984474182;1.10971200466156;0.0;0.0;0.0
97;0.0;0.0;0.0;0.5036159753799438;-0.45481598377227783;1.1419199705123901;0.0;0.0;0.0
100;0.4043079912662506;-0.3298879861831665;0.9764879941940308;0.4997119903564453;-0.45481598377227783;1.1214239597320557;0.0;0.0;0.0
102;0.0;0.0;0.0;0.49190399050712585;-0.45481598377227783;1.1058080196380615;0.0;0.0;0.0
104;0.0;0.0;0.0;0.5114240050315857;-0.4509119987487793;1.1175199747085571;0.0;0.0;0.0
106;0.0;0.0;0.0;0.5036159753799438;-0.4274879992008209;1.0892159938812256;0.0;0.0;0.0
108;0.3642919957637787;-0.31866398453712463;0.9713639616966248;0.4840959906578064;-0.4665279984474182;1.085312008857727;0.0;0.0;0.0
110;0.0;0.0;0.0;0.46457600593566895;-0.4509119987487793;1.0765279531478882;0.0;0.0;0.0
112;0.0;0.0;0.0;0.4333440065383911;-0.4509119987487793;1.060912013053894;0.0;0.0;0.0
114;0.0;0.0;0.0;0.4450559914112091;-0.4352959990501404;1.0804319381713867;0.0;0.0;0.0
117;0.32720398902893066;-0.3042680025100708;0.9472079873085022;0.4333440065383911;-0.3962559998035431;1.0404160022735596;0.0;0.0;0.0
119;0.0;0.0;0.0;0.39528000354766846;-0.4274879992008209;1.044319987297058;0.0;0.0;0.0
121;0.0;0.0;0.0;0.4108960032463074;-0.43139198422431946;1.0404160022735596;0.0;0.0;0.0
123;0.0;0.0;0.0;0.39528000354766846;-0.43139198422431946;1.060912013053894;0.0;0.0;0.0
125;0.27889198064804077;-0.2845039963722229;0.9267119765281677;0.387472003698349;-0.3962559998035431;1.0521279573440552;-21.10500144958496;-5.923749923706055;-33.71375274658203
127;0.0;0.0;0.0;0.4030880033969879;-0.3845439851284027;1.0482239723205566;0.0;0.0;0.0
129;0.0;0.0;0.0;0.35624000430107117;-0.36502400040626526;1.0404160022735596;0.0;0.0;0.0
131;0.0;0.0;0.0;0.3640480041503906;-0.36502400040626526;1.0082080364227295;0.0;0.0;0.0
134;0.24399998784065247;-0.2508319914340973;0.9049959778785706;0.35624000430107117;-0.3689279854297638;1.012112021446228;-20.33500099182129;-8.09375;-41.133750915527344
136;0.0;0.0;0.0;0.34062400460243225;-0.3806400001049042;1.0277279615402222;0.0;0.0;0.0
138;0.0;0.0;0.0;0.35233598947525024;-0.3416000008583069;0.9838079810142517;0.0;0.0;0.0
140;0.0;0.0;0.0;0.36795198917388916;-0.33769598603248596;0.9877119660377502;0.0;0.0;0.0
142;0.22911599278450012;-0.21740399301052094;0.8664439916610718;0.3211039900779724;-0.3181760013103485;0.9838079810142517;-19.635000228881836;-8.583749771118164;-47.573753356933594
144;0.0;0.0;0.0;0.33671998977661133;-0.30646398663520813;0.9750239849090576;0.0;0.0;0.0
146;0.0;0.0;0.0;0.32891198992729187;-0.33769598603248596;0.9428159594535828;0.0;0.0;0.0
148;0.0;0.0;0.0;0.3328160047531128;-0.3181760013103485;0.9555040001869202;0.0;0.0;0.0
151;0.21398799121379852;-0.18348799645900726;0.827892005443573;0.3211039900779724;-0.30646398663520813;0.9428159594535828;-17.815000534057617;-6.133749961853027;-51.77375030517578
153;0.0;0.0;0.0;0.30158400535583496;-0.2752319872379303;0.9389119744300842;0.0;0.0;0.0
155;0.0;0.0;0.0;0.3093920052051544;-0.2869440019130707;0.9515999555587769;0.0;0.0;0.0
157;0.0;0.0;0.0;0.2898719906806946;-0.2596159875392914;0.9271999597549438;0.0;0.0;0.0
159;0.177387997508049;-0.1466439962387085;0.802515983581543;0.2820639908313751;-0.25571200251579285;0.9311040043830872;-13.825000762939453;-1.6537500619888306;-53.03375244140625
161;0.0;0.0;0.0;0.2664479911327362;-0.2518079876899719;0.9350079894065857;0.0;0.0;0.0
163;0.0;0.0;0.0;0.24692799150943756;-0.2479040026664734;0.9350079894065857;0.0;0.0;0.0
165;0.0;0.0;0.0;0.23131199181079865;-0.2479040026664734;0.9311040043830872;0.0;0.0;0.0
168;0.10687199980020523;-0.10809199512004852;0.8098359704017639;0.2117919921875;-0.21667200326919556;0.9555040001869202;-8.295000076293945;3.456249952316284;-51.633750915527344
170;0.0;0.0;0.0;0.16494399309158325;-0.20105600357055664;0.9506239891052246;0.0;0.0;0.0
172;0.0;0.0;0.0;0.14932799339294434;-0.19324800372123718;0.9555040001869202;0.0;0.0;0.0
174;0.0;0.0;0.0;0.1571359932422638;-0.1815359890460968;0.9555040001869202;0.0;0.0;0.0
176;0.028303999453783035;-0.07612799853086472;0.8264279961585999;0.11419199407100677;-0.18934398889541626;0.9672159552574158;-3.0450000762939453;7.936249732971191;-47.36375045776367
178;0.0;0.0;0.0;0.07612799853086472;-0.20495998859405518;0.9711199998855591;0.0;0.0;0.0
180;0.0;0.0;0.0;0.06831999868154526;-0.17763200402259827;0.9672159552574158;0.0;0.0;0.0
182;0.0;0.0;0.0;0.0605119988322258;-0.16591998934745789;0.9955199956893921;0.0;0.0;0.0
185;-0.042211998254060745;-0.04147999733686447;0.8515599966049194;0.044895999133586884;-0.1542080044746399;1.012112021446228;1.9950000047683716;11.296250343322754;-40.503753662109375
187;0.0;0.0;0.0;0.009759999811649323;-0.1698240041732788;1.0160160064697266;0.0;0.0;0.0
189;0.0;0.0;0.0;-0.02537599951028824;-0.14640000462532043;1.019919991493225;0.0;0.0;0.0
191;0.0;0.0;0.0;-0.0605119988322258;-0.11126399785280228;1.012112021446228;0.0;0.0;0.0
193;-0.14225199818611145;-0.01268799975514412;0.8837679624557495;-0.029279999434947968;-0.13078400492668152;1.0277279615402222;5.704999923706055;13.536250114440918;-30.563749313354492
195;0.0;0.0;0.0;-0.11126399785280228;-0.12297599762678146;1.0082080364227295;0.0;0.0;0.0
197;0.0;0.0;0.0;-0.13468798995018005;-0.13859200477600098;1.0404160022735596;0.0;0.0;0.0
200;0.0;0.0;0.0;-0.16884799301624298;-0.13859200477600098;1.012112021446228;0.0;0.0;0.0
202;-0.25351598858833313;0.0026839999482035637;0.8974319696426392;-0.2000799924135208;-0.12297599762678146;1.019919991493225;9.13499927520752;12.836250305175781;-18.59375
204;0.0;0.0;0.0;-0.18836799263954163;-0.11907199770212173;1.044319987297058;0.0;0.0;0.0
206;0.0;0.0;0.0;-0.2000799924135208;-0.10345599800348282;1.0804319381713867;0.0;0.0;0.0
208;0.0;0.0;0.0;-0.23131199181079865;-0.115167997777462;1.044319987297058;0.0;0.0;0.0
210;-0.34940800070762634;0.011711999773979187;0.9157319664955139;-0.2508319914340973;-0.10735999792814255;1.0804319381713867;12.494999885559082;10.036250114440918;-6.903749942779541
212;0.0;0.0;0.0;-0.26254400610923767;-0.115167997777462;1.0804319381713867;0.0;0.0;0.0
214;0.0;0.0;0.0;-0.27425599098205566;-0.13468798995018005;1.1009279489517212;0.0;0.0;0.0
217;0.0;0.0;0.0;-0.3093920052051544;-0.11907199770212173;1.1048319339752197;0.0;0.0;0.0
219;-0.40748000144958496;0.009759999811649323;0.9640439748764038;-0.30158400535583496;-0.1268799901008606;1.1419199705123901;12.704999923706055;8.56624984741211;2.7562499046325684
221;0.0;0.0;0.0;-0.3093920052051544;-0.13468798995018005;1.1536319255828857;0.0;0.0;0.0
223;0.0;0.0;0.0;-0.34355199337005615;-0.14640000462532043;1.1819360256195068;0.0;0.0;0.0
225;0.0;0.0;0.0;-0.33671998977661133;-0.1542080044746399;1.1741279363632202;0.0;0.0;0.0
227;-0.44359198212623596;0.0026839999482035637;1.0294359922409058;-0.32500800490379333;-0.11907199770212173;1.1868159770965576;8.434999465942383;6.746250152587891;11.786250114440918
229;0.0;0.0;0.0;-0.32500800490379333;-0.1424959897994995;1.1946239471435547;0.0;0.0;0.0
231;0.0;0.0;0.0;-0.3396480083465576;-0.15030398964881897;1.2346400022506714;0.0;0.0;0.0
234;0.0;0.0;0.0;-0.3474559783935547;-0.15030398964881897;1.2268320322036743;0.0;0.0;0.0
236;-0.46701598167419434;-0.010003999806940556;1.0872639417648315;-0.35916799306869507;-0.1424959897994995;1.2307360172271729;0.7350000143051147;2.336249828338623;19.416250228881836
238;0.0;0.0;0.0;-0.3474559783935547;-0.17763200402259827;1.2434239387512207;0.0;0.0;0.0
240;0.0;0.0;0.0;-0.3474559783935547;-0.17372798919677734;1.2395199537277222;0.0;0.0;0.0
242;0.0;0.0;0.0;-0.34355199337005615;-0.18544000387191772;1.2473279237747192;0.0;0.0;0.0
244;-0.4770199954509735;-0.043431997299194336;1.1111760139465332;-0.37088000774383545;-0.18544000387191772;1.2473279237747192;-8.855000495910645;-2.283750057220459;24.806249618530273
246;0.0;0.0;0.0;-0.38259199261665344;-0.21276798844337463;1.256111979484558;0.0;0.0;0.0
248;0.0;0.0;0.0;-0.34355199337005615;-0.2205759882926941;1.2600159645080566;0.0;0.0;0.0
251;0.0;0.0;0.0;-0.35916799306869507;-0.22838398814201355;1.256111979484558;0.0;0.0;0.0
253;-0.4858039915561676;-0.08906000107526779;1.128499984741211;-0.38259199261665344;-0.24009600281715393;1.2766079902648926;-18.864999771118164;-5.71375036239624;27.606250762939453
255;0.0;0.0;0.0;-0.37088000774383545;-0.23228800296783447;1.272704005241394;0.0;0.0;0.0
257;0.0;0.0;0.0;-0.38649600744247437;-0.2635200023651123;1.2883199453353882;0.0;0.0;0.0
259;0.0;0.0;0.0;-0.39820799231529236;-0.29865598678588867;1.3127199411392212;0.0;0.0;0.0
261;-0.5131319761276245;-0.13053999841213226;1.152411937713623;-0.38259199261665344;-0.29865598678588867;1.2805119752883911;-28.385000228881836;-9.143750190734863;27.676250457763672
263;0.0;0.0;0.0;-0.4138239920139313;-0.30646398663520813;1.3039360046386719;0.0;0.0;0.0
265;0.0;0.0;0.0;-0.39430397748947144;-0.30646398663520813;1.3000320196151733;0.0;0.0;0.0
268;0.0;0.0;0.0;-0.3669759929180145;-0.3337920010089874;1.287343978881836;0.0;0.0;0.0
270;-0.525331974029541;-0.17592400312423706;1.1624159812927246;-0.4177280068397522;-0.33769598603248596;1.3000320196151733;-36.154998779296875;-12.43375015258789;25.296249389648438
272;0.0;0.0;0.0;-0.3903999924659729;-0.33769598603248596;1.2717279195785522;0.0;0.0;0.0
274;0.0;0.0;0.0;-0.39820799231529236;-0.37673598527908325;1.2834399938583374;0.0;0.0;0.0
276;0.0;0.0;0.0;-0.4021120071411133;-0.38844799995422363;1.2834399938583374;0.0;0.0;0.0
278;-0.5187439918518066;-0.22911599278450012;1.1577799320220947;-0.37088000774383545;-0.38844799995422363;1.2912479639053345;-40.56500244140625;-15.443750381469727;22.986249923706055
280;0.0;0.0;0.0;-0.3669759929180145;-0.3962559998035431;1.2922239303588867;0.0;0.0;0.0
282;0.0;0.0;0.0;-0.3630719780921936;-0.423583984375;1.3000320196151733;0.0;0.0;0.0
285;0.0;0.0;0.0;-0.35526400804519653;-0.41967999935150146;1.2795360088348389;0.0;0.0;0.0
287;-0.5023959875106812;-0.2757200002670288;1.154852032661438;-0.38649600744247437;-0.4470079839229584;1.2834399938583374;-41.26499938964844;-18.943748474121094;22.146249771118164
289;0.0;0.0;0.0;-0.3513599932193756;-0.423583984375;1.2590399980545044;0.0;0.0;0.0
291;0.0;0.0;0.0;-0.35526400804519653;-0.45871999859809875;1.262943983078003;0.0;0.0;0.0
293;0.0;0.0;0.0;-0.37088000774383545;-0.48604798316955566;1.2639199495315552;0.0;0.0;0.0
295;-0.5021519660949707;-0.3198840022087097;1.1345999240875244;-0.39430397748947144;-0.48604798316955566;1.2551360130310059;-38.46500015258789;-22.09375;21.796249389648438
297;0.0;0.0;0.0;-0.39430397748947144;-0.47433599829673767;1.23854398727417;0.0;0.0;0.0
299;0.0;0.0;0.0;-0.3786879777908325;-0.4938559830188751;1.2512320280075073;0.0;0.0;0.0
302;0.0;0.0;0.0;-0.38649600744247437;-0.48604798316955566;1.2473279237747192;0.0;0.0;0.0
304;-0.5033720135688782;-0.34940800070762634;1.1133719682693481;-0.374783992767334;-0.49775999784469604;1.2112159729003906;-32.375;-25.733749389648438;21.096250534057617
306;0.0;0.0;0.0;-0.3630719780921936;-0.48214399814605713;1.1946239471435547;0.0;0.0;0.0
308;0.0;0.0;0.0;-0.3445279896259308;-0.513375997543335;1.1946239471435547;0.0;0.0;0.0
310;0.0;0.0;0.0;-0.33183997869491577;-0.5172799825668335;1.1907199621200562;0.0;0.0;0.0
312;-0.47677600383758545;-0.37088000774383545;1.0723799467086792;-0.32891198992729187;-0.5289919972419739;1.1907199621200562;-23.76500129699707;-29.02374839782715;19.696250915527344
314;0.0;0.0;0.0;-0.3172000050544739;-0.5328959822654724;1.1702239513397217;0.0;0.0;0.0
316;0.0;0.0;0.0;-0.3211039900779724;-0.5016639828681946;1.1624159812927246;0.0;0.0;0.0
319;0.0;0.0;0.0;-0.3054879903793335;-0.5250880122184753;1.1624159812927246;0.0;0.0;0.0
321;-0.4438360035419464;-0.38600799441337585;1.038219928741455;-0.29767999053001404;-0.5055679678916931;1.1614400148391724;-13.895000457763672;-29.79374885559082;17.45625114440918
323;0.0;0.0;0.0;-0.3172000050544739;-0.513375997543335;1.1458239555358887;0.0;0.0;0.0
325;0.0;0.0;0.0;-0.29767999053001404;-0.5172799825668335;1.1419199705123901;0.0;0.0;0.0
327;0.0;0.0;0.0;-0.3054879903793335;-0.5094720125198364;1.1380159854888916;0.0;0.0;0.0
329;-0.42260798811912537;-0.39430397748947144;1.0104039907455444;-0.2937760055065155;-0.5563200116157532;1.1419199705123901;-4.375;-28.813749313354492;14.936250686645508
331;0.0;0.0;0.0;-0.28596800565719604;-0.5563200116157532;1.1302080154418945;0.0;0.0;0.0
333;0.0;0.0;0.0;-0.28596800565719604;-0.5172799825668335;1.0862879753112793;0.0;0.0;0.0
336;0.0;0.0;0.0;-0.31329599022865295;-0.5172799825668335;1.1145919561386108;0.0;0.0;0.0
338;-0.41797199845314026;-0.38600799441337585;0.9835639595985413;-0.3093920052051544;-0.5055679678916931;1.0940959453582764;5.144999980926514;-28.04374885559082;12.346250534057617
340;0.0;0.0;0.0;-0.27035200595855713;-0.5094720125198364;1.097999930381775;0.0;0.0;0.0
342;0.0;0.0;0.0;-0.27035200595855713;-0.4938559830188751;1.0814080238342285;0.0;0.0;0.0
344;0.0;0.0;0.0;-0.2781600058078766;-0.48604798316955566;1.0775039196014404;0.0;0.0;0.0
346;-0.4013800024986267;-0.36209598183631897;0.9550159573554993;-0.27425599098205566;-0.4782399833202362;1.10971200466156;13.614999771118164;-27.763750076293945;9.826250076293945
348;0.0;0.0;0.0;-0.2547360062599182;-0.4782399833202362;1.0765279531478882;0.0;0.0;0.0
350;0.0;0.0;0.0;-0.2508319914340973;-0.4470079839229584;1.060912013053894;0.0;0.0;0.0
353;0.0;0.0;0.0;-0.2547360062599182;-0.4782399833202362;1.0648159980773926;0.0;0.0;0.0
355;-0.37331998348236084;-0.33720800280570984;0.9352520108222961;-0.24692799150943756;-0.4626239836215973;1.0160160064697266;18.934999465942383;-26.50374984741211;7.4462504386901855
357;0.0;0.0;0.0;-0.2000799924135208;-0.44310399889945984;1.044319987297058;0.0;0.0;0.0
359;0.0;0.0;0.0;-0.2000799924135208;-0.45871999859809875;1.019919991493225;0.0;0.0;0.0
361;0.0;0.0;0.0;-0.16884799301624298;-0.4470079839229584;1.012112021446228;0.0;0.0;0.0
363;-0.30743998289108276;-0.32037198543548584;0.8947479724884033;-0.16103999316692352;-0.43139198422431946;1.0160160064697266;22.225000381469727;-23.70374870300293;5.416250228881836
366;0.0;0.0;0.0;-0.11907199770212173;-0.4391999840736389;0.9925919771194458;0.0;0.0;0.0
367;0.0;0.0;0.0;-0.11126399785280228;-0.4079679846763611;0.9847840070724487;0.0;0.0;0.0
370;0.0;0.0;0.0;-0.07222399860620499;-0.41577598452568054;0.9886879920959473;0.0;0.0;0.0
372;-0.21886800229549408;-0.2886520028114319;0.8610759973526001;-0.07222399860620499;-0.43139198422431946;0.9799039959907532;26.145000457763672;-20.13374900817871;4.43625020980835
374;0.0;0.0;0.0;-0.040991999208927155;-0.3845439851284027;0.9720959663391113;0.0;0.0;0.0
376;0.0;0.0;0.0;-0.013663999736309052;-0.4079679846763611;0.9603840112686157;0.0;0.0;0.0
378;0.0;0.0;0.0;-0.009759999811649323;-0.3728320002555847;0.9437919855117798;0.0;0.0;0.0
380;-0.1373720020055771;-0.25229600071907043;0.826915979385376;0.0019519999623298645;-0.3728320002555847;0.9359839558601379;30.204999923706055;-16.423749923706055;5.346250057220459
382;0.0;0.0;0.0;0.04879999905824661;-0.37673598527908325;0.9359839558601379;0.0;0.0;0.0
384;0.0;0.0;0.0;0.06441599875688553;-0.3572160005569458;0.9232959747314453;0.0;0.0;0.0
387;0.0;0.0;0.0;0.07222399860620499;-0.3572160005569458;0.9154880046844482;0.0;0.0;0.0
389;-0.07320000231266022;-0.23472799360752106;0.7925119996070862;0.0878399983048439;-0.3455039858818054;0.9193919897079468;33.845001220703125;-11.173749923706055;7.376250267028809
391;0.0;0.0;0.0;0.09564799815416336;-0.3689279854297638;0.9232959747314453;0.0;0.0;0.0
393;0.0;0.0;0.0;0.10638399422168732;-0.36502400040626526;0.9271999597549438;0.0;0.0;0.0
395;0.0;0.0;0.0;0.10345599800348282;-0.4001599848270416;0.9076799750328064;0.0;0.0;0.0
397;-0.02025200054049492;-0.240339994430542;0.7776280045509338;0.09564799815416336;-0.37673598527908325;0.8949919939041138;37.904998779296875;-4.523750305175781;9.616250038146973
400;0.0;0.0;0.0;0.12199999392032623;-0.3845439851284027;0.9067040085792542;0.0;0.0;0.0
402;0.0;0.0;0.0;0.11126399785280228;-0.36111998558044434;0.8823039531707764;0.0;0.0;0.0
404;0.0;0.0;0.0;0.1298079937696457;-0.3689279854297638;0.8735199570655823;0.0;0.0;0.0
406;0.0026839999482035637;-0.2454639971256256;0.7668919563293457;0.1180959939956665;-0.3533119857311249;0.8783999681472778;42.875;1.7762500047683716;11.576250076293945
408;0.0;0.0;0.0;0.13761599361896515;-0.39235198497772217;0.8783999681472778;0.0;0.0;0.0
410;0.0;0.0;0.0;0.16884799301624298;-0.37673598527908325;0.8744959831237793;0.0;0.0;0.0
412;0.0;0.0;0.0;0.16884799301624298;-0.3337920010089874;0.8783999681472778;0.0;0.0;0.0
414;0.03245199844241142;-0.23009198904037476;0.748591959476471;0.20398399233818054;-0.3533119857311249;0.8579039573669434;48.334999084472656;7.446249961853027;11.226250648498535
417;0.0;0.0;0.0;0.2117919921875;-0.3455039858818054;0.8500959873199463;0.0;0.0;0.0
419;0.0;0.0;0.0;0.2117919921875;-0.33769598603248596;0.8783999681472778;0.0;0.0;0.0
421;0.0;0.0;0.0;0.2391199916601181;-0.33769598603248596;0.8579039573669434;0.0;0.0;0.0
423;0.10199199616909027;-0.20861999690532684;0.7402960062026978;0.2508319914340973;-0.3416000008583069;0.8657119870185852;52.95499801635742;13.956250190734863;9.476250648498535
425;0.0;0.0;0.0;0.27425599098205566;-0.31036800146102905;0.8783999681472778;0.0;0.0;0.0
427;0.0;0.0;0.0;0.3054879903793335;-0.3025600016117096;0.8735199570655823;0.0;0.0;0.0
429;0.0;0.0;0.0;0.3328160047531128;-0.30646398663520813;0.8735199570655823;0.0;0.0;0.0
431;0.16860400140285492;-0.17348399758338928;0.7478600144386292;0.3328160047531128;-0.3025600016117096;0.8901119828224182;55.6150016784668;21.0262508392334;8.356249809265137
434;0.0;0.0;0.0;0.34062400460243225;-0.31036800146102905;0.9067040085792542;0.0;0.0;0.0
436;0.0;0.0;0.0;0.33671998977661133;-0.26742398738861084;0.9067040085792542;0.0;0.0;0.0
438;0.0;0.0;0.0;0.3328160047531128;-0.25571200251579285;0.9067040085792542;0.0;0.0;0.0
440;0.2164279967546463;-0.15274399518966675;0.7737239599227905;0.36795198917388916;-0.29475200176239014;0.8979200124740601;57.57500076293945;27.466251373291016;9.05625057220459
442;0.0;0.0;0.0;0.3640480041503906;-0.2791360020637512;0.9262239933013916;0.0;0.0;0.0
444;0.0;0.0;0.0;0.35624000430107117;-0.2752319872379303;0.8901119828224182;0.0;0.0;0.0
446;0.0;0.0;0.0;0.36795198917388916;-0.26742398738861084;0.9145119786262512;0.0;0.0;0.0
448;0.25912800431251526;-0.13981199264526367;0.7812879681587219;0.4177280068397522;-0.2752319872379303;0.8901119828224182;58.904998779296875;32.29624938964844;9.9662504196167
451;0.0;0.0;0.0;0.42553597688674927;-0.2596159875392914;0.9027999639511108;0.0;0.0;0.0
453;0.0;0.0;0.0;0.44896000623703003;-0.2635200023651123;0.8823039531707764;0.0;0.0;0.0
455;0.0;0.0;0.0;0.4684799909591675;-0.22838398814201355;0.9027999639511108;0.0;0.0;0.0
457;0.32622799277305603;-0.11882799863815308;0.770796000957489;0.4840959906578064;-0.24399998784065247;0.8862079977989197;61.005001068115234;36.98624801635742;9.476250648498535
459;0.0;0.0;0.0;0.5387519598007202;-0.22448000311851501;0.9027999639511108;0.0;0.0;0.0
461;0.0;0.0;0.0;0.5153279900550842;-0.19715198874473572;0.9067040085792542;0.0;0.0;0.0
463;0.0;0.0;0.0;0.5504639744758606;-0.21276798844337463;0.9184159636497498;0.0;0.0;0.0
465;0.41870400309562683;-0.08003199845552444;0.7720159888267517;0.5777919888496399;-0.1815359890460968;0.9027999639511108;63.45499801635742;43.14624786376953;9.266250610351562
468;0.0;0.0;0.0;0.6168320178985596;-0.1815359890460968;0.9271999597549438;0.0;0.0;0.0
470;0.0;0.0;0.0;0.6246399879455566;-0.16201600432395935;0.9350079894065857;0.0;0.0;0.0
472;0.0;0.0;0.0;0.6090239882469177;-0.1542080044746399;0.9389119744300842;0.0;0.0;0.0
474;0.49190399050712585;-0.018300000578165054;0.806663990020752;0.6441599726676941;-0.1268799901008606;0.9428159594535828;64.57500457763672;49.026248931884766;11.506250381469727
476;0.0;0.0;0.0;0.6519680023193359;-0.0878399983048439;0.9672159552574158;0.0;0.0;0.0
478;0.0;0.0;0.0;0.636352002620697;-0.115167997777462;0.9467200040817261;0.0;0.0;0.0
480;0.0;0.0;0.0;0.6441599726676941;-0.09564799815416336;0.9711199998855591;0.0;0.0;0.0
482;0.5260639786720276;0.04025999829173088;0.8410679697990417;0.6666079759597778;-0.07222399860620499;0.9955199956893921;62.26499938964844;53.01625061035156;14.096250534057617
485;0.0;0.0;0.0;0.659775972366333;-0.037087999284267426;1.019919991493225;0.0;0.0;0.0
487;0.0;0.0;0.0;0.6705119609832764;-0.009759999811649323;1.0238239765167236;0.0;0.0;0.0
489;0.0;0.0;0.0;0.6558719873428345;-0.0019519999623298645;1.0648159980773926;0.0;0.0;0.0
491;0.5470479726791382;0.1105320006608963;0.9037759900093079;0.659775972366333;0.009759999811649323;1.0521279573440552;55.6150016784668;54.20624923706055;16.40625
493;0.0;0.0;0.0;0.6666079759597778;0.037087999284267426;1.0687199831008911;0.0;0.0;0.0
495;0.0;0.0;0.0;0.6636799573898315;0.0331839993596077;1.134112000465393;0.0;0.0;0.0
497;0.0;0.0;0.0;0.6744160056114197;0.02537599951028824;1.1087360382080078;0.0;0.0;0.0
499;0.5570520162582397;0.15445199608802795;0.9708759784698486;0.6939359903335571;0.01756799966096878;1.1136159896850586;42.03499984741211;50.776248931884766;17.946250915527344
502;0.0;0.0;0.0;0.7056480050086975;-0.0019519999623298645;1.1214239597320557;0.0;0.0;0.0
504;0.0;0.0;0.0;0.7368800044059753;0.009759999811649323;1.1292319297790527;0.0;0.0;0.0
506;0.0;0.0;0.0;0.7446879744529724;-0.0019519999623298645;1.1458239555358887;0.0;0.0;0.0
508;0.6153680086135864;0.1495719999074936;0.9996680021286011;0.8032479882240295;-0.0019519999623298645;1.1136159896850586;25.16499900817871;45.17625045776367;17.666250228881836
510;0.0;0.0;0.0;0.7837280035018921;0.009759999811649323;1.1419199705123901;0.0;0.0;0.0
512;0.0;0.0;0.0;0.8071519732475281;-0.013663999736309052;1.1380159854888916;0.0;0.0;0.0
514;0.0;0.0;0.0;0.8266719579696655;-0.009759999811649323;1.1497279405593872;0.0;0.0;0.0
516;0.6985719799995422;0.115167997777462;1.0311440229415894;0.8774240016937256;-0.0331839993596077;1.1985279321670532;8.434999465942383;40.13624954223633;18.436250686645508
519;0.0;0.0;0.0;0.8383839726448059;-0.05270399898290634;1.1663199663162231;0.0;0.0;0.0
521;0.0;0.0;0.0;0.8891359567642212;-0.0605119988322258;1.1663199663162231;0.0;0.0;0.0
523;0.0;0.0;0.0;0.9047519564628601;-0.07612799853086472;1.1868159770965576;0.0;0.0;0.0
525;0.7688440084457397;0.06295199692249298;1.0592039823532104;0.9154880046844482;-0.10345599800348282;1.1907199621200562;-5.84499979019165;33.97624969482422;19.626251220703125
527;0.0;0.0;0.0;0.9076799750328064;-0.13078400492668152;1.1663199663162231;0.0;0.0;0.0
529;0.0;0.0;0.0;0.9389119744300842;-0.17372798919677734;1.1819360256195068;0.0;0.0;0.0
531;0.0;0.0;0.0;0.9428159594535828;-0.19324800372123718;1.1702239513397217;0.0;0.0;0.0
533;0.8076399564743042;-0.03684400022029877;1.051151990890503;0.9242720007896423;-0.21276798844337463;1.1702239513397217;-15.855000495910645;28.86625099182129;19.416250228881836
536;0.0;0.0;0.0;0.9584319591522217;-0.2596159875392914;1.199504017829895;0.0;0.0;0.0
538;0.0;0.0;0.0;0.9232959747314453;-0.2596159875392914;1.1790080070495605;0.0;0.0;0.0
540;0.0;0.0;0.0;0.912559986114502;-0.28303998708724976;1.1877919435501099;0.0;0.0;0.0
542;0.8049559593200684;-0.14054399728775024;1.048467993736267;0.9311040043830872;-0.30646398663520813;1.1877919435501099;-20.405000686645508;25.36625099182129;14.376250267028809
544;0.0;0.0;0.0;0.9311040043830872;-0.3298879861831665;1.175104022026062;0.0;0.0;0.0
546;0.0;0.0;0.0;0.9350079894065857;-0.3455039858818054;1.199504017829895;0.0;0.0;0.0
548;0.0;0.0;0.0;0.9311040043830872;-0.36111998558044434;1.1868159770965576;0.0;0.0;0.0
550;0.8083719611167908;-0.2042279988527298;1.0623760223388672;0.9350079894065857;-0.3416000008583069;1.1877919435501099;-20.895000457763672;22.356250762939453;4.646250247955322
553;0.0;0.0;0.0;0.9232959747314453;-0.3845439851284027;1.175104022026062;0.0;0.0;0.0
555;0.0;0.0;0.0;0.9193919897079468;-0.3845439851284027;1.1877919435501099;0.0;0.0;0.0
557;0.0;0.0;0.0;0.9506239891052246;-0.3806400001049042;1.182911992073059;0.0;0.0;0.0
559;0.8249639868736267;-0.24595199525356293;1.0572519302368164;0.9350079894065857;-0.38844799995422363;1.1672959327697754;-18.235000610351562;20.396251678466797;-5.573750019073486
561;0.0;0.0;0.0;0.9467200040817261;-0.4079679846763611;1.175104022026062;0.0;0.0;0.0
563;0.0;0.0;0.0;0.9545279741287231;-0.423583984375;1.1956000328063965;0.0;0.0;0.0
565;0.0;0.0;0.0;0.9467200040817261;-0.38844799995422363;1.1633919477462769;0.0;0.0;0.0
567;0.8264279961585999;-0.2564440071582794;1.0450519323349;0.9232959747314453;-0.3728320002555847;1.1790080070495605;-11.9350004196167;18.99625015258789;-13.623749732971191
570;0.0;0.0;0.0;0.9193919897079468;-0.3845439851284027;1.1624159812927246;0.0;0.0;0.0
572;0.0;0.0;0.0;0.912559986114502;-0.3572160005569458;1.1780319213867188;0.0;0.0;0.0
574;0.0;0.0;0.0;0.9232959747314453;-0.3455039858818054;1.1458239555358887;0.0;0.0;0.0
576;0.7959280014038086;-0.23253199458122253;1.0250439643859863;0.9193919897079468;-0.3572160005569458;1.1458239555358887;-3.9549999237060547;18.08625030517578;-18.66374969482422
578;0.0;0.0;0.0;0.9037759900093079;-0.3298879861831665;1.1419199705123901;0.0;0.0;0.0
580;0.0;0.0;0.0;0.8813279867172241;-0.3533119857311249;1.1175199747085571;0.0;0.0;0.0
582;0.0;0.0;0.0;0.8579039573669434;-0.34940800070762634;1.1292319297790527;0.0;0.0;0.0
584;0.7737239599227905;-0.2147199958562851;1.0069879293441772;0.8696159720420837;-0.3533119857311249;1.1458239555358887;4.164999961853027;18.506250381469727;-21.393749237060547
587;0.0;0.0;0.0;0.9047519564628601;-0.44310399889945984;1.0901919603347778;0.0;0.0;0.0
589;0.0;0.0;0.0;0.8539999723434448;-0.23228800296783447;1.1790080070495605;0.0;0.0;0.0
591;0.0;0.0;0.0;0.822767972946167;-0.3181760013103485;1.1428959369659424;0.0;0.0;0.0
593;0.7473719716072083;-0.19764000177383423;1.0047919750213623;0.9047519564628601;-0.34940800070762634;1.097999930381775;11.514999389648438;18.436250686645508;-22.793750762939453
595;0.0;0.0;0.0;0.8305760025978088;-0.2752319872379303;1.199504017829895;0.0;0.0;0.0
597;0.0;0.0;0.0;0.8579039573669434;-0.3142719864845276;1.1106879711151123;0.0;0.0;0.0
599;0.0;0.0;0.0;0.7798239588737488;-0.3025600016117096;1.1058080196380615;0.0;0.0;0.0
601;0.7141879796981812;-0.17299599945545197;0.9847840070724487;0.8305760025978088;-0.31036800146102905;1.0657919645309448;16.065000534057617;17.036251068115234;-23.353750228881836
604;0.0;0.0;0.0;0.7563999891281128;-0.28303998708724976;1.0687199831008911;0.0;0.0;0.0
606;0.0;0.0;0.0;0.7563999891281128;-0.2908479869365692;1.0804319381713867;0.0;0.0;0.0
608;0.0;0.0;0.0;0.7290719747543335;-0.27132800221443176;1.0404160022735596;0.0;0.0;0.0
610;0.6248840093612671;-0.152988001704216;0.9342759847640991;0.6978399753570557;-0.28303998708724976;1.044319987297058;22.295000076293945;15.776249885559082;-23.563749313354492
612;0.0;0.0;0.0;0.709551990032196;-0.2596159875392914;1.0238239765167236;0.0;0.0;0.0
614;0.0;0.0;0.0;0.659775972366333;-0.2518079876899719;1.0404160022735596;0.0;0.0;0.0
616;0.0;0.0;0.0;0.6900320053100586;-0.2752319872379303;1.036512017250061;0.0;0.0;0.0
618;0.5575399994850159;-0.134443998336792;0.9145119786262512;0.6714879870414734;-0.2518079876899719;1.0570080280303955;31.674999237060547;13.4662504196167;-25.943750381469727
621;0.0;0.0;0.0;0.636352002620697;-0.26742398738861084;1.0657919645309448;0.0;0.0;0.0
623;0.0;0.0;0.0;0.6051200032234192;-0.22838398814201355;1.0657919645309448;0.0;0.0;0.0
625;0.0;0.0;0.0;0.6090239882469177;-0.19715198874473572;1.0823839902877808;0.0;0.0;0.0
627;0.5109359622001648;-0.09052399545907974;0.9354959726333618;0.5856000185012817;-0.19715198874473572;1.073599934577942;36.154998779296875;11.716249465942383;-27.063749313354492
629;0.0;0.0;0.0;0.5660799741744995;-0.19715198874473572;1.0696959495544434;0.0;0.0;0.0
631;0.0;0.0;0.0;0.5543680191040039;-0.1542080044746399;1.0657919645309448;0.0;0.0;0.0
633;0.0;0.0;0.0;0.5075199604034424;-0.1542080044746399;1.0657919645309448;0.0;0.0;0.0
635;0.42089998722076416;-0.042211998254060745;0.9425719976425171;0.4958080053329468;-0.16201600432395935;1.0531039237976074;34.61499786376953;9.126250267028809;-27.34375
638;0.0;0.0;0.0;0.4567679762840271;-0.14640000462532043;1.0521279573440552;0.0;0.0;0.0
640;0.0;0.0;0.0;0.4567679762840271;-0.1424959897994995;1.0726239681243896;0.0;0.0;0.0
642;0.0;0.0;0.0;0.43724799156188965;-0.13468798995018005;1.0570080280303955;0.0;0.0;0.0
644;0.342087984085083;-0.022935999557375908;0.9381799697875977;0.4333440065383911;-0.1542080044746399;1.0570080280303955;30.69499969482422;5.62624979019165;-27.833749771118164
646;0.0;0.0;0.0;0.42553597688674927;-0.15811198949813843;1.0765279531478882;0.0;0.0;0.0
648;0.0;0.0;0.0;0.42163199186325073;-0.1268799901008606;1.060912013053894;0.0;0.0;0.0
650;0.0;0.0;0.0;0.399183988571167;-0.15030398964881897;1.0570080280303955;0.0;0.0;0.0
652;0.29401999711990356;-0.010979999788105488;0.9298839569091797;0.4030880033969879;-0.13859200477600098;1.0648159980773926;24.114999771118164;2.966249942779541;-26.923749923706055
655;0.0;0.0;0.0;0.3718560039997101;-0.11126399785280228;1.0531039237976074;0.0;0.0;0.0
657;0.0;0.0;0.0;0.35624000430107117;-0.15030398964881897;1.0696959495544434;0.0;0.0;0.0
659;0.0;0.0;0.0;0.32891198992729187;-0.11907199770212173;1.0413919687271118;0.0;0.0;0.0
661;0.23472799360752106;-0.0012199999764561653;0.9315919876098633;0.3211039900779724;-0.13859200477600098;1.073599934577942;14.875;1.4262499809265137;-25.66374969482422
663;0.0;0.0;0.0;0.3211039900779724;-0.13078400492668152;1.0696959495544434;0.0;0.0;0.0
665;0.0;0.0;0.0;0.27425599098205566;-0.16201600432395935;1.0579839944839478;0.0;0.0;0.0
667;0.0;0.0;0.0;0.2781600058078766;-0.1698240041732788;1.073599934577942;0.0;0.0;0.0
669;0.17177599668502808;-0.024643998593091965;0.9367159605026245;0.27425599098205566;-0.1815359890460968;1.0570080280303955;3.184999942779541;-0.32374998927116394;-25.313749313354492
672;0.0;0.0;0.0;0.24692799150943756;-0.20495998859405518;1.0775039196014404;0.0;0.0;0.0
674;0.0;0.0;0.0;0.2235039919614792;-0.24399998784065247;1.0413919687271118;0.0;0.0;0.0
676;0.0;0.0;0.0;0.21959999203681946;-0.18934398889541626;1.0814080238342285;0.0;0.0;0.0
678;0.11297199875116348;-0.07637199759483337;0.9359839558601379;0.18836799263954163;-0.24399998784065247;1.0657919645309448;-8.155000686645508;-1.3737499713897705;-25.453750610351562
680;0.0;0.0;0.0;0.18055999279022217;-0.27132800221443176;1.0775039196014404;0.0;0.0;0.0
682;0.0;0.0;0.0;0.18836799263954163;-0.25571200251579285;1.0901919603347778;0.0;0.0;0.0
684;0.0;0.0;0.0;0.16884799301624298;-0.236191987991333;1.097999930381775;0.0;0.0;0.0
686;0.0500199981033802;-0.1210239976644516;0.9576999545097351;0.16103999316692352;-0.25571200251579285;1.0862879753112793;-17.815000534057617;-1.7937500476837158;-24.68375015258789
689;0.0;0.0;0.0;0.13371199369430542;-0.28303998708724976;1.097999930381775;0.0;0.0;0.0
691;0.0;0.0;0.0;0.11126399785280228;-0.2635200023651123;1.1106879711151123;0.0;0.0;0.0
693;0.0;0.0;0.0;0.06441599875688553;-0.30646398663520813;1.0862879753112793;0.0;0.0;0.0
695;-0.02391199953854084;-0.16103999316692352;0.9652639627456665;0.06441599875688553;-0.29865598678588867;1.1106879711151123;-25.024999618530273;-2.213750123977661;-22.233749389648438
697;0.0;0.0;0.0;0.07222399860620499;-0.32207998633384705;1.0901919603347778;0.0;0.0;0.0
699;0.0;0.0;0.0;0.02537599951028824;-0.3298879861831665;1.0901919603347778;0.0;0.0;0.0
701;0.0;0.0;0.0;0.02537599951028824;-0.33769598603248596;1.1302080154418945;0.0;0.0;0.0
703;-0.08198399841785431;-0.2030079960823059;0.9735599756240845;-0.009759999811649323;-0.3806400001049042;1.101904034614563;-26.42500114440918;-2.0037500858306885;-20.483749389648438
706;0.0;0.0;0.0;0.013663999736309052;-0.3689279854297638;1.1311839818954468;0.0;0.0;0.0
708;0.0;0.0;0.0;-0.02147199958562851;-0.3689279854297638;1.1184959411621094;0.0;0.0;0.0
710;0.0;0.0;0.0;-0.0331839993596077;-0.3533119857311249;1.134112000465393;0.0;0.0;0.0
712;-0.13468798995018005;-0.23179998993873596;1.0028399229049683;-0.037087999284267426;-0.3689279854297638;1.1350879669189453;-23.345001220703125;-2.0037500858306885;-19.2237491607666
714;0.0;0.0;0.0;-0.040991999208927155;-0.36502400040626526;1.1633919477462769;0.0;0.0;0.0
716;0.0;0.0;0.0;-0.07612799853086472;-0.3728320002555847;1.1672959327697754;0.0;0.0;0.0
718;0.0;0.0;0.0;-0.0878399983048439;-0.38844799995422363;1.175104022026062;0.0;0.0;0.0
720;-0.18812400102615356;-0.23692399263381958;1.0330959558486938;-0.11126399785280228;-0.3533119857311249;1.1672959327697754;-18.165000915527344;-0.8837500214576721;-18.313749313354492
723;0.0;0.0;0.0;-0.12297599762678146;-0.3416000008583069;1.175104022026062;0.0;0.0;0.0
725;0.0;0.0;0.0;-0.1454239934682846;-0.3533119857311249;1.182911992073059;0.0;0.0;0.0
727;0.0;0.0;0.0;-0.17665599286556244;-0.3416000008583069;1.1790080070495605;0.0;0.0;0.0
729;-0.2752319872379303;-0.21447598934173584;1.0560319423675537;-0.18836799263954163;-0.32207998633384705;1.1956000328063965;-12.565000534057617;-0.5337499976158142;-17.333749771118164
731;0.0;0.0;0.0;-0.24692799150943756;-0.3025600016117096;1.1877919435501099;0.0;0.0;0.0
733;0.0;0.0;0.0;-0.2547360062599182;-0.32207998633384705;1.2034080028533936;0.0;0.0;0.0
735;0.0;0.0;0.0;-0.27035200595855713;-0.31036800146102905;1.2112159729003906;0.0;0.0;0.0
737;-0.37258797883987427;-0.19349199533462524;1.0706720352172852;-0.3093920052051544;-0.32598400115966797;1.199504017829895;-6.474999904632568;-1.6537500619888306;-17.193750381469727
740;0.0;0.0;0.0;-0.3054879903793335;-0.29865598678588867;1.223904013633728;0.0;0.0;0.0
742;0.0;0.0;0.0;-0.32500800490379333;-0.2752319872379303;1.2404959201812744;0.0;0.0;0.0
744;0.0;0.0;0.0;-0.37088000774383545;-0.2752319872379303;1.256111979484558;0.0;0.0;0.0
746;-0.4533520042896271;-0.1647000014781952;1.0943399667739868;-0.3669759929180145;-0.2791360020637512;1.223904013633728;-0.5249999761581421;-4.943749904632568;-16.493749618530273
748;0.0;0.0;0.0;-0.3669759929180145;-0.2752319872379303;1.2278079986572266;0.0;0.0;0.0
750;0.0;0.0;0.0;-0.38649600744247437;-0.2479040026664734;1.2648959159851074;0.0;0.0;0.0
752;0.0;0.0;0.0;-0.35916799306869507;-0.2479040026664734;1.2356159687042236;0.0;0.0;0.0
754;-0.4970279932022095;-0.12785600125789642;1.099463939666748;-0.3786879777908325;-0.24009600281715393;1.2278079986572266;3.184999942779541;-8.023750305175781;-14.25374984741211
757;0.0;0.0;0.0;-0.374783992767334;-0.2479040026664734;1.231711983680725;0.0;0.0;0.0
759;0.0;0.0;0.0;-0.3786879777908325;-0.21276798844337463;1.256111979484558;0.0;0.0;0.0
761;0.0;0.0;0.0;-0.3786879777908325;-0.22448000311851501;1.2883199453353882;0.0;0.0;0.0
763;-0.5062999725341797;-0.09345199912786484;1.1148359775543213;-0.38259199261665344;-0.2088640034198761;1.2648959159851074;3.674999952316284;-9.073750495910645;-9.493749618530273
765;0.0;0.0;0.0;-0.4060159921646118;-0.20495998859405518;1.2805119752883911;0.0;0.0;0.0
767;0.0;0.0;0.0;-0.4294399917125702;-0.16201600432395935;1.2639199495315552;0.0;0.0;0.0
769;0.0;0.0;0.0;-0.39820799231529236;-0.1698240041732788;1.2844159603118896;0.0;0.0;0.0
772;-0.5380200147628784;-0.05441199988126755;1.146799921989441;-0.42553597688674927;-0.16591998934745789;1.2844159603118896;-0.2449999898672104;-8.93375015258789;-3.6137499809265137
774;0.0;0.0;0.0;-0.472383975982666;-0.1815359890460968;1.3049119710922241;0.0;0.0;0.0
776;0.0;0.0;0.0;-0.460671991109848;-0.17372798919677734;1.3088159561157227;0.0;0.0;0.0
778;0.0;0.0;0.0;-0.472383975982666;-0.1815359890460968;1.345903992652893;0.0;0.0;0.0
780;-0.6034119725227356;-0.038307998329401016;1.1748600006103516;-0.4958080053329468;-0.17372798919677734;1.3449280261993408;-7.034999847412109;-9.633749961853027;1.006250023841858
782;0.0;0.0;0.0;-0.4997119903564453;-0.16591998934745789;1.3498079776763916;0.0;0.0;0.0
784;0.0;0.0;0.0;-0.5348479747772217;-0.18934398889541626;1.345903992652893;0.0;0.0;0.0
786;0.0;0.0;0.0;-0.5387519598007202;-0.17763200402259827;1.3332159519195557;0.0;0.0;0.0
788;-0.6534320116043091;-0.04050400108098984;1.2097519636154175;-0.5582720041275024;-0.17763200402259827;1.3498079776763916;-15.92500114440918;-13.063750267028809;4.716250419616699
791;0.0;0.0;0.0;-0.5777919888496399;-0.17763200402259827;1.370303988456726;0.0;0.0;0.0
793;0.0;0.0;0.0;-0.5963360071182251;-0.19715198874473572;1.3332159519195557;0.0;0.0;0.0
795;0.0;0.0;0.0;-0.5963360071182251;-0.21667200326919556;1.3166239261627197;0.0;0.0;0.0
797;-0.7154079675674438;-0.0605119988322258;1.2002359628677368;-0.6080479621887207;-0.21276798844337463;1.3176000118255615;-24.255001068115234;-17.263750076293945;6.606250286102295
799;0.0;0.0;0.0;-0.5963360071182251;-0.2205759882926941;1.3088159561157227;0.0;0.0;0.0
801;0.0;0.0;0.0;-0.5846239924430847;-0.2205759882926941;1.3332159519195557;0.0;0.0;0.0
803;0.0;0.0;0.0;-0.6041439771652222;-0.25571200251579285;1.3088159561157227;0.0;0.0;0.0
806;-0.7280960083007812;-0.09711199998855591;1.185595989227295;-0.6002399921417236;-0.22838398814201355;1.297104001045227;-29.155000686645508;-21.463748931884766;7.516250133514404
808;0.0;0.0;0.0;-0.6158559918403625;-0.2791360020637512;1.2805119752883911;0.0;0.0;0.0
810;0.0;0.0;0.0;-0.5963360071182251;-0.29475200176239014;1.2883199453353882;0.0;0.0;0.0
812;0.0;0.0;0.0;-0.5963360071182251;-0.29475200176239014;1.3088159561157227;0.0;0.0;0.0
814;-0.7237039804458618;-0.1424959897994995;1.162660002708435;-0.5738880038261414;-0.2908479869365692;1.3010079860687256;-30.204999923706055;-25.103748321533203;8.426250457763672
816;0.0;0.0;0.0;-0.5582720041275024;-0.3181760013103485;1.2932000160217285;0.0;0.0;0.0
818;0.0;0.0;0.0;-0.5348479747772217;-0.3142719864845276;1.2932000160217285;0.0;0.0;0.0
820;0.0;0.0;0.0;-0.5504639744758606;-0.3337920010089874;1.2844159603118896;0.0;0.0;0.0
823;-0.6773439645767212;-0.18251200020313263;1.1641240119934082;-0.5114240050315857;-0.33769598603248596;1.2883199453353882;-28.03499984741211;-27.903749465942383;9.40625
825;0.0;0.0;0.0;-0.5075199604034424;-0.33769598603248596;1.2883199453353882;0.0;0.0;0.0
827;0.0;0.0;0.0;-0.47628799080848694;-0.3689279854297638;1.256111979484558;0.0;0.0;0.0
829;0.0;0.0;0.0;-0.45286399126052856;-0.37673598527908325;1.2648959159851074;0.0;0.0;0.0
831;-0.6070719957351685;-0.2252119928598404;1.14655601978302;-0.4294399917125702;-0.39235198497772217;1.2648959159851074;-23.76500129699707;-29.373748779296875;10.176250457763672
833;0.0;0.0;0.0;-0.42553597688674927;-0.36502400040626526;1.2805119752883911;0.0;0.0;0.0
835;0.0;0.0;0.0;-0.42163199186325073;-0.3845439851284027;1.2356159687042236;0.0;0.0;0.0
837;0.0;0.0;0.0;-0.38649600744247437;-0.4001599848270416;1.199504017829895;0.0;0.0;0.0
840;-0.5470479726791382;-0.2559559941291809;1.1001960039138794;-0.4060159921646118;-0.4274879992008209;1.2160959243774414;-16.274999618530273;-29.233749389648438;9.126250267028809
842;0.0;0.0;0.0;-0.4021120071411133;-0.40406399965286255;1.1916959285736084;0.0;0.0;0.0
844;0.0;0.0;0.0;-0.3903999924659729;-0.4079679846763611;1.175104022026062;0.0;0.0;0.0
846;0.0;0.0;0.0;-0.37088000774383545;-0.411871999502182;1.1672959327697754;0.0;0.0;0.0
848;-0.5114240050315857;-0.2686440050601959;1.0538359880447388;-0.38259199261665344;-0.4079679846763611;1.1633919477462769;-6.615000247955322;-26.43375015258789;4.996250152587891
850;0.0;0.0;0.0;-0.38649600744247437;-0.3962559998035431;1.1877919435501099;0.0;0.0;0.0
852;0.0;0.0;0.0;-0.3669759929180145;-0.3962559998035431;1.1633919477462769;0.0;0.0;0.0
854;0.0;0.0;0.0;-0.37088000774383545;-0.3455039858818054;1.175104022026062;0.0;0.0;0.0
857;-0.4958080053329468;-0.24131599068641663;1.036512017250061;-0.35526400804519653;-0.3416000008583069;1.1672959327697754;2.4149999618530273;-22.373748779296875;-0.6037499904632568
859;0.0;0.0;0.0;-0.3445279896259308;-0.32598400115966797;1.158511996269226;0.0;0.0;0.0
861;0.0;0.0;0.0;-0.35916799306869507;-0.3181760013103485;1.158511996269226;0.0;0.0;0.0
863;0.0;0.0;0.0;-0.3328160047531128;-0.29475200176239014;1.1672959327697754;0.0;0.0;0.0
865;-0.47384798526763916;-0.18104799091815948;1.0372439622879028;-0.3172000050544739;-0.27132800221443176;1.1546080112457275;8.574999809265137;-19.2237491607666;-5.153749942779541
867;0.0;0.0;0.0;-0.3396480083465576;-0.27132800221443176;1.1712000370025635;0.0;0.0;0.0
869;0.0;0.0;0.0;-0.2937760055065155;-0.26742398738861084;1.1546080112457275;0.0;0.0;0.0
871;0.0;0.0;0.0;-0.31329599022865295;-0.24399998784065247;1.146799921989441;0.0;0.0;0.0
874;-0.42919600009918213;-0.12224400043487549;1.0211399793624878;-0.28596800565719604;-0.236191987991333;1.1302080154418945;11.444999694824219;-17.403749465942383;-7.463749885559082
876;0.0;0.0;0.0;-0.25863999128341675;-0.22448000311851501;1.1292319297790527;0.0;0.0;0.0
878;0.0;0.0;0.0;-0.2508319914340973;-0.21276798844337463;1.1136159896850586;0.0;0.0;0.0
880;0.0;0.0;0.0;-0.23521599173545837;-0.2088640034198761;1.1253279447555542;0.0;0.0;0.0
882;-0.37551599740982056;-0.08247199654579163;0.998691976070404;-0.20788799226284027;-0.20495998859405518;1.1175199747085571;11.934999465942383;-15.863750457763672;-6.483749866485596
884;0.0;0.0;0.0;-0.23521599173545837;-0.19324800372123718;1.1331360340118408;0.0;0.0;0.0
886;0.0;0.0;0.0;-0.2391199916601181;-0.2088640034198761;1.1009279489517212;0.0;0.0;0.0
888;0.0;0.0;0.0;-0.22740799188613892;-0.19324800372123718;1.1048319339752197;0.0;0.0;0.0
891;-0.3425759971141815;-0.06441599875688553;0.9830759763717651;-0.21569599211215973;-0.19324800372123718;1.1048319339752197;10.184999465942383;-13.833749771118164;-2.983750104904175
893;0.0;0.0;0.0;-0.20398399233818054;-0.20495998859405518;1.0765279531478882;0.0;0.0;0.0
895;0.0;0.0;0.0;-0.18055999279022217;-0.18544000387191772;1.10971200466156;0.0;0.0;0.0
897;0.0;0.0;0.0;-0.1844639927148819;-0.16591998934745789;1.0931199789047241;0.0;0.0;0.0
899;-0.3147599995136261;-0.06539200246334076;0.9740479588508606;-0.1727519929409027;-0.19324800372123718;1.0804319381713867;6.894999980926514;-12.013750076293945;1.216249942779541
901;0.0;0.0;0.0;-0.1727519929409027;-0.18934398889541626;1.10971200466156;0.0;0.0;0.0
903;0.0;0.0;0.0;-0.1844639927148819;-0.19715198874473572;1.1253279447555542;0.0;0.0;0.0
905;0.0;0.0;0.0;-0.1571359932422638;-0.2088640034198761;1.1136159896850586;0.0;0.0;0.0
908;-0.2862119972705841;-0.06929600238800049;0.9752680063247681;-0.15030398964881897;-0.2205759882926941;1.0804319381713867;3.4650001525878906;-11.733750343322754;4.856250286102295
910;0.0;0.0;0.0;-0.11126399785280228;-0.19324800372123718;1.0931199789047241;0.0;0.0;0.0
912;0.0;0.0;0.0;-0.11126399785280228;-0.23228800296783447;1.0765279531478882;0.0;0.0;0.0
914;0.0;0.0;0.0;-0.09955199807882309;-0.24009600281715393;1.0687199831008911;0.0;0.0;0.0
916;-0.23301999270915985;-0.09052399545907974;0.9537959694862366;-0.06831999868154526;-0.2479040026664734;1.060912013053894;1.225000023841858;-12.50374984741211;7.306250095367432
918;0.0;0.0;0.0;-0.044895999133586884;-0.26742398738861084;1.0648159980773926;0.0;0.0;0.0
920;0.0;0.0;0.0;-0.037087999284267426;-0.2635200023651123;1.0238239765167236;0.0;0.0;0.0
922;0.0;0.0;0.0;-0.01756799966096878;-0.25571200251579285;1.044319987297058;0.0;0.0;0.0
925;-0.1542080044746399;-0.11736399680376053;0.9228079915046692;-0.044895999133586884;-0.2908479869365692;1.036512017250061;1.225000023841858;-11.663749694824219;8.706250190734863
927;0.0;0.0;0.0;0.0019519999623298645;-0.2752319872379303;1.0413919687271118;0.0;0.0;0.0
929;0.0;0.0;0.0;0.037087999284267426;-0.24399998784065247;1.0287039279937744;0.0;0.0;0.0
931;0.0;0.0;0.0;0.05270399898290634;-0.27132800221443176;1.0287039279937744;0.0;0.0;0.0
933;-0.09637999534606934;-0.12663599848747253;0.9057279825210571;0.040991999208927155;-0.26742398738861084;1.0287039279937744;1.715000033378601;-8.443750381469727;9.40625
935;0.0;0.0;0.0;0.044895999133586884;-0.2596159875392914;1.0452959537506104;0.0;0.0;0.0
937;0.0;0.0;0.0;0.040991999208927155;-0.27132800221443176;1.0491999387741089;0.0;0.0;0.0
939;0.0;0.0;0.0;0.08003199845552444;-0.25571200251579285;1.0169919729232788;0.0;0.0;0.0
942;-0.06173199787735939;-0.13005200028419495;0.905239999294281;0.07222399860620499;-0.26742398738861084;1.0335839986801147;1.2950000762939453;-3.8937501907348633;9.196249961853027
944;0.0;0.0;0.0;0.09564799815416336;-0.25571200251579285;1.0374879837036133;0.0;0.0;0.0
946;0.0;0.0;0.0;0.10247999429702759;-0.2752319872379303;1.0531039237976074;0.0;0.0;0.0
948;0.0;0.0;0.0;0.07612799853086472;-0.27132800221443176;1.0413919687271118;0.0;0.0;0.0
950;-0.037331998348236084;-0.13517600297927856;0.9103639721870422;0.0878399983048439;-0.28303998708724976;1.0335839986801147;0.9450000524520874;0.16625000536441803;9.05625057220459
952;0.0;0.0;0.0;0.09467199444770813;-0.26742398738861084;1.0335839986801147;0.0;0.0;0.0
954;0.0;0.0;0.0;0.09955199807882309;-0.2752319872379303;1.0287039279937744;0.0;0.0;0.0
956;0.0;0.0;0.0;0.11028799414634705;-0.2908479869365692;1.0413919687271118;0.0;0.0;0.0
959;-0.014639999717473984;-0.13859200477600098;0.9113399982452393;0.1298079937696457;-0.27132800221443176;1.0335839986801147;1.1549999713897705;2.7562499046325684;10.24625015258789
961;0.0;0.0;0.0;0.1298079937696457;-0.25571200251579285;1.0413919687271118;0.0;0.0;0.0
963;0.0;0.0;0.0;0.14151999354362488;-0.27132800221443176;1.0491999387741089;0.0;0.0;0.0
965;0.0;0.0;0.0;0.14932799339294434;-0.2908479869365692;1.0531039237976074;0.0;0.0;0.0
967;0.020739998668432236;-0.13761599361896515;0.9103639721870422;0.18055999279022217;-0.27132800221443176;1.0657919645309448;1.3650000095367432;4.436249732971191;12.836250305175781
969;0.0;0.0;0.0;0.18055999279022217;-0.2752319872379303;1.0287039279937744;0.0;0.0;0.0
971;0.0;0.0;0.0;0.1844639927148819;-0.26742398738861084;1.0003999471664429;0.0;0.0;0.0
973;0.0;0.0;0.0;0.2117919921875;-0.28303998708724976;1.0247999429702759;0.0;0.0;0.0
976;0.07685999572277069;-0.1454239934682846;0.895967960357666;0.23131199181079865;-0.2791360020637512;1.0091840028762817;1.9950000047683716;5.90625;15.846250534057617
978;0.0;0.0;0.0;0.21959999203681946;-0.29475200176239014;1.0287039279937744;0.0;0.0;0.0
980;0.0;0.0;0.0;0.25863999128341675;-0.29865598678588867;0.9925919771194458;0.0;0.0;0.0
982;0.0;0.0;0.0;0.27425599098205566;-0.2908479869365692;0.9964959621429443;0.0;0.0;0.0
984;0.13834799826145172;-0.1617719978094101;0.8713240027427673;0.3054879903793335;-0.3142719864845276;0.9642879962921143;4.025000095367432;7.586249828338623;18.08625030517578
986;0.0;0.0;0.0;0.2937760055065155;-0.3142719864845276;0.9720959663391113;0.0;0.0;0.0
988;0.0;0.0;0.0;0.34062400460243225;-0.30646398663520813;0.9886879920959473;0.0;0.0;0.0
991;0.0;0.0;0.0;0.35624000430107117;-0.3142719864845276;0.9759999513626099;0.0;0.0;0.0
993;0.19617599248886108;-0.18251200020313263;0.8454599976539612;0.3601439893245697;-0.3181760013103485;0.9642879962921143;8.364999771118164;9.826250076293945;18.716249465942383
995;0.0;0.0;0.0;0.35233598947525024;-0.32598400115966797;0.9564799666404724;0.0;0.0;0.0
997;0.0;0.0;0.0;0.387472003698349;-0.32598400115966797;0.9476959705352783;0.0;0.0;0.0
999;0.0;0.0;0.0;0.36795198917388916;-0.29865598678588867;0.9437919855117798;0.0;0.0;0.0
1001;0.2432679980993271;-0.18665999174118042;0.8308199644088745;0.35233598947525024;-0.32598400115966797;0.9564799666404724;14.594999313354492;12.626250267028809;17.31624984741211
1003;0.0;0.0;0.0;0.39528000354766846;-0.31036800146102905;0.9154880046844482;0.0;0.0;0.0
1005;0.0;0.0;0.0;0.3718560039997101;-0.29865598678588867;0.9515999555587769;0.0;0.0;0.0
1008;0.0;0.0;0.0;0.399183988571167;-0.2908479869365692;0.9359839558601379;0.0;0.0;0.0
1010;0.2698639929294586;-0.15689200162887573;0.8171559572219849;0.42163199186325073;-0.22838398814201355;0.9525759816169739;21.594999313354492;15.8462495803833;15.076250076293945
1012;0.0;0.0;0.0;0.42553597688674927;-0.2479040026664734;0.9681919813156128;0.0;0.0;0.0
1014;0.0;0.0;0.0;0.39528000354766846;-0.24399998784065247;0.9603840112686157;0.0;0.0;0.0
1016;0.0;0.0;0.0;0.3835679888725281;-0.236191987991333;0.9603840112686157;0.0;0.0;0.0
1018;0.27669599652290344;-0.0983319953083992;0.8454599976539612;0.399183988571167;-0.19324800372123718;0.9886879920959473;25.584999084472656;18.506250381469727;14.726250648498535
1020;0.0;0.0;0.0;0.42553597688674927;-0.18544000387191772;0.9808799624443054;0.0;0.0;0.0
1022;0.0;0.0;0.0;0.40699198842048645;-0.16201600432395935;0.9886879920959473;0.0;0.0;0.0
1025;0.0;0.0;0.0;0.4567679762840271;-0.1815359890460968;0.9720959663391113;0.0;0.0;0.0
1027;0.3076840043067932;-0.052216000854969025;0.8574159741401672;0.47628799080848694;-0.1542080044746399;0.9925919771194458;25.725000381469727;19.346250534057617;14.796250343322754
1029;0.0;0.0;0.0;0.48019200563430786;-0.1815359890460968;0.9750239849090576;0.0;0.0;0.0
1031;0.0;0.0;0.0;0.48019200563430786;-0.13468798995018005;0.9955199956893921;0.0;0.0;0.0
1033;0.0;0.0;0.0;0.4840959906578064;-0.12297599762678146;0.9877119660377502;0.0;0.0;0.0
1035;0.36624398827552795;-0.01659199967980385;0.8622959852218628;0.5192319750785828;-0.13078400492668152;0.9916160106658936;24.815000534057617;20.11625099182129;15.706250190734863
1037;0.0;0.0;0.0;0.5231360197067261;-0.0878399983048439;1.0238239765167236;0.0;0.0;0.0
1039;0.0;0.0;0.0;0.5192319750785828;-0.115167997777462;1.0238239765167236;0.0;0.0;0.0
1042;0.0;0.0;0.0;0.5465599894523621;-0.09955199807882309;1.012112021446228;0.0;0.0;0.0
1044;0.4167519807815552;0.031231999397277832;0.884988009929657;0.5582720041275024;-0.09955199807882309;1.0326080322265625;20.895000457763672;20.88625144958496;18.016250610351562
1046;0.0;0.0;0.0;0.5738880038261414;-0.10345599800348282;1.0208959579467773;0.0;0.0;0.0
1048;0.0;0.0;0.0;0.5816959738731384;-0.09955199807882309;1.0413919687271118;0.0;0.0;0.0
1050;0.0;0.0;0.0;0.5934079885482788;-0.09955199807882309;1.0169919729232788;0.0;0.0;0.0
1052;0.4660399854183197;0.044652000069618225;0.8947479724884033;0.6129279732704163;-0.10345599800348282;1.0287039279937744;15.295000076293945;20.88625144958496;19.90625
1054;0.0;0.0;0.0;0.6090239882469177;-0.11907199770212173;1.0208959579467773;0.0;0.0;0.0
1056;0.0;0.0;0.0;0.6324479579925537;-0.10735999792814255;1.0374879837036133;0.0;0.0;0.0
1059;0.0;0.0;0.0;0.6246399879455566;-0.09955199807882309;1.0452959537506104;0.0;0.0;0.0
1061;0.5070319771766663;0.03562399744987488;0.9088999629020691;0.6402559876441956;-0.10345599800348282;1.0335839986801147;9.835000038146973;20.466251373291016;20.886249542236328
1063;0.0;0.0;0.0;0.6705119609832764;-0.115167997777462;1.0491999387741089;0.0;0.0;0.0
1065;0.0;0.0;0.0;0.6519680023193359;-0.11126399785280228;1.0775039196014404;0.0;0.0;0.0
1067;0.0;0.0;0.0;0.6675840020179749;-0.09955199807882309;1.0570080280303955;0.0;0.0;0.0
1069;0.536799967288971;0.016103999689221382;0.9237839579582214;0.6666079759597778;-0.13859200477600098;1.0491999387741089;4.724999904632568;19.2762508392334;20.95625114440918
1071;0.0;0.0;0.0;0.6675840020179749;-0.1268799901008606;1.0696959495544434;0.0;0.0;0.0
1073;0.0;0.0;0.0;0.709551990032196;-0.13859200477600098;1.0618879795074463;0.0;0.0;0.0
1076;0.0;0.0;0.0;0.6783199906349182;-0.12297599762678146;1.0618879795074463;0.0;0.0;0.0
1078;0.56632399559021;-0.003903999924659729;0.9279319643974304;0.709551990032196;-0.1424959897994995;1.0618879795074463;0.875;17.5262508392334;19.626251220703125
1080;0.0;0.0;0.0;0.725167989730835;-0.17372798919677734;1.0491999387741089;0.0;0.0;0.0
1082;0.0;0.0;0.0;0.7446879744529724;-0.16201600432395935;1.0618879795074463;0.0;0.0;0.0
1084;0.0;0.0;0.0;0.7563999891281128;-0.15811198949813843;1.0814080238342285;0.0;0.0;0.0
1086;0.6146360039710999;-0.01903199963271618;0.9389119744300842;0.7563999891281128;-0.15030398964881897;1.0940959453582764;-1.784999966621399;15.916250228881836;17.666250228881836
1088;0.0;0.0;0.0;0.8071519732475281;-0.1542080044746399;1.0940959453582764;0.0;0.0;0.0
1090;0.0;0.0;0.0;0.7837280035018921;-0.16591998934745789;1.0823839902877808;0.0;0.0;0.0
1093;0.0;0.0;0.0;0.7876319885253906;-0.18544000387191772;1.101904034614563;0.0;0.0;0.0
1095;0.6622160077095032;-0.020495999604463577;0.9564799666404724;0.8032479882240295;-0.1542080044746399;1.0775039196014404;-3.744999885559082;13.886249542236328;16.056249618530273
1097;0.0;0.0;0.0;0.8032479882240295;-0.15811198949813843;1.0696959495544434;0.0;0.0;0.0
1099;0.0;0.0;0.0;0.8305760025978088;-0.1424959897994995;1.1058080196380615;0.0;0.0;0.0
1101;0.0;0.0;0.0;0.8657119870185852;-0.18544000387191772;1.0901919603347778;0.0;0.0;0.0
1103;0.7132120132446289;-0.03415999934077263;0.9606279730796814;0.8657119870185852;-0.16591998934745789;1.0814080238342285;-5.005000114440918;12.276249885559082;15.006250381469727
1105;0.0;0.0;0.0;0.8657119870185852;-0.17763200402259827;1.0940959453582764;0.0;0.0;0.0
1107;0.0;0.0;0.0;0.8891359567642212;-0.19324800372123718;1.073599934577942;0.0;0.0;0.0
1110;0.0;0.0;0.0;0.8774240016937256;-0.16591998934745789;1.073599934577942;0.0;0.0;0.0
1112;0.7593280076980591;-0.04758000001311302;0.95306396484375;0.9008479714393616;-0.18934398889541626;1.0814080238342285;-5.425000190734863;10.876250267028809;13.186250686645508
1114;0.0;0.0;0.0;0.9076799750328064;-0.20495998859405518;1.0491999387741089;0.0;0.0;0.0
1116;0.0;0.0;0.0;0.8930400013923645;-0.21667200326919556;1.0618879795074463;0.0;0.0;0.0
1118;0.0;0.0;0.0;0.9115839600563049;-0.1698240041732788;1.0775039196014404;0.0;0.0;0.0
1120;0.7817760109901428;-0.0697840005159378;0.9442799687385559;0.8930400013923645;-0.19715198874473572;1.0823839902877808;-3.6050000190734863;11.016249656677246;10.946249961853027
1122;0.0;0.0;0.0;0.896943986415863;-0.24009600281715393;1.0775039196014404;0.0;0.0;0.0
1124;0.0;0.0;0.0;0.9193919897079468;-0.21276798844337463;1.0862879753112793;0.0;0.0;0.0
1127;0.0;0.0;0.0;0.9193919897079468;-0.24009600281715393;1.097999930381775;0.0;0.0;0.0
1129;0.7903159856796265;-0.08247199654579163;0.9601399898529053;0.9076799750328064;-0.21276798844337463;1.1058080196380615;-0.38499999046325684;10.946249961853027;8.846250534057617
1131;0.0;0.0;0.0;0.9037759900093079;-0.21667200326919556;1.0862879753112793;0.0;0.0;0.0
1133;0.0;0.0;0.0;0.9145119786262512;-0.21276798844337463;1.1145919561386108;0.0;0.0;0.0
1135;0.0;0.0;0.0;0.9076799750328064;-0.2088640034198761;1.101904034614563;0.0;0.0;0.0
1137;0.7810440063476562;-0.09125600010156631;0.9672159552574158;0.888159990310669;-0.24399998784065247;1.097999930381775;2.8350000381469727;10.526249885559082;6.396250247955322
1140;0.0;0.0;0.0;0.895967960357666;-0.24399998784065247;1.097999930381775;0.0;0.0;0.0
1141;0.0;0.0;0.0;0.888159990310669;-0.2596159875392914;1.0775039196014404;0.0;0.0;0.0
1144;0.0;0.0;0.0;0.9037759900093079;-0.23228800296783447;1.0696959495544434;0.0;0.0;0.0
1146;0.7668919563293457;-0.10467600077390671;0.9642879962921143;0.8842560052871704;-0.25571200251579285;1.0901919603347778;5.355000019073486;10.736249923706055;2.896250009536743
1148;0.0;0.0;0.0;0.8891359567642212;-0.25571200251579285;1.097999930381775;0.0;0.0;0.0
1150;0.0;0.0;0.0;0.8852319717407227;-0.22838398814201355;1.097999930381775;0.0;0.0;0.0
1152;0.0;0.0;0.0;0.8618080019950867;-0.23228800296783447;1.0862879753112793;0.0;0.0;0.0
1154;0.7395640015602112;-0.10955599695444107;0.9681919813156128;0.8422879576683044;-0.23228800296783447;1.1302080154418945;7.454999923706055;10.876250267028809;-0.39375001192092896
1157;0.0;0.0;0.0;0.8266719579696655;-0.22838398814201355;1.122399926185608;0.0;0.0;0.0
1159;0.0;0.0;0.0;0.8110559582710266;-0.24399998784065247;1.101904034614563;0.0;0.0;0.0
1161;0.0;0.0;0.0;0.799344003200531;-0.2205759882926941;1.1184959411621094;0.0;0.0;0.0
1163;0.6900320053100586;-0.10272400081157684;0.9977160096168518;0.7837280035018921;-0.236191987991333;1.1389919519424438;8.085000038146973;9.756250381469727;-3.7537500858306885
1165;0.0;0.0;0.0;0.7476159930229187;-0.23228800296783447;1.1546080112457275;0.0;0.0;0.0
1167;0.0;0.0;0.0;0.7554239630699158;-0.2635200023651123;1.146799921989441;0.0;0.0;0.0
1169;0.0;0.0;0.0;0.7359039783477783;-0.23228800296783447;1.150704026222229;0.0;0.0;0.0
1171;0.6365959644317627;-0.11126399785280228;1.0257760286331177;0.7319999933242798;-0.24009600281715393;1.158511996269226;5.775000095367432;6.536250114440918;-7.113749980926514
1174;0.0;0.0;0.0;0.7515199780464172;-0.26742398738861084;1.1389919519424438;0.0;0.0;0.0
1176;0.0;0.0;0.0;0.6890559792518616;-0.27132800221443176;1.150704026222229;0.0;0.0;0.0
1178;0.0;0.0;0.0;0.7202879786491394;-0.2908479869365692;1.1428959369659424;0.0;0.0;0.0
1180;0.5963360071182251;-0.13712799549102783;1.0218719244003296;0.7241919636726379;-0.2752319872379303;1.1389919519424438;2.4149999618530273;2.476249933242798;-10.333749771118164
1182;0.0;0.0;0.0;0.6861279606819153;-0.31036800146102905;1.1546080112457275;0.0;0.0;0.0
1184;0.0;0.0;0.0;0.6861279606819153;-0.2635200023651123;1.126304030418396;0.0;0.0;0.0
1186;0.0;0.0;0.0;0.6558719873428345;-0.30646398663520813;1.1389919519424438;0.0;0.0;0.0
1188;0.559004008769989;-0.1605519950389862;1.0108920335769653;0.6666079759597778;-0.3025600016117096;1.1389919519424438;0.24500000476837158;-1.0237499475479126;-13.133749961853027
1191;0.0;0.0;0.0;0.6548959612846375;-0.2908479869365692;1.1389919519424438;0.0;0.0;0.0
1193;0.0;0.0;0.0;0.636352002620697;-0.30646398663520813;1.1389919519424438;0.0;0.0;0.0
1195;0.0;0.0;0.0;0.6168320178985596;-0.3142719864845276;1.126304030418396;0.0;0.0;0.0
1197;0.5209400057792664;-0.18080399930477142;1.009671926498413;0.6285439729690552;-0.32598400115966797;1.146799921989441;-0.3149999976158142;-4.173749923706055;-15.723750114440918
1199;0.0;0.0;0.0;0.6207360029220581;-0.40406399965286255;1.0940959453582764;0.0;0.0;0.0
1201;0.0;0.0;0.0;0.5777919888496399;-0.32207998633384705;1.1350879669189453;0.0;0.0;0.0
1203;0.0;0.0;0.0;0.5465599894523621;-0.3142719864845276;1.150704026222229;0.0;0.0;0.0
1205;0.4804359972476959;-0.20617999136447906;0.9967399835586548;0.5582720041275024;-0.3298879861831665;1.1145919561386108;1.0149999856948853;-6.553750038146973;-18.59375
1208;0.0;0.0;0.0;0.5543680191040039;-0.36502400040626526;1.101904034614563;0.0;0.0;0.0
1210;0.0;0.0;0.0;0.5738880038261414;-0.3416000008583069;1.1184959411621094;0.0;0.0;0.0
1212;0.0;0.0;0.0;0.5543680191040039;-0.3025600016117096;1.1145919561386108;0.0;0.0;0.0
1214;0.4501799941062927;-0.20959599316120148;0.9823439717292786;0.562175989151001;-0.3298879861831665;1.0814080238342285;2.9049999713897705;-7.393750190734863;-22.16374969482422
1216;0.0;0.0;0.0;0.5192319750785828;-0.36111998558044434;1.097999930381775;0.0;0.0;0.0
1218;0.0;0.0;0.0;0.49190399050712585;-0.3337920010089874;1.097999930381775;0.0;0.0;0.0
1220;0.0;0.0;0.0;0.48799997568130493;-0.3181760013103485;1.0940959453582764;0.0;0.0;0.0
1222;0.38551998138427734;-0.1937360018491745;0.9637999534606934;0.4684799909591675;-0.31036800146102905;1.073599934577942;7.315000057220459;-6.62375020980835;-24.333749771118164
1225;0.0;0.0;0.0;0.4567679762840271;-0.33769598603248596;1.073599934577942;0.0;0.0;0.0
1227;0.0;0.0;0.0;0.4333440065383911;-0.3142719864845276;1.101904034614563;0.0;0.0;0.0
1229;0.0;0.0;0.0;0.42260798811912537;-0.2869440019130707;1.0940959453582764;0.0;0.0;0.0
1231;0.3223240077495575;-0.17714399099349976;0.9594079852104187;0.399183988571167;-0.29475200176239014;1.101904034614563;14.524999618530273;-5.71375036239624;-26.7137508392334
1233;0.0;0.0;0.0;0.39137598872184753;-0.3025600016117096;1.1058080196380615;0.0;0.0;0.0
1235;0.0;0.0;0.0;0.35624000430107117;-0.29475200176239014;1.126304030418396;0.0;0.0;0.0
1237;0.0;0.0;0.0;0.3601439893245697;-0.2596159875392914;1.0940959453582764;0.0;0.0;0.0
1239;0.2571759819984436;-0.14005599915981293;0.9769759774208069;0.3328160047531128;-0.2518079876899719;1.097999930381775;19.774999618530273;-4.59375;-28.393749237060547
1242;0.0;0.0;0.0;0.30158400535583496;-0.236191987991333;1.1302080154418945;0.0;0.0;0.0
1244;0.0;0.0;0.0;0.3054879903793335;-0.22838398814201355;1.122399926185608;0.0;0.0;0.0
1246;0.0;0.0;0.0;0.29767999053001404;-0.2205759882926941;1.101904034614563;0.0;0.0;0.0
1248;0.19275999069213867;-0.09564799815416336;0.9811239838600159;0.2898719906806946;-0.21276798844337463;1.097999930381775;21.524999618530273;-4.103750228881836;-29.583749771118164
1250;0.0;0.0;0.0;0.284991979598999;-0.23228800296783447;1.0901919603347778;0.0;0.0;0.0
1252;0.0;0.0;0.0;0.2576639950275421;-0.20105600357055664;1.0901919603347778;0.0;0.0;0.0
1254;0.0;0.0;0.0;0.22643199563026428;-0.19324800372123718;1.0775039196014404;0.0;0.0;0.0
1256;0.13981199264526367;-0.0680759996175766;0.958187997341156;0.24595199525356293;-0.1698240041732788;1.0901919603347778;22.084999084472656;-3.6137502193450928;-30.983749389648438
1259;0.0;0.0;0.0;0.21862399578094482;-0.19324800372123718;1.073599934577942;0.0;0.0;0.0
1261;0.0;0.0;0.0;0.17177599668502808;-0.16591998934745789;1.0940959453582764;0.0;0.0;0.0
1263;0.0;0.0;0.0;0.17958399653434753;-0.18544000387191772;1.101904034614563;0.0;0.0;0.0
1265;0.08198399841785431;-0.038307998329401016;0.9591639637947083;0.16396799683570862;-0.15811198949813843;1.0940959453582764;22.5049991607666;-2.423750162124634;-30.983749389648438
1267;0.0;0.0;0.0;0.1454239934682846;-0.13078400492668152;1.1184959411621094;0.0;0.0;0.0
1269;0.0;0.0;0.0;0.1298079937696457;-0.13078400492668152;1.10971200466156;0.0;0.0;0.0
1271;0.0;0.0;0.0;0.11028799414634705;-0.1268799901008606;1.134112000465393;0.0;0.0;0.0
1273;0.0019519999623298645;0.004879999905824661;0.985759973526001;0.10638399422168732;-0.115167997777462;1.1145919561386108;20.545000076293945;-2.4937500953674316;-29.02375030517578
1276;0.0;0.0;0.0;0.04879999905824661;-0.0878399983048439;1.1058080196380615;0.0;0.0;0.0
1278;0.0;0.0;0.0;0.02147199958562851;-0.09955199807882309;1.126304030418396;0.0;0.0;0.0
1280;0.0;0.0;0.0;-0.0019519999623298645;-0.07222399860620499;1.1184959411621094;0.0;0.0;0.0
1282;-0.08661999553442001;0.037331998348236084;1.0001559257507324;-0.01756799966096878;-0.05270399898290634;1.1389919519424438;15.154999732971191;-3.963750123977661;-26.7137508392334
1284;0.0;0.0;0.0;-0.02147199958562851;-0.08003199845552444;1.158511996269226;0.0;0.0;0.0
1286;0.0;0.0;0.0;-0.0331839993596077;-0.04879999905824661;1.1428959369659424;0.0;0.0;0.0
1288;0.0;0.0;0.0;-0.07612799853086472;-0.06831999868154526;1.146799921989441;0.0;0.0;0.0
1290;-0.16543199121952057;0.06368400156497955;1.0218719244003296;-0.07222399860620499;-0.06441599875688553;1.1790080070495605;7.244999885559082;-6.413750171661377;-24.193750381469727
1293;0.0;0.0;0.0;-0.09564799815416336;-0.05660799890756607;1.158511996269226;0.0;0.0;0.0
1295;0.0;0.0;0.0;-0.08003199845552444;-0.04879999905824661;1.1712000370025635;0.0;0.0;0.0
1297;0.0;0.0;0.0;-0.1268799901008606;-0.044895999133586884;1.1916959285736084;0.0;0.0;0.0
1299;-0.22472399473190308;0.07783599942922592;1.0411479473114014;-0.115167997777462;-0.0605119988322258;1.1916959285736084;-2.2750000953674316;-10.123749732971191;-20.9737491607666
1301;0.0;0.0;0.0;-0.15323199331760406;-0.0605119988322258;1.1838879585266113;0.0;0.0;0.0
1303;0.0;0.0;0.0;-0.16884799301624298;-0.05660799890756607;1.150704026222229;0.0;0.0;0.0
1305;0.0;0.0;0.0;-0.13468798995018005;-0.0605119988322258;1.158511996269226;0.0;0.0;0.0
1307;-0.2701079845428467;0.07124799489974976;1.0411479473114014;-0.17665599286556244;-0.05270399898290634;1.1672959327697754;-12.425000190734863;-13.763750076293945;-17.053749084472656
1310;0.0;0.0;0.0;-0.16884799301624298;-0.07222399860620499;1.1546080112457275;0.0;0.0;0.0
1312;0.0;0.0;0.0;-0.16884799301624298;-0.08003199845552444;1.175104022026062;0.0;0.0;0.0
1314;0.0;0.0;0.0;-0.18836799263954163;-0.115167997777462;1.1672959327697754;0.0;0.0;0.0
1316;-0.3003639876842499;0.04391999915242195;1.0416359901428223;-0.1844639927148819;-0.10345599800348282;1.150704026222229;-21.595001220703125;-15.373749732971191;-11.103750228881836
1318;0.0;0.0;0.0;-0.20398399233818054;-0.15030398964881897;1.175104022026062;0.0;0.0;0.0
1320;0.0;0.0;0.0;-0.2235039919614792;-0.1268799901008606;1.1790080070495605;0.0;0.0;0.0
1322;0.0;0.0;0.0;-0.21959999203681946;-0.15030398964881897;1.175104022026062;0.0;0.0;0.0
1324;-0.3379400074481964;-0.0012199999764561653;1.048956036567688;-0.23521599173545837;-0.1542080044746399;1.1916959285736084;-28.385000228881836;-15.6537504196167;-3.403749942779541
1327;0.0;0.0;0.0;-0.24692799150943756;-0.1542080044746399;1.207311987876892;0.0;0.0;0.0
1329;0.0;0.0;0.0;-0.24302399158477783;-0.18544000387191772;1.2160959243774414;0.0;0.0;0.0
1331;0.0;0.0;0.0;-0.27035200595855713;-0.17372798919677734;1.1790080070495605;0.0;0.0;0.0
1333;-0.37258797883987427;-0.04904399812221527;1.0674999952316284;-0.2781600058078766;-0.20105600357055664;1.207311987876892;-32.375;-16.283748626708984;3.9462499618530273
1335;0.0;0.0;0.0;-0.27035200595855713;-0.23228800296783447;1.182911992073059;0.0;0.0;0.0
1337;0.0;0.0;0.0;-0.2547360062599182;-0.2518079876899719;1.1712000370025635;0.0;0.0;0.0
1339;0.0;0.0;0.0;-0.25863999128341675;-0.236191987991333;1.1956000328063965;0.0;0.0;0.0
1341;-0.3723439872264862;-0.11711999773979187;1.0645719766616821;-0.2508319914340973;-0.3025600016117096;1.199504017829895;-32.79500198364258;-16.353748321533203;9.40625
1344;0.0;0.0;0.0;-0.2508319914340973;-0.30646398663520813;1.182911992073059;0.0;0.0;0.0
1346;0.0;0.0;0.0;-0.23521599173545837;-0.3416000008583069;1.2034080028533936;0.0;0.0;0.0
1348;0.0;0.0;0.0;-0.25863999128341675;-0.31036800146102905;1.199504017829895;0.0;0.0;0.0
1350;-0.37893199920654297;-0.18299999833106995;1.0648159980773926;-0.24302399158477783;-0.3455039858818054;1.2034080028533936;-29.92500114440918;-15.303750038146973;12.766250610351562
1352;0.0;0.0;0.0;-0.28303998708724976;-0.33769598603248596;1.1956000328063965;0.0;0.0;0.0
1354;0.0;0.0;0.0;-0.2596159875392914;-0.36111998558044434;1.1956000328063965;0.0;0.0;0.0
1356;0.0;0.0;0.0;-0.31036800146102905;-0.36111998558044434;1.2034080028533936;0.0;0.0;0.0
1358;-0.4169960021972656;-0.22496800124645233;1.0640839338302612;-0.33769598603248596;-0.3533119857311249;1.1956000328063965;-24.954999923706055;-12.923749923706055;13.536250114440918
1361;0.0;0.0;0.0;-0.3142719864845276;-0.38844799995422363;1.2160959243774414;0.0;0.0;0.0
1363;0.0;0.0;0.0;-0.4030880033969879;-0.34940800070762634;1.2278079986572266;0.0;0.0;0.0
1365;0.0;0.0;0.0;-0.4030880033969879;-0.3806400001049042;1.199504017829895;0.0;0.0;0.0
1367;-0.4840959906578064;-0.2449759989976883;1.079211950302124;-0.37966400384902954;-0.3845439851284027;1.2160959243774414;-19.145000457763672;-11.733750343322754;11.786250114440918
1369;0.0;0.0;0.0;-0.3903999924659729;-0.3962559998035431;1.231711983680725;0.0;0.0;0.0
1371;0.0;0.0;0.0;-0.39430397748947144;-0.3689279854297638;1.2404959201812744;0.0;0.0;0.0
1373;0.0;0.0;0.0;-0.44896000623703003;-0.37673598527908325;1.2278079986572266;0.0;0.0;0.0
1375;-0.537775993347168;-0.2454639971256256;1.1033679246902466;-0.4060159921646118;-0.3806400001049042;1.2404959201812744;-14.245000839233398;-12.643750190734863;8.916250228881836
1378;0.0;0.0;0.0;-0.4411519765853882;-0.36111998558044434;1.231711983680725;0.0;0.0;0.0
1380;0.0;0.0;0.0;-0.4333440065383911;-0.3455039858818054;1.2688000202178955;0.0;0.0;0.0
1382;0.0;0.0;0.0;-0.4294399917125702;-0.36111998558044434;1.2600159645080566;0.0;0.0;0.0
1384;-0.5489999651908875;-0.22716400027275085;1.1209360361099243;-0.4333440065383911;-0.3416000008583069;1.2522079944610596;-10.605000495910645;-13.623749732971191;6.746250152587891
1386;0.0;0.0;0.0;-0.44603198766708374;-0.3337920010089874;1.2805119752883911;0.0;0.0;0.0
1388;0.0;0.0;0.0;-0.42260798811912537;-0.32598400115966797;1.2648959159851074;0.0;0.0;0.0
1390;0.0;0.0;0.0;-0.4147999882698059;-0.31036800146102905;1.272704005241394;0.0;0.0;0.0
1392;-0.5350919961929321;-0.19349199533462524;1.136307954788208;-0.399183988571167;-0.29475200176239014;1.2444000244140625;-9.485000610351562;-14.813750267028809;5.976250171661377
1395;0.0;0.0;0.0;-0.4147999882698059;-0.3025600016117096;1.2805119752883911;0.0;0.0;0.0
1397;0.0;0.0;0.0;-0.42260798811912537;-0.3142719864845276;1.2688000202178955;0.0;0.0;0.0
1399;0.0;0.0;0.0;-0.387472003698349;-0.28303998708724976;1.297104001045227;0.0;0.0;0.0
1401;-0.526308000087738;-0.1710439920425415;1.1428959369659424;-0.39528000354766846;-0.3025600016117096;1.2600159645080566;-10.255000114440918;-16.423749923706055;6.256250381469727
1403;0.0;0.0;0.0;-0.4021120071411133;-0.29865598678588867;1.2404959201812744;0.0;0.0;0.0
1405;0.0;0.0;0.0;-0.39820799231529236;-0.2869440019130707;1.2648959159851074;0.0;0.0;0.0
1407;0.0;0.0;0.0;-0.40991997718811035;-0.30646398663520813;1.2278079986572266;0.0;0.0;0.0
1409;-0.5265519618988037;-0.17153199017047882;1.1311839818954468;-0.39430397748947144;-0.31036800146102905;1.2444000244140625;-11.725000381469727;-18.313749313354492;6.8862504959106445
1412;0.0;0.0;0.0;-0.39430397748947144;-0.29865598678588867;1.2688000202178955;0.0;0.0;0.0
1414;0.0;0.0;0.0;-0.40991997718811035;-0.3025600016117096;1.248304009437561;0.0;0.0;0.0
1416;0.0;0.0;0.0;-0.3786879777908325;-0.3142719864845276;1.248304009437561;0.0;0.0;0.0
1418;-0.5197200179100037;-0.18129199743270874;1.1143479347229004;-0.38259199261665344;-0.32598400115966797;1.2356159687042236;-12.77500057220459;-19.573749542236328;6.816250324249268
1420;0.0;0.0;0.0;-0.387472003698349;-0.32598400115966797;1.207311987876892;0.0;0.0;0.0
1422;0.0;0.0;0.0;-0.3484320044517517;-0.3337920010089874;1.231711983680725;0.0;0.0;0.0
1424;0.0;0.0;0.0;-0.3640480041503906;-0.3181760013103485;1.223904013633728;0.0;0.0;0.0
1426;-0.4970279932022095;-0.18836799263954163;1.0933640003204346;-0.3601439893245697;-0.3181760013103485;1.207311987876892;-13.61500072479248;-19.853748321533203;5.066250324249268
1429;0.0;0.0;0.0;-0.3445279896259308;-0.3298879861831665;1.207311987876892;0.0;0.0;0.0
1431;0.0;0.0;0.0;-0.3416000008583069;-0.3181760013103485;1.223904013633728;0.0;0.0;0.0
1433;0.0;0.0;0.0;-0.35233598947525024;-0.3298879861831665;1.207311987876892;0.0;0.0;0.0
1435;-0.46799197793006897;-0.18397599458694458;1.077015995979309;-0.31036800146102905;-0.3181760013103485;1.199504017829895;-13.6850004196167;-19.36374855041504;2.476249933242798
1437;0.0;0.0;0.0;-0.3211039900779724;-0.32598400115966797;1.223904013633728;0.0;0.0;0.0
1439;0.0;0.0;0.0;-0.3328160047531128;-0.32207998633384705;1.2160959243774414;0.0;0.0;0.0
1441;0.0;0.0;0.0;-0.3328160047531128;-0.32207998633384705;1.2160959243774414;0.0;0.0;0.0
1443;-0.4391999840736389;-0.17445999383926392;1.073599934577942;-0.30158400535583496;-0.32598400115966797;1.1877919435501099;-13.405000686645508;-19.013750076293945;0.65625
1446;0.0;0.0;0.0;-0.29767999053001404;-0.29475200176239014;1.2034080028533936;0.0;0.0;0.0
1448;0.0;0.0;0.0;-0.2937760055065155;-0.31036800146102905;1.2121919393539429;0.0;0.0;0.0
1450;0.0;0.0;0.0;-0.30158400535583496;-0.29865598678588867;1.1790080070495605;0.0;0.0;0.0
1452;-0.4265120029449463;-0.17372798919677734;1.059448003768921;-0.2820639908313751;-0.31036800146102905;1.1790080070495605;-12.495000839233398;-19.083749771118164;-1.09375
1454;0.0;0.0;0.0;-0.2937760055065155;-0.3142719864845276;1.1594879627227783;0.0;0.0;0.0
1456;0.0;0.0;0.0;-0.2820639908313751;-0.29475200176239014;1.1712000370025635;0.0;0.0;0.0
1458;0.0;0.0;0.0;-0.2664479911327362;-0.2869440019130707;1.146799921989441;0.0;0.0;0.0
1460;-0.39186400175094604;-0.16738399863243103;1.0348039865493774;-0.2391199916601181;-0.30646398663520813;1.1389919519424438;-10.885000228881836;-18.733749389648438;-2.84375
1463;0.0;0.0;0.0;-0.23131199181079865;-0.29865598678588867;1.158511996269226;0.0;0.0;0.0
1465;0.0;0.0;0.0;-0.2391199916601181;-0.30646398663520813;1.1302080154418945;0.0;0.0;0.0
1467;0.0;0.0;0.0;-0.2117919921875;-0.2908479869365692;1.1546080112457275;0.0;0.0;0.0
1469;-0.3396480083465576;-0.15615999698638916;1.0235799551010132;-0.2235039919614792;-0.28303998708724976;1.146799921989441;-8.855000495910645;-17.193748474121094;-3.8237500190734863
1471;0.0;0.0;0.0;-0.18055999279022217;-0.29475200176239014;1.146799921989441;0.0;0.0;0.0
1473;0.0;0.0;0.0;-0.19227199256420135;-0.29865598678588867;1.1302080154418945;0.0;0.0;0.0
1475;0.0;0.0;0.0;-0.18055999279022217;-0.28303998708724976;1.150704026222229;0.0;0.0;0.0
1477;-0.30621999502182007;-0.15103599429130554;1.016260027885437;-0.1424959897994995;-0.29865598678588867;1.126304030418396;-7.034999847412109;-15.09375;-3.893749952316284
1480;0.0;0.0;0.0;-0.18055999279022217;-0.2869440019130707;1.126304030418396;0.0;0.0;0.0
1482;0.0;0.0;0.0;-0.1571359932422638;-0.26742398738861084;1.1106879711151123;0.0;0.0;0.0
1484;0.0;0.0;0.0;-0.15030398964881897;-0.2869440019130707;1.1058080196380615;0.0;0.0;0.0
1486;-0.2832840085029602;-0.1483519971370697;0.98990797996521;-0.1424959897994995;-0.2752319872379303;1.122399926185608;-4.724999904632568;-13.063750267028809;-3.7537500858306885
1488;0.0;0.0;0.0;-0.13859200477600098;-0.2869440019130707;1.101904034614563;0.0;0.0;0.0
1490;0.0;0.0;0.0;-0.11224000155925751;-0.2596159875392914;1.10971200466156;0.0;0.0;0.0
1492;0.0;0.0;0.0;-0.10443200170993805;-0.2635200023651123;1.0940959453582764;0.0;0.0;0.0
1494;-0.24253599345684052;-0.13834799826145172;0.9752680063247681;-0.07320000231266022;-0.2635200023651123;1.101904034614563;-1.5750000476837158;-10.68375015258789;-2.913749933242798
1497;0.0;0.0;0.0;-0.06539200246334076;-0.24399998784065247;1.122399926185608;0.0;0.0;0.0
1499;0.0;0.0;0.0;-0.0849120020866394;-0.2869440019130707;1.1058080196380615;0.0;0.0;0.0
1501;0.0;0.0;0.0;-0.057583998888731;-0.27132800221443176;1.1184959411621094;0.0;0.0;0.0
1503;-0.18592800199985504;-0.12517200410366058;0.9730719923973083;-0.06148799881339073;-0.2518079876899719;1.101904034614563;0.875;-7.46375036239624;-0.2537500262260437
1505;0.0;0.0;0.0;-0.04196799919009209;-0.24009600281715393;1.1058080196380615;0.0;0.0;0.0
1507;0.0;0.0;0.0;-0.018543999642133713;-0.236191987991333;1.0901919603347778;0.0;0.0;0.0
1509;0.0;0.0;0.0;-0.014639999717473984;-0.24399998784065247;1.0940959453582764;0.0;0.0;0.0
1511;-0.14054399728775024;-0.10589599609375;0.9738039970397949;0.004879999905824661;-0.2205759882926941;1.1058080196380615;1.6449999809265137;-4.663750171661377;3.9462499618530273
1514;0.0;0.0;0.0;0.004879999905824661;-0.2518079876899719;1.122399926185608;0.0;0.0;0.0
1516;0.0;0.0;0.0;0.01659199967980385;-0.2518079876899719;1.0901919603347778;0.0;0.0;0.0
1518;0.0;0.0;0.0;0.04391999915242195;-0.2205759882926941;1.1184959411621094;0.0;0.0;0.0
1520;-0.09930799901485443;-0.09759999811649323;0.973315954208374;0.05172799900174141;-0.24399998784065247;1.126304030418396;1.0850000381469727;-2.4937500953674316;7.376250267028809
1522;0.0;0.0;0.0;0.040991999208927155;-0.2518079876899719;1.101904034614563;0.0;0.0;0.0
1524;0.0;0.0;0.0;0.05660799890756607;-0.23228800296783447;1.0940959453582764;0.0;0.0;0.0
1526;0.0;0.0;0.0;0.05660799890756607;-0.22448000311851501;1.1302080154418945;0.0;0.0;0.0
1528;-0.06197600066661835;-0.10833600163459778;0.9777079820632935;0.0878399983048439;-0.25571200251579285;1.1184959411621094;-0.17499999701976776;-0.7437499761581421;9.266250610351562
1531;0.0;0.0;0.0;0.10638399422168732;-0.2518079876899719;1.097999930381775;0.0;0.0;0.0
1533;0.0;0.0;0.0;0.08003199845552444;-0.23228800296783447;1.0901919603347778;0.0;0.0;0.0
1535;0.0;0.0;0.0;0.09564799815416336;-0.2479040026664734;1.122399926185608;0.0;0.0;0.0
1537;-0.03391600027680397;-0.115167997777462;0.9735599756240845;0.12590399384498596;-0.22838398814201355;1.0775039196014404;-1.2949999570846558;-0.04374999925494194;10.386250495910645
1539;0.0;0.0;0.0;0.11028799414634705;-0.22838398814201355;1.101904034614563;0.0;0.0;0.0
1541;0.0;0.0;0.0;0.1298079937696457;-0.25571200251579285;1.0862879753112793;0.0;0.0;0.0
1543;0.0;0.0;0.0;0.1571359932422638;-0.22838398814201355;1.101904034614563;0.0;0.0;0.0
1545;0.003415999934077263;-0.10906799882650375;0.9659959673881531;0.14151999354362488;-0.24399998784065247;1.0862879753112793;-2.484999895095825;0.23625001311302185;10.526249885559082
1548;0.0;0.0;0.0;0.14151999354362488;-0.2479040026664734;1.1067839860916138;0.0;0.0;0.0
1550;0.0;0.0;0.0;0.1571359932422638;-0.23228800296783447;1.126304030418396;0.0;0.0;0.0
1552;0.0;0.0;0.0;0.18836799263954163;-0.24009600281715393;1.097999930381775;0.0;0.0;0.0
1554;0.04025999829173088;-0.10394399613142014;0.9755119681358337;0.16884799301624298;-0.24009600281715393;1.101904034614563;-4.445000171661377;0.7962499856948853;11.226250648498535
1556;0.0;0.0;0.0;0.19617599248886108;-0.22838398814201355;1.122399926185608;0.0;0.0;0.0
1558;0.0;0.0;0.0;0.19617599248886108;-0.23228800296783447;1.1106879711151123;0.0;0.0;0.0
1560;0.0;0.0;0.0;0.19227199256420135;-0.25571200251579285;1.1184959411621094;0.0;0.0;0.0
1562;0.07783599942922592;-0.11101999878883362;0.9842959642410278;0.2235039919614792;-0.24399998784065247;1.1184959411621094;-6.545000076293945;1.006250023841858;13.74625015258789
1565;0.0;0.0;0.0;0.2235039919614792;-0.24399998784065247;1.097999930381775;0.0;0.0;0.0
1567;0.0;0.0;0.0;0.2391199916601181;-0.24399998784065247;1.1106879711151123;0.0;0.0;0.0
1569;0.0;0.0;0.0;0.2547360062599182;-0.2518079876899719;1.1184959411621094;0.0;0.0;0.0
1571;0.11394799500703812;-0.12346399575471878;0.9799039959907532;0.26254400610923767;-0.2479040026664734;1.1145919561386108;-7.804999828338623;0.5862500071525574;16.686250686645508
1573;0.0;0.0;0.0;0.2547360062599182;-0.2596159875392914;1.0940959453582764;0.0;0.0;0.0
1575;0.0;0.0;0.0;0.2781600058078766;-0.26742398738861084;1.0940959453582764;0.0;0.0;0.0
1577;0.0;0.0;0.0;0.2781600058078766;-0.2791360020637512;1.073599934577942;0.0;0.0;0.0
1580;0.15737999975681305;-0.14005599915981293;0.9640439748764038;0.3172000050544739;-0.28303998708724976;1.101904034614563;-8.085000038146973;0.4462500214576721;18.506250381469727
1582;0.0;0.0;0.0;0.3211039900779724;-0.2869440019130707;1.0862879753112793;0.0;0.0;0.0
1584;0.0;0.0;0.0;0.3484320044517517;-0.31036800146102905;1.0579839944839478;0.0;0.0;0.0
1586;0.0;0.0;0.0;0.35624000430107117;-0.29865598678588867;1.0491999387741089;0.0;0.0;0.0
1588;0.21740399301052094;-0.15981999039649963;0.9393999576568604;0.35233598947525024;-0.3181760013103485;1.0618879795074463;-7.664999961853027;1.9862500429153442;19.20625114440918
1590;0.0;0.0;0.0;0.387472003698349;-0.2869440019130707;1.0579839944839478;0.0;0.0;0.0
1592;0.0;0.0;0.0;0.4060159921646118;-0.3142719864845276;1.0531039237976074;0.0;0.0;0.0
1594;0.0;0.0;0.0;0.387472003698349;-0.29865598678588867;1.0531039237976074;0.0;0.0;0.0
1597;0.2776719927787781;-0.17592400312423706;0.9145119786262512;0.45286399126052856;-0.32207998633384705;1.0296800136566162;-6.474999904632568;5.486249923706055;19.136249542236328
1599;0.0;0.0;0.0;0.4294399917125702;-0.3298879861831665;1.0091840028762817;0.0;0.0;0.0
1601;0.0;0.0;0.0;0.4450559914112091;-0.3298879861831665;1.0208959579467773;0.0;0.0;0.0
1603;0.0;0.0;0.0;0.4450559914112091;-0.3025600016117096;0.9925919771194458;0.0;0.0;0.0
1605;0.32915598154067993;-0.1786080002784729;0.8857199549674988;0.48019200563430786;-0.3025600016117096;1.0169919729232788;-3.3949999809265137;9.336250305175781;17.946250915527344
1607;0.0;0.0;0.0;0.4411519765853882;-0.2752319872379303;1.0003999471664429;0.0;0.0;0.0
1609;0.0;0.0;0.0;0.4450559914112091;-0.30646398663520813;1.0130879878997803;0.0;0.0;0.0
1611;0.0;0.0;0.0;0.460671991109848;-0.2635200023651123;1.0169919729232788;0.0;0.0;0.0
1614;0.34867599606513977;-0.15933199226856232;0.88401198387146;0.46457600593566895;-0.3025600016117096;1.0169919729232788;0.38499999046325684;13.396249771118164;16.61625099182129
1616;0.0;0.0;0.0;0.4567679762840271;-0.2752319872379303;0.9847840070724487;0.0;0.0;0.0
1618;0.0;0.0;0.0;0.45286399126052856;-0.2635200023651123;1.0452959537506104;0.0;0.0;0.0
1620;0.0;0.0;0.0;0.46457600593566895;-0.27132800221443176;1.0247999429702759;0.0;0.0;0.0
1622;0.3340359926223755;-0.14005599915981293;0.9049959778785706;0.44896000623703003;-0.2752319872379303;1.0531039237976074;1.9950000047683716;16.47625160217285;14.516250610351562
1624;0.0;0.0;0.0;0.4138239920139313;-0.2518079876899719;1.0657919645309448;0.0;0.0;0.0
1626;0.0;0.0;0.0;0.4108960032463074;-0.2518079876899719;1.0579839944839478;0.0;0.0;0.0
1628;0.0;0.0;0.0;0.39528000354766846;-0.236191987991333;1.101904034614563;0.0;0.0;0.0
1631;0.30280399322509766;-0.12492799758911133;0.936959981918335;0.40991997718811035;-0.2596159875392914;1.0531039237976074;1.5049999952316284;16.056251525878906;11.226250648498535
1633;0.0;0.0;0.0;0.4304159879684448;-0.23228800296783447;1.0901919603347778;0.0;0.0;0.0
1635;0.0;0.0;0.0;0.4177280068397522;-0.24399998784065247;1.0775039196014404;0.0;0.0;0.0
1637;0.0;0.0;0.0;0.44896000623703003;-0.21276798844337463;1.0696959495544434;0.0;0.0;0.0
1639;0.31207600235939026;-0.1134599968791008;0.9398880004882812;0.460671991109848;-0.2596159875392914;1.0696959495544434;-0.2449999898672104;12.416250228881836;8.146249771118164
1641;0.0;0.0;0.0;0.460671991109848;-0.2518079876899719;1.0696959495544434;0.0;0.0;0.0
1643;0.0;0.0;0.0;0.49190399050712585;-0.22448000311851501;1.0491999387741089;0.0;0.0;0.0
1645;0.0;0.0;0.0;0.4997119903564453;-0.24399998784065247;1.0531039237976074;0.0;0.0;0.0
1648;0.36038798093795776;-0.09979599714279175;0.9223200082778931;0.48019200563430786;-0.22838398814201355;1.0335839986801147;-0.9449999332427979;9.896249771118164;6.606250286102295
1650;0.0;0.0;0.0;0.5153279900550842;-0.2088640034198761;1.0657919645309448;0.0;0.0;0.0
1652;0.0;0.0;0.0;0.5309439897537231;-0.21667200326919556;1.0247999429702759;0.0;0.0;0.0
1654;0.0;0.0;0.0;0.5348479747772217;-0.17763200402259827;1.0452959537506104;0.0;0.0;0.0
1656;0.4025999903678894;-0.0710039958357811;0.9147560000419617;0.5114240050315857;-0.1815359890460968;1.0287039279937744;-1.1549999713897705;9.616250038146973;6.606250286102295
1658;0.0;0.0;0.0;0.569983959197998;-0.19715198874473572;1.0618879795074463;0.0;0.0;0.0
1660;0.0;0.0;0.0;0.5426560044288635;-0.17763200402259827;1.0335839986801147;0.0;0.0;0.0
1662;0.0;0.0;0.0;0.569983959197998;-0.2088640034198761;1.0491999387741089;0.0;0.0;0.0
1665;0.427731990814209;-0.05929199978709221;0.9140239953994751;0.5934079885482788;-0.20495998859405518;1.0657919645309448;-2.065000057220459;10.24625015258789;6.816250324249268
1667;0.0;0.0;0.0;0.5738880038261414;-0.1815359890460968;1.0452959537506104;0.0;0.0;0.0
1669;0.0;0.0;0.0;0.5504639744758606;-0.19715198874473572;1.0491999387741089;0.0;0.0;0.0
1671;0.0;0.0;0.0;0.5738880038261414;-0.20105600357055664;1.0452959537506104;0.0;0.0;0.0
1673;0.44481199979782104;-0.062219999730587006;0.9130479693412781;0.569983959197998;-0.20105600357055664;1.0374879837036133;-3.0450000762939453;11.856249809265137;6.8862504959106445
1675;0.0;0.0;0.0;0.5963360071182251;-0.20105600357055664;1.0208959579467773;0.0;0.0;0.0
1677;0.0;0.0;0.0;0.5807200074195862;-0.18934398889541626;1.0413919687271118;0.0;0.0;0.0
1679;0.0;0.0;0.0;0.545583963394165;-0.2205759882926941;1.0579839944839478;0.0;0.0;0.0
1682;0.4484719932079315;-0.07027199864387512;0.9132919907569885;0.5768159627914429;-0.19324800372123718;1.0579839944839478;-3.6050000190734863;14.306249618530273;6.18625020980835
1684;0.0;0.0;0.0;0.5533919930458069;-0.2088640034198761;1.0247999429702759;0.0;0.0;0.0
1686;0.0;0.0;0.0;0.5572959780693054;-0.2088640034198761;1.0579839944839478;0.0;0.0;0.0
1688;0.0;0.0;0.0;0.5416799783706665;-0.22448000311851501;1.0531039237976074;0.0;0.0;0.0
1690;0.4335879981517792;-0.0756400004029274;0.921343982219696;0.537775993347168;-0.19324800372123718;1.0287039279937744;-3.325000047683716;15.56624984741211;4.43625020980835
1692;0.0;0.0;0.0;0.5192319750785828;-0.20495998859405518;1.0374879837036133;0.0;0.0;0.0
1694;0.0;0.0;0.0;0.5114240050315857;-0.21276798844337463;1.0570080280303955;0.0;0.0;0.0
1696;0.0;0.0;0.0;0.5348479747772217;-0.1698240041732788;1.0491999387741089;0.0;0.0;0.0
1699;0.4230960011482239;-0.0558759979903698;0.9315919876098633;0.5348479747772217;-0.17372798919677734;1.0657919645309448;-2.765000104904175;15.286250114440918;2.476249933242798
1701;0.0;0.0;0.0;0.5816959738731384;-0.17763200402259827;1.0775039196014404;0.0;0.0;0.0
1703;0.0;0.0;0.0;0.5660799741744995;-0.1815359890460968;1.0814080238342285;0.0;0.0;0.0
1705;0.0;0.0;0.0;0.562175989151001;-0.1698240041732788;1.097999930381775;0.0;0.0;0.0
1707;0.4374919831752777;-0.028303999453783035;0.9520879983901978;0.5738880038261414;-0.15030398964881897;1.1058080196380615;-3.184999942779541;14.306249618530273;0.8662499785423279
1709;0.0;0.0;0.0;0.545583963394165;-0.13468798995018005;1.1145919561386108;0.0;0.0;0.0
1711;0.0;0.0;0.0;0.5572959780693054;-0.13859200477600098;1.0814080238342285;0.0;0.0;0.0
1713;0.0;0.0;0.0;0.5651040077209473;-0.16591998934745789;1.101904034614563;0.0;0.0;0.0
1716;0.4440799951553345;-0.010491999797523022;0.974291980266571;0.5729119777679443;-0.1424959897994995;1.101904034614563;-5.355000019073486;12.136249542236328;0.7962499856948853
1718;0.0;0.0;0.0;0.5533919930458069;-0.14640000462532043;1.1145919561386108;0.0;0.0;0.0
1720;0.0;0.0;0.0;0.5807200074195862;-0.16591998934745789;1.1058080196380615;0.0;0.0;0.0
1722;0.0;0.0;0.0;0.5651040077209473;-0.17763200402259827;1.1145919561386108;0.0;0.0;0.0
1724;0.44529998302459717;-0.025863999500870705;0.974291980266571;0.561199963092804;-0.15811198949813843;1.0940959453582764;-7.59499979019165;9.126250267028809;0.7962499856948853
1726;0.0;0.0;0.0;0.561199963092804;-0.16591998934745789;1.0823839902877808;0.0;0.0;0.0
1728;0.0;0.0;0.0;0.5807200074195862;-0.17372798919677734;1.097999930381775;0.0;0.0;0.0
1731;0.0;0.0;0.0;0.5885279774665833;-0.20105600357055664;1.0940959453582764;0.0;0.0;0.0
1733;0.4618919789791107;-0.04636000096797943;0.9652639627456665;0.5768159627914429;-0.16591998934745789;1.085312008857727;-7.315000057220459;5.836249828338623;0.3762500286102295
1735;0.0;0.0;0.0;0.5963360071182251;-0.18934398889541626;1.0862879753112793;0.0;0.0;0.0
1737;0.0;0.0;0.0;0.6236639618873596;-0.1815359890460968;1.0901919603347778;0.0;0.0;0.0
1739;0.0;0.0;0.0;0.6041439771652222;-0.19324800372123718;1.0657919645309448;0.0;0.0;0.0
1741;0.4853159785270691;-0.054899998009204865;0.9452559947967529;0.6392799615859985;-0.17372798919677734;1.073599934577942;-5.425000190734863;4.086249828338623;-0.32375001907348633
1743;0.0;0.0;0.0;0.636352002620697;-0.19715198874473572;1.0374879837036133;0.0;0.0;0.0
1745;0.0;0.0;0.0;0.6441599726676941;-0.19715198874473572;1.0814080238342285;0.0;0.0;0.0
1748;0.0;0.0;0.0;0.6509919762611389;-0.19324800372123718;1.0413919687271118;0.0;0.0;0.0
1750;0.5155720114707947;-0.054899998009204865;0.9220759868621826;0.6519680023193359;-0.17763200402259827;1.0491999387741089;-3.115000009536743;5.066249847412109;-1.443750023841858
1752;0.0;0.0;0.0;0.636352002620697;-0.1815359890460968;1.0491999387741089;0.0;0.0;0.0
1754;0.0;0.0;0.0;0.6353759765625;-0.17372798919677734;1.0452959537506104;0.0;0.0;0.0
1756;0.0;0.0;0.0;0.6168320178985596;-0.1815359890460968;1.0247999429702759;0.0;0.0;0.0
1758;0.5206959843635559;-0.04660400003194809;0.9101200103759766;0.6285439729690552;-0.17763200402259827;1.0374879837036133;-0.3149999976158142;7.726249694824219;-2.6337499618530273
1760;0.0;0.0;0.0;0.611952006816864;-0.15030398964881897;1.0452959537506104;0.0;0.0;0.0
1762;0.0;0.0;0.0;0.6080479621887207;-0.16591998934745789;1.0335839986801147;0.0;0.0;0.0
1765;0.0;0.0;0.0;0.5807200074195862;-0.16591998934745789;1.0579839944839478;0.0;0.0;0.0
1767;0.49239200353622437;-0.03660000115633011;0.9179279804229736;0.611952006816864;-0.13859200477600098;1.0531039237976074;2.4149999618530273;10.24625015258789;-3.333750009536743
1769;0.0;0.0;0.0;0.5768159627914429;-0.1424959897994995;1.0531039237976074;0.0;0.0;0.0
1771;0.0;0.0;0.0;0.5690079927444458;-0.14640000462532043;1.0413919687271118;0.0;0.0;0.0
1773;0.0;0.0;0.0;0.5807200074195862;-0.1424959897994995;1.0696959495544434;0.0;0.0;0.0
1775;0.4614039957523346;-0.01903199963271618;0.9340319633483887;0.5807200074195862;-0.14640000462532043;1.0696959495544434;4.375;11.226249694824219;-2.353749990463257
1777;0.0;0.0;0.0;0.569983959197998;-0.14640000462532043;1.0696959495544434;0.0;0.0;0.0
1779;0.0;0.0;0.0;0.5582720041275024;-0.13859200477600098;1.0618879795074463;0.0;0.0;0.0
1782;0.0;0.0;0.0;0.5738880038261414;-0.13859200477600098;1.1058080196380615;0.0;0.0;0.0
1784;0.4438360035419464;-0.0026839999482035637;0.9555040001869202;0.5426560044288635;-0.115167997777462;1.0901919603347778;5.144999980926514;10.666250228881836;-0.11374999582767487
1786;0.0;0.0;0.0;0.5660799741744995;-0.13468798995018005;1.0775039196014404;0.0;0.0;0.0
1788;0.0;0.0;0.0;0.5660799741744995;-0.13078400492668152;1.101904034614563;0.0;0.0;0.0
1790;0.0;0.0;0.0;0.5543680191040039;-0.1424959897994995;1.1145919561386108;0.0;0.0;0.0
1792;0.4335879981517792;-0.0014639999717473984;0.973315954208374;0.5465599894523621;-0.1542080044746399;1.097999930381775;4.375;8.916250228881836;2.546250104904175
1794;0.0;0.0;0.0;0.5572959780693054;-0.13468798995018005;1.1106879711151123;0.0;0.0;0.0
1796;0.0;0.0;0.0;0.537775993347168;-0.17372798919677734;1.126304030418396;0.0;0.0;0.0
1799;0.0;0.0;0.0;0.5807200074195862;-0.16201600432395935;1.0862879753112793;0.0;0.0;0.0
1801;0.4257799983024597;-0.026108000427484512;0.9835639595985413;0.5494880080223083;-0.17372798919677734;1.122399926185608;2.9750001430511475;6.886250019073486;4.716250419616699
1803;0.0;0.0;0.0;0.5338720083236694;-0.18544000387191772;1.126304030418396;0.0;0.0;0.0
1805;0.0;0.0;0.0;0.5338720083236694;-0.17372798919677734;1.1145919561386108;0.0;0.0;0.0
1807;0.0;0.0;0.0;0.537775993347168;-0.20495998859405518;1.122399926185608;0.0;0.0;0.0
1809;0.4106519818305969;-0.06368400156497955;0.9943000078201294;0.5143519639968872;-0.22838398814201355;1.1058080196380615;2.2049999237060547;4.926249980926514;5.906250476837158
1811;0.0;0.0;0.0;0.5299679636955261;-0.24009600281715393;1.1145919561386108;0.0;0.0;0.0
1813;0.0;0.0;0.0;0.5026400089263916;-0.2635200023651123;1.126304030418396;0.0;0.0;0.0
1816;0.0;0.0;0.0;0.5338720083236694;-0.2869440019130707;1.1184959411621094;0.0;0.0;0.0
1818;0.4025999903678894;-0.10565199702978134;1.0047919750213623;0.45579198002815247;-0.16201600432395935;1.199504017829895;2.765000104904175;2.966249942779541;6.816250324249268
1820;0.0;0.0;0.0;0.5182560086250305;-0.25571200251579285;1.1672959327697754;0.0;0.0;0.0
1822;0.0;0.0;0.0;0.5143519639968872;-0.2596159875392914;1.1428959369659424;0.0;0.0;0.0
1824;0.0;0.0;0.0;0.537775993347168;-0.27132800221443176;1.134112000465393;0.0;0.0;0.0
1826;0.40577200055122375;-0.11614400148391724;1.0287039279937744;0.537775993347168;-0.23228800296783447;1.1672959327697754;2.2049999237060547;0.3762499988079071;6.676250457763672
1828;0.0;0.0;0.0;0.5143519639968872;-0.22838398814201355;1.1712000370025635;0.0;0.0;0.0
1830;0.0;0.0;0.0;0.5768159627914429;-0.2869440019130707;1.158511996269226;0.0;0.0;0.0
1833;0.0;0.0;0.0;0.522159993648529;-0.2635200023651123;1.146799921989441;0.0;0.0;0.0
1835;0.42041200399398804;-0.11980399489402771;1.0245559215545654;0.5572959780693054;-0.27132800221443176;1.122399926185608;1.4350000619888306;-2.6337502002716064;7.866250038146973
1837;0.0;0.0;0.0;0.5299679636955261;-0.30646398663520813;1.1106879711151123;0.0;0.0;0.0
1839;0.0;0.0;0.0;0.522159993648529;-0.29475200176239014;1.134112000465393;0.0;0.0;0.0
1841;0.0;0.0;0.0;0.522159993648529;-0.2752319872379303;1.122399926185608;0.0;0.0;0.0
1843;0.41919198632240295;-0.15176799893379211;0.9950319528579712;0.5260639786720276;-0.29865598678588867;1.1058080196380615;3.255000114440918;-5.083750247955322;7.166250228881836
1845;0.0;0.0;0.0;0.5426560044288635;-0.3025600016117096;1.1672959327697754;0.0;0.0;0.0
1847;0.0;0.0;0.0;0.5504639744758606;-0.2908479869365692;1.158511996269226;0.0;0.0;0.0
1850;0.0;0.0;0.0;0.5582720041275024;-0.2908479869365692;1.150704026222229;0.0;0.0;0.0
1852;0.42553597688674927;-0.15323199331760406;1.0140639543533325;0.5270400047302246;-0.28303998708724976;1.158511996269226;4.934999942779541;-6.553750038146973;5.906250476837158
1854;0.0;0.0;0.0;0.5465599894523621;-0.3025600016117096;1.146799921989441;0.0;0.0;0.0
1856;0.0;0.0;0.0;0.5231360197067261;-0.3025600016117096;1.146799921989441;0.0;0.0;0.0
1858;0.0;0.0;0.0;0.5387519598007202;-0.2869440019130707;1.126304030418396;0.0;0.0;0.0
1860;0.41967999935150146;-0.16860400140285492;1.014307975769043;0.5270400047302246;-0.2908479869365692;1.1067839860916138;3.184999942779541;-7.953750133514404;5.066250324249268
1863;0.0;0.0;0.0;0.5416799783706665;-0.30646398663520813;1.1106879711151123;0.0;0.0;0.0
1864;0.0;0.0;0.0;0.5416799783706665;-0.3533119857311249;1.126304030418396;0.0;0.0;0.0
1867;0.0;0.0;0.0;0.5299679636955261;-0.3416000008583069;1.0862879753112793;0.0;0.0;0.0
1869;0.411871999502182;-0.19471199810504913;0.9803919792175293;0.537775993347168;-0.3337920010089874;1.1058080196380615;2.134999990463257;-8.443750381469727;1.2862499952316284
1871;0.0;0.0;0.0;0.5260639786720276;-0.3298879861831665;1.0814080238342285;0.0;0.0;0.0
1873;0.0;0.0;0.0;0.5338720083236694;-0.36111998558044434;1.0823839902877808;0.0;0.0;0.0
1875;0.0;0.0;0.0;0.5338720083236694;-0.34940800070762634;1.0901919603347778;0.0;0.0;0.0
1877;0.41455599665641785;-0.20617999136447906;0.9650200009346008;0.5572959780693054;-0.32207998633384705;1.0775039196014404;2.625;-7.743750095367432;-3.403749942779541
1879;0.0;0.0;0.0;0.4909279942512512;-0.3337920010089874;1.0862879753112793;0.0;0.0;0.0
1881;0.0;0.0;0.0;0.5182560086250305;-0.3337920010089874;1.0814080238342285;0.0;0.0;0.0
1884;0.0;0.0;0.0;0.5143519639968872;-0.3337920010089874;1.0862879753112793;0.0;0.0;0.0
1886;0.39942798018455505;-0.20349599421024323;0.9518439769744873;0.5026400089263916;-0.3181760013103485;1.0531039237976074;3.115000009536743;-5.993750095367432;-8.023749351501465
1888;0.0;0.0;0.0;0.48311999440193176;-0.3416000008583069;1.0696959495544434;0.0;0.0;0.0
1890;0.0;0.0;0.0;0.4714079797267914;-0.30646398663520813;1.0862879753112793;0.0;0.0;0.0
1892;0.0;0.0;0.0;0.4596959948539734;-0.3298879861831665;1.0696959495544434;0.0;0.0;0.0
1894;0.36111998558044434;-0.1786080002784729;0.9430599808692932;0.4596959948539734;-0.2908479869365692;1.073599934577942;3.4650001525878906;-3.8937501907348633;-13.973750114440918
1896;0.0;0.0;0.0;0.436271995306015;-0.2869440019130707;1.0901919603347778;0.0;0.0;0.0
1898;0.0;0.0;0.0;0.40991997718811035;-0.2635200023651123;1.0618879795074463;0.0;0.0;0.0
1901;0.0;0.0;0.0;0.37088000774383545;-0.2635200023651123;1.101904034614563;0.0;0.0;0.0
1903;0.28377199172973633;-0.14810799062252045;0.9557479619979858;0.3474559783935547;-0.2479040026664734;1.101904034614563;3.115000009536743;-2.773750066757202;-19.573749542236328
1905;0.0;0.0;0.0;0.34355199337005615;-0.2752319872379303;1.0940959453582764;0.0;0.0;0.0
1907;0.0;0.0;0.0;0.31622397899627686;-0.22838398814201355;1.1058080196380615;0.0;0.0;0.0
1909;0.0;0.0;0.0;0.32793599367141724;-0.22448000311851501;1.0940959453582764;0.0;0.0;0.0
1911;0.21398799121379852;-0.11004399508237839;0.9750239849090576;0.30060797929763794;-0.2205759882926941;1.126304030418396;2.065000057220459;-3.6137502193450928;-22.373750686645508
1913;0.0;0.0;0.0;0.3093920052051544;-0.21276798844337463;1.1058080196380615;0.0;0.0;0.0
1916;0.0;0.0;0.0;0.2820639908313751;-0.2088640034198761;1.0862879753112793;0.0;0.0;0.0
1918;0.0;0.0;0.0;0.3054879903793335;-0.19324800372123718;1.0901919603347778;0.0;0.0;0.0
1920;0.17763200402259827;-0.08271599560976028;0.9740479588508606;0.28596800565719604;-0.21667200326919556;1.101904034614563;0.45499998331069946;-5.293750286102295;-22.93375015258789
1922;0.0;0.0;0.0;0.29767999053001404;-0.20105600357055664;1.0940959453582764;0.0;0.0;0.0
1924;0.0;0.0;0.0;0.2547360062599182;-0.21276798844337463;1.0862879753112793;0.0;0.0;0.0
1926;0.0;0.0;0.0;0.2664479911327362;-0.2205759882926941;1.073599934577942;0.0;0.0;0.0
1928;0.1605519950389862;-0.06661199778318405;0.9557479619979858;0.2937760055065155;-0.1815359890460968;1.0696959495544434;-0.8050000071525574;-5.71375036239624;-22.02375030517578
1930;0.0;0.0;0.0;0.26254400610923767;-0.19715198874473572;1.0657919645309448;0.0;0.0;0.0
1932;0.0;0.0;0.0;0.25863999128341675;-0.18544000387191772;1.0823839902877808;0.0;0.0;0.0
1935;0.0;0.0;0.0;0.2547360062599182;-0.18934398889541626;1.0618879795074463;0.0;0.0;0.0
1937;0.1285879909992218;-0.06588000059127808;0.9452559947967529;0.2117919921875;-0.19324800372123718;1.0862879753112793;-0.5949999690055847;-4.243750095367432;-19.2237491607666
1939;0.0;0.0;0.0;0.19617599248886108;-0.19324800372123718;1.0657919645309448;0.0;0.0;0.0
1941;0.0;0.0;0.0;0.19227199256420135;-0.21276798844337463;1.0696959495544434;0.0;0.0;0.0
1943;0.0;0.0;0.0;0.17665599286556244;-0.2205759882926941;1.073599934577942;0.0;0.0;0.0
1945;0.06709999591112137;-0.0802759975194931;0.9520879983901978;0.13371199369430542;-0.24009600281715393;1.0775039196014404;1.4350000619888306;-2.0737500190734863;-14.463749885559082
1948;0.0;0.0;0.0;0.13371199369430542;-0.21667200326919556;1.0814080238342285;0.0;0.0;0.0
1950;0.0;0.0;0.0;0.10735999792814255;-0.2088640034198761;1.101904034614563;0.0;0.0;0.0
1952;0.0;0.0;0.0;0.08393599838018417;-0.21667200326919556;1.122399926185608;0.0;0.0;0.0
1954;0.0009759999811649323;-0.08735200017690659;0.9694119691848755;0.11028799414634705;-0.22838398814201355;1.1145919561386108;4.025000095367432;-0.6037499904632568;-8.303750038146973
1956;0.0;0.0;0.0;0.08003199845552444;-0.2479040026664734;1.1184959411621094;0.0;0.0;0.0
1958;0.0;0.0;0.0;0.0605119988322258;-0.2205759882926941;1.1184959411621094;0.0;0.0;0.0
1960;0.0;0.0;0.0;0.02537599951028824;-0.20495998859405518;1.122399926185608;0.0;0.0;0.0
1962;-0.062463998794555664;-0.0849120020866394;0.9906399846076965;0.05270399898290634;-0.21276798844337463;1.1389919519424438;5.914999961853027;0.5862500071525574;-2.6337499618530273
1965;0.0;0.0;0.0;0.01659199967980385;-0.23228800296783447;1.134112000465393;0.0;0.0;0.0
1967;0.0;0.0;0.0;-0.0029279999434947968;-0.23228800296783447;1.1546080112457275;0.0;0.0;0.0
1969;0.0;0.0;0.0;-0.022447999566793442;-0.21667200326919556;1.126304030418396;0.0;0.0;0.0
1971;-0.11858399957418442;-0.0832040011882782;1.0172359943389893;-0.03806399926543236;-0.236191987991333;1.1633919477462769;7.175000190734863;1.2862499952316284;2.6162500381469727
1973;0.0;0.0;0.0;-0.022447999566793442;-0.21276798844337463;1.1633919477462769;0.0;0.0;0.0
1975;0.0;0.0;0.0;-0.053679998964071274;-0.24009600281715393;1.1790080070495605;0.0;0.0;0.0
1977;0.0;0.0;0.0;-0.0849120020866394;-0.22448000311851501;1.199504017829895;0.0;0.0;0.0
1979;-0.1803160011768341;-0.08906000107526779;1.0440759658813477;-0.10052800178527832;-0.24009600281715393;1.1956000328063965;8.154999732971191;0.9362500309944153;7.516250133514404
1982;0.0;0.0;0.0;-0.11224000155925751;-0.2205759882926941;1.1790080070495605;0.0;0.0;0.0
1984;0.0;0.0;0.0;-0.11224000155925751;-0.21667200326919556;1.1956000328063965;0.0;0.0;0.0
1986;0.0;0.0;0.0;-0.16591998934745789;-0.22448000311851501;1.1877919435501099;0.0;0.0;0.0
1988;-0.24570798873901367;-0.10321199893951416;1.0682319402694702;-0.16591998934745789;-0.2479040026664734;1.2112159729003906;7.945000171661377;-0.8837500214576721;11.576250076293945
1990;0.0;0.0;0.0;-0.20105600357055664;-0.2479040026664734;1.1877919435501099;0.0;0.0;0.0
1992;0.0;0.0;0.0;-0.18544000387191772;-0.24399998784065247;1.2160959243774414;0.0;0.0;0.0
1994;0.0;0.0;0.0;-0.19715198874473572;-0.2596159875392914;1.2278079986572266;0.0;0.0;0.0
1996;-0.3113439977169037;-0.11907199770212173;1.0845799446105957;-0.20495998859405518;-0.2635200023651123;1.2444000244140625;5.425000190734863;-3.6837501525878906;14.236249923706055
1999;0.0;0.0;0.0;-0.2205759882926941;-0.2518079876899719;1.2200000286102295;0.0;0.0;0.0
2001;0.0;0.0;0.0;-0.2791360020637512;-0.24009600281715393;1.231711983680725;0.0;0.0;0.0
2003;0.0;0.0;0.0;-0.26742398738861084;-0.2635200023651123;1.231711983680725;0.0;0.0;0.0
2005;-0.3852759897708893;-0.1227319985628128;1.104099988937378;-0.28303998708724976;-0.2635200023651123;1.2404959201812744;0.5250000357627869;-7.603750228881836;16.196250915527344
2007;0.0;0.0;0.0;-0.34062400460243225;-0.2596159875392914;1.2404959201812744;0.0;0.0;0.0
2009;0.0;0.0;0.0;-0.3181760013103485;-0.2791360020637512;1.248304009437561;0.0;0.0;0.0
2011;0.0;0.0;0.0;-0.3445279896259308;-0.2791360020637512;1.231711983680725;0.0;0.0;0.0
2013;-0.44773998856544495;-0.13566400110721588;1.1094679832458496;-0.3328160047531128;-0.29865598678588867;1.248304009437561;-7.105000019073486;-12.783750534057617;17.31624984741211
2016;0.0;0.0;0.0;-0.31329599022865295;-0.27132800221443176;1.2278079986572266;0.0;0.0;0.0
2018;0.0;0.0;0.0;-0.32891198992729187;-0.29865598678588867;1.2160959243774414;0.0;0.0;0.0
2020;0.0;0.0;0.0;-0.33183997869491577;-0.30646398663520813;1.231711983680725;0.0;0.0;0.0
2022;-0.4614039957523346;-0.1756799966096878;1.1070280075073242;-0.3513599932193756;-0.31036800146102905;1.248304009437561;-16.204999923706055;-16.423749923706055;17.596250534057617
2024;0.0;0.0;0.0;-0.32891198992729187;-0.3455039858818054;1.223904013633728;0.0;0.0;0.0
2026;0.0;0.0;0.0;-0.32500800490379333;-0.34940800070762634;1.2404959201812744;0.0;0.0;0.0
2028;0.0;0.0;0.0;-0.3474559783935547;-0.36111998558044434;1.2278079986572266;0.0;0.0;0.0
2030;-0.4655520021915436;-0.230335995554924;1.0960479974746704;-0.3484320044517517;-0.3728320002555847;1.2356159687042236;-24.53499984741211;-18.733749389648438;18.506250381469727
2033;0.0;0.0;0.0;-0.3640480041503906;-0.411871999502182;1.2112159729003906;0.0;0.0;0.0
2035;0.0;0.0;0.0;-0.3601439893245697;-0.43139198422431946;1.2356159687042236;0.0;0.0;0.0
2037;0.0;0.0;0.0;-0.3416000008583069;-0.4509119987487793;1.223904013633728;0.0;0.0;0.0
2039;-0.47799599170684814;-0.29280000925064087;1.09116792678833;-0.3484320044517517;-0.48214399814605713;1.231711983680725;-29.575000762939453;-20.693748474121094;20.046249389648438
2041;0.0;0.0;0.0;-0.36795198917388916;-0.4899519979953766;1.223904013633728;0.0;0.0;0.0
2043;0.0;0.0;0.0;-0.34062400460243225;-0.4782399833202362;1.207311987876892;0.0;0.0;0.0
2045;0.0;0.0;0.0;-0.36795198917388916;-0.5016639828681946;1.2034080028533936;0.0;0.0;0.0
2047;-0.48263198137283325;-0.3572160005569458;1.0906800031661987;-0.35624000430107117;-0.5250880122184753;1.199504017829895;-32.095001220703125;-22.16374969482422;21.236249923706055
2050;0.0;0.0;0.0;-0.3601439893245697;-0.5485119819641113;1.1916959285736084;0.0;0.0;0.0
2052;0.0;0.0;0.0;-0.3484320044517517;-0.5641279816627502;1.1868159770965576;0.0;0.0;0.0
2054;0.0;0.0;0.0;-0.3601439893245697;-0.6031680107116699;1.199504017829895;0.0;0.0;0.0
2056;-0.47799599170684814;-0.423583984375;1.0587159395217896;-0.36795198917388916;-0.5641279816627502;1.1712000370025635;-31.60500144958496;-20.693748474121094;21.65625
2058;0.0;0.0;0.0;-0.3337920010089874;-0.5719360113143921;1.1916959285736084;0.0;0.0;0.0
2060;0.0;0.0;0.0;-0.3601439893245697;-0.5992639660835266;1.1916959285736084;0.0;0.0;0.0
2062;0.0;0.0;0.0;-0.36795198917388916;-0.5914559960365295;1.1877919435501099;0.0;0.0;0.0
2064;-0.47555598616600037;-0.4601839780807495;1.0560319423675537;-0.36795198917388916;-0.6031680107116699;1.1712000370025635;-28.17500114440918;-17.333749771118164;19.626251220703125
2067;0.0;0.0;0.0;-0.36795198917388916;-0.6265919804573059;1.1712000370025635;0.0;0.0;0.0
2069;0.0;0.0;0.0;-0.39528000354766846;-0.610975980758667;1.207311987876892;0.0;0.0;0.0
2071;0.0;0.0;0.0;-0.3640480041503906;-0.610975980758667;1.1877919435501099;0.0;0.0;0.0
2073;-0.49190399050712585;-0.47750797867774963;1.0592039823532104;-0.36795198917388916;-0.610975980758667;1.1956000328063965;-23.274999618530273;-13.9037504196167;14.446249961853027
2075;0.0;0.0;0.0;-0.387472003698349;-0.6187840104103088;1.1790080070495605;0.0;0.0;0.0
2077;0.0;0.0;0.0;-0.39528000354766846;-0.6304959654808044;1.1956000328063965;0.0;0.0;0.0
2079;0.0;0.0;0.0;-0.39528000354766846;-0.6422079801559448;1.175104022026062;0.0;0.0;0.0
2081;-0.5084959864616394;-0.4875119924545288;1.0638400316238403;-0.4030880033969879;-0.6031680107116699;1.2121919393539429;-17.114999771118164;-12.783750534057617;6.676250457763672
2084;0.0;0.0;0.0;-0.4108960032463074;-0.6148799657821655;1.199504017829895;0.0;0.0;0.0
2086;0.0;0.0;0.0;-0.3835679888725281;-0.6344000101089478;1.1712000370025635;0.0;0.0;0.0
2088;0.0;0.0;0.0;-0.39528000354766846;-0.610975980758667;1.1916959285736084;0.0;0.0;0.0
2090;-0.5245999693870544;-0.4782399833202362;1.060912013053894;-0.41870400309562683;-0.5758399963378906;1.2034080028533936;-11.02500057220459;-12.99375057220459;-2.5637500286102295
2092;0.0;0.0;0.0;-0.4108960032463074;-0.5992639660835266;1.1790080070495605;0.0;0.0;0.0
2094;0.0;0.0;0.0;-0.4265120029449463;-0.5953599810600281;1.175104022026062;0.0;0.0;0.0
2096;0.0;0.0;0.0;-0.4108960032463074;-0.5836479663848877;1.182911992073059;0.0;0.0;0.0
2098;-0.5302119851112366;-0.4509119987487793;1.044319987297058;-0.39137598872184753;-0.5758399963378906;1.1672959327697754;-5.775000095367432;-13.9037504196167;-11.873749732971191
2101;0.0;0.0;0.0;-0.3835679888725281;-0.5524159669876099;1.1350879669189453;0.0;0.0;0.0
2103;0.0;0.0;0.0;-0.3718560039997101;-0.5485119819641113;1.1389919519424438;0.0;0.0;0.0
2105;0.0;0.0;0.0;-0.36795198917388916;-0.5289919972419739;1.1184959411621094;0.0;0.0;0.0
2107;-0.4916599988937378;-0.40918800234794617;1.0084519386291504;-0.3328160047531128;-0.5055679678916931;1.1145919561386108;-0.8050000071525574;-15.023750305175781;-20.063749313354492
2109;0.0;0.0;0.0;-0.32207998633384705;-0.48214399814605713;1.1184959411621094;0.0;0.0;0.0
2111;0.0;0.0;0.0;-0.3298879861831665;-0.48214399814605713;1.126304030418396;0.0;0.0;0.0
2113;0.0;0.0;0.0;-0.3181760013103485;-0.43139198422431946;1.1145919561386108;0.0;0.0;0.0
2115;-0.4440799951553345;-0.33476799726486206;0.9886879920959473;-0.2908479869365692;-0.41967999935150146;1.1184959411621094;3.184999942779541;-14.463749885559082;-24.4737491607666
2118;0.0;0.0;0.0;-0.3142719864845276;-0.411871999502182;1.1428959369659424;0.0;0.0;0.0
2120;0.0;0.0;0.0;-0.2908479869365692;-0.3962559998035431;1.1389919519424438;0.0;0.0;0.0
2122;0.0;0.0;0.0;-0.27132800221443176;-0.40406399965286255;1.122399926185608;0.0;0.0;0.0
2124;-0.4184599816799164;-0.2622999846935272;0.9847840070724487;-0.29475200176239014;-0.36502400040626526;1.0940959453582764;4.514999866485596;-13.203750610351562;-27.13374900817871
2126;0.0;0.0;0.0;-0.2518079876899719;-0.3806400001049042;1.097999930381775;0.0;0.0;0.0
2128;0.0;0.0;0.0;-0.2596159875392914;-0.3572160005569458;1.1145919561386108;0.0;0.0;0.0
2130;0.0;0.0;0.0;-0.2635200023651123;-0.3728320002555847;1.0814080238342285;0.0;0.0;0.0
2132;-0.3916199803352356;-0.2315559983253479;0.9762439727783203;-0.26742398738861084;-0.3416000008583069;1.0696959495544434;3.884999990463257;-11.24375057220459;-27.693750381469727
2135;0.0;0.0;0.0;-0.21276798844337463;-0.3572160005569458;1.101904034614563;0.0;0.0;0.0
2137;0.0;0.0;0.0;-0.21276798844337463;-0.37673598527908325;1.0696959495544434;0.0;0.0;0.0
2139;0.0;0.0;0.0;-0.2205759882926941;-0.3572160005569458;1.0618879795074463;0.0;0.0;0.0
2141;-0.35575199127197266;-0.22423599660396576;0.9450119733810425;-0.18934398889541626;-0.3533119857311249;1.0570080280303955;4.025000095367432;-8.513750076293945;-26.853750228881836
2143;0.0;0.0;0.0;-0.20105600357055664;-0.3142719864845276;1.0452959537506104;0.0;0.0;0.0
2145;0.0;0.0;0.0;-0.2205759882926941;-0.32598400115966797;1.0287039279937744;0.0;0.0;0.0
2147;0.0;0.0;0.0;-0.16591998934745789;-0.32598400115966797;1.0531039237976074;0.0;0.0;0.0
2149;-0.3169559836387634;-0.20325200259685516;0.9250040054321289;-0.19715198874473572;-0.3142719864845276;1.0491999387741089;6.335000038146973;-4.803750038146973;-25.66374969482422
2152;0.0;0.0;0.0;-0.16591998934745789;-0.31036800146102905;1.0696959495544434;0.0;0.0;0.0
2154;0.0;0.0;0.0;-0.14640000462532043;-0.3142719864845276;1.0413919687271118;0.0;0.0;0.0
2156;0.0;0.0;0.0;-0.14737600088119507;-0.29475200176239014;1.0491999387741089;0.0;0.0;0.0
2158;-0.2827959954738617;-0.1705559939146042;0.9271999597549438;-0.1542080044746399;-0.29475200176239014;1.0657919645309448;8.994999885559082;-1.2337499856948853;-23.493749618530273
2160;0.0;0.0;0.0;-0.13566400110721588;-0.2596159875392914;1.0696959495544434;0.0;0.0;0.0
2162;0.0;0.0;0.0;-0.11224000155925751;-0.25571200251579285;1.0491999387741089;0.0;0.0;0.0
2164;0.0;0.0;0.0;-0.11224000155925751;-0.2479040026664734;1.0491999387741089;0.0;0.0;0.0
2166;-0.24253599345684052;-0.13688400387763977;0.9284200072288513;-0.09272000193595886;-0.2752319872379303;1.0696959495544434;10.464999198913574;1.006250023841858;-20.693750381469727
2169;0.0;0.0;0.0;-0.10052800178527832;-0.24399998784065247;1.0579839944839478;0.0;0.0;0.0
2171;0.0;0.0;0.0;-0.053679998964071274;-0.24009600281715393;1.0657919645309448;0.0;0.0;0.0
2173;0.0;0.0;0.0;-0.018543999642133713;-0.2596159875392914;1.0374879837036133;0.0;0.0;0.0
2175;-0.17787599563598633;-0.11589999496936798;0.9201239943504333;-0.010735999792814255;-0.2596159875392914;1.0531039237976074;11.094999313354492;2.476249933242798;-17.613750457763672
2177;0.0;0.0;0.0;0.0009759999811649323;-0.23228800296783447;1.0531039237976074;0.0;0.0;0.0
2179;0.0;0.0;0.0;0.04782399907708168;-0.2596159875392914;1.0287039279937744;0.0;0.0;0.0
2181;0.0;0.0;0.0;0.0009759999811649323;-0.24399998784065247;1.0335839986801147;0.0;0.0;0.0
2183;-0.11248400062322617;-0.1117519959807396;0.9120720028877258;0.05953599885106087;-0.236191987991333;1.0452959537506104;11.794999122619629;4.996249675750732;-14.323749542236328
2186;0.0;0.0;0.0;0.04782399907708168;-0.2596159875392914;1.0287039279937744;0.0;0.0;0.0
2188;0.0;0.0;0.0;0.07905599474906921;-0.27132800221443176;1.0208959579467773;0.0;0.0;0.0
2190;0.0;0.0;0.0;0.08295999467372894;-0.22448000311851501;1.0374879837036133;0.0;0.0;0.0
2192;-0.04684799909591675;-0.10589599609375;0.8952359557151794;0.10150399804115295;-0.24399998784065247;1.0130879878997803;13.194999694824219;8.006250381469727;-11.383749961853027
2194;0.0;0.0;0.0;0.11321599781513214;-0.2518079876899719;1.0247999429702759;0.0;0.0;0.0
2196;0.0;0.0;0.0;0.1210239976644516;-0.23228800296783447;1.0287039279937744;0.0;0.0;0.0
2198;0.0;0.0;0.0;0.14054399728775024;-0.22448000311851501;1.0374879837036133;0.0;0.0;0.0
2200;0.008051999844610691;-0.09101200103759766;0.891819953918457;0.1756799966096878;-0.2088640034198761;1.0208959579467773;14.664999961853027;12.3462495803833;-8.863749504089355
2203;0.0;0.0;0.0;0.1600639969110489;-0.2088640034198761;1.0374879837036133;0.0;0.0;0.0
2205;0.0;0.0;0.0;0.1600639969110489;-0.21276798844337463;1.0374879837036133;0.0;0.0;0.0
2207;0.0;0.0;0.0;0.17177599668502808;-0.18934398889541626;1.0247999429702759;0.0;0.0;0.0
2209;0.039772000163793564;-0.07027199864387512;0.901091992855072;0.1756799966096878;-0.1815359890460968;1.0413919687271118;14.594999313354492;16.826250076293945;-7.253749847412109
2211;0.0;0.0;0.0;0.18348799645900726;-0.17372798919677734;1.0287039279937744;0.0;0.0;0.0
2213;0.0;0.0;0.0;0.19910399615764618;-0.16201600432395935;1.0287039279937744;0.0;0.0;0.0
2215;0.0;0.0;0.0;0.19519999623298645;-0.14640000462532043;1.0618879795074463;0.0;0.0;0.0
2217;0.06831999868154526;-0.040748000144958496;0.9123159646987915;0.19519999623298645;-0.1698240041732788;1.0579839944839478;12.494999885559082;20.88625144958496;-6.273749828338623
2220;0.0;0.0;0.0;0.24985599517822266;-0.1542080044746399;1.0579839944839478;0.0;0.0;0.0
2222;0.0;0.0;0.0;0.21081599593162537;-0.1424959897994995;1.0696959495544434;0.0;0.0;0.0
2224;0.0;0.0;0.0;0.2420479953289032;-0.1424959897994995;1.0579839944839478;0.0;0.0;0.0
2226;0.11394799500703812;-0.015615999698638916;0.932811975479126;0.24985599517822266;-0.13468798995018005;1.0452959537506104;9.554999351501465;23.33625030517578;-5.713749885559082
2228;0.0;0.0;0.0;0.24985599517822266;-0.13859200477600098;1.073599934577942;0.0;0.0;0.0
2230;0.0;0.0;0.0;0.27327999472618103;-0.13468798995018005;1.0901919603347778;0.0;0.0;0.0
2232;0.0;0.0;0.0;0.27327999472618103;-0.10735999792814255;1.0814080238342285;0.0;0.0;0.0
2234;0.14932799339294434;0.003659999929368496;0.9533079862594604;0.27327999472618103;-0.13078400492668152;1.1058080196380615;7.034999847412109;23.756250381469727;-4.243749618530273
2237;0.0;0.0;0.0;0.27718400955200195;-0.115167997777462;1.101904034614563;0.0;0.0;0.0
2239;0.0;0.0;0.0;0.2654719948768616;-0.0878399983048439;1.1184959411621094;0.0;0.0;0.0
2241;0.0;0.0;0.0;0.284991979598999;-0.09955199807882309;1.122399926185608;0.0;0.0;0.0
2243;0.16616399586200714;0.020983999595046043;0.97843998670578;0.3123199939727783;-0.16591998934745789;1.0696959495544434;4.724999904632568;21.306251525878906;-1.8637499809265137
2245;0.0;0.0;0.0;0.284991979598999;-0.09564799815416336;1.122399926185608;0.0;0.0;0.0
2247;0.0;0.0;0.0;0.3357439935207367;-0.07222399860620499;1.1546080112457275;0.0;0.0;0.0
2249;0.0;0.0;0.0;0.35526400804519653;-0.08003199845552444;1.126304030418396;0.0;0.0;0.0
2251;0.19812799990177155;0.04123599827289581;0.9960079789161682;0.3240320086479187;-0.09174399822950363;1.158511996269226;5.005000114440918;16.40625;2.1262500286102295
2254;0.0;0.0;0.0;0.3445279896259308;-0.10735999792814255;1.1106879711151123;0.0;0.0;0.0
2256;0.0;0.0;0.0;0.3601439893245697;-0.09174399822950363;1.1145919561386108;0.0;0.0;0.0
2258;0.0;0.0;0.0;0.39528000354766846;-0.11126399785280228;1.0901919603347778;0.0;0.0;0.0
2260;0.25400400161743164;0.03928399831056595;0.977463960647583;0.42553597688674927;-0.0878399983048439;1.0862879753112793;4.585000038146973;10.876250267028809;7.4462504386901855
2262;0.0;0.0;0.0;0.4450559914112091;-0.08003199845552444;1.073599934577942;0.0;0.0;0.0
2264;0.0;0.0;0.0;0.4958080053329468;-0.09955199807882309;1.0657919645309448;0.0;0.0;0.0
2266;0.0;0.0;0.0;0.5153279900550842;-0.10735999792814255;1.073599934577942;0.0;0.0;0.0
2268;0.36502400040626526;0.01903199963271618;0.9391559958457947;0.5582720041275024;-0.10735999792814255;1.0335839986801147;7.034999847412109;9.126250267028809;9.126250267028809
2271;0.0;0.0;0.0;0.5690079927444458;-0.115167997777462;1.0570080280303955;0.0;0.0;0.0
2273;0.0;0.0;0.0;0.5885279774665833;-0.10735999792814255;1.0570080280303955;0.0;0.0;0.0
2275;0.0;0.0;0.0;0.6275680065155029;-0.11126399785280228;1.0940959453582764;0.0;0.0;0.0
2277;0.4945879876613617;0.02513200044631958;0.932811975479126;0.6929599642753601;-0.09174399822950363;1.0696959495544434;9.97499942779541;12.206250190734863;11.786250114440918
2279;0.0;0.0;0.0;0.6890559792518616;-0.09955199807882309;1.0374879837036133;0.0;0.0;0.0
2281;0.0;0.0;0.0;0.700767993927002;-0.07222399860620499;1.0814080238342285;0.0;0.0;0.0
2283;0.0;0.0;0.0;0.7163839936256409;-0.07612799853086472;1.0657919645309448;0.0;0.0;0.0
2285;0.5724239945411682;0.054655998945236206;0.9467200040817261;0.7359039783477783;-0.07612799853086472;1.0775039196014404;12.144999504089355;17.036251068115234;15.2162504196167
2288;0.0;0.0;0.0;0.6968640089035034;-0.029279999434947968;1.0814080238342285;0.0;0.0;0.0
2290;0.0;0.0;0.0;0.7437120079994202;-0.02537599951028824;1.097999930381775;0.0;0.0;0.0
2292;0.0;0.0;0.0;0.7398079633712769;-0.05660799890756607;1.097999930381775;0.0;0.0;0.0
2294;0.6156119704246521;0.08857199549674988;0.9633119702339172;0.7280960083007812;-0.02147199958562851;1.097999930381775;13.054999351501465;20.88625144958496;17.806249618530273
2296;0.0;0.0;0.0;0.7671359777450562;-0.040991999208927155;1.1184959411621094;0.0;0.0;0.0
2298;0.0;0.0;0.0;0.7593280076980591;-0.02537599951028824;1.1058080196380615;0.0;0.0;0.0
2300;0.0;0.0;0.0;0.7788479924201965;-0.05660799890756607;1.1184959411621094;0.0;0.0;0.0
2302;0.6375719904899597;0.09784399718046188;0.9845399856567383;0.7515199780464172;-0.0058559998869895935;1.1106879711151123;12.28499984741211;22.63625144958496;20.326250076293945
2305;0.0;0.0;0.0;0.7827519774436951;-0.029279999434947968;1.1184959411621094;0.0;0.0;0.0
2307;0.0;0.0;0.0;0.7593280076980591;-0.0331839993596077;1.134112000465393;0.0;0.0;0.0
2309;0.0;0.0;0.0;0.7788479924201965;-0.037087999284267426;1.122399926185608;0.0;0.0;0.0
2311;0.6531879901885986;0.0878399983048439;0.9896639585494995;0.7788479924201965;-0.07222399860620499;1.126304030418396;10.744999885559082;22.49625015258789;21.936250686645508
2313;0.0;0.0;0.0;0.7944639921188354;-0.029279999434947968;1.1350879669189453;0.0;0.0;0.0
2315;0.0;0.0;0.0;0.7866559624671936;-0.040991999208927155;1.1389919519424438;0.0;0.0;0.0
2317;0.0;0.0;0.0;0.8295999765396118;-0.0331839993596077;1.1350879669189453;0.0;0.0;0.0
2319;0.6880800127983093;0.08710800111293793;1.0052800178527832;0.8452159762382507;-0.0605119988322258;1.1428959369659424;9.204999923706055;21.236251831054688;22.216249465942383
2322;0.0;0.0;0.0;0.8491199612617493;-0.02537599951028824;1.1633919477462769;0.0;0.0;0.0
2324;0.0;0.0;0.0;0.8608319759368896;-0.0605119988322258;1.146799921989441;0.0;0.0;0.0
2326;0.0;0.0;0.0;0.8452159762382507;-0.05660799890756607;1.1546080112457275;0.0;0.0;0.0
2328;0.7498120069503784;0.08344800025224686;1.026263952255249;0.8686400055885315;-0.04879999905824661;1.1633919477462769;6.825000286102295;18.856250762939453;22.56624984741211
2330;0.0;0.0;0.0;0.8998720049858093;-0.07222399860620499;1.1546080112457275;0.0;0.0;0.0
2332;0.0;0.0;0.0;0.9184159636497498;-0.05270399898290634;1.1790080070495605;0.0;0.0;0.0
2334;0.0;0.0;0.0;0.9340319633483887;-0.06441599875688553;1.146799921989441;0.0;0.0;0.0
2336;0.8030039668083191;0.06563600152730942;1.0272400379180908;0.9730719923973083;-0.07222399860620499;1.1184959411621094;4.65500020980835;15.146249771118164;23.686250686645508
2339;0.0;0.0;0.0;0.9808799624443054;-0.0878399983048439;1.1389919519424438;0.0;0.0;0.0
2341;0.0;0.0;0.0;0.9418399930000305;-0.09174399822950363;1.1428959369659424;0.0;0.0;0.0
2343;0.0;0.0;0.0;0.9886879920959473;-0.12297599762678146;1.1106879711151123;0.0;0.0;0.0
2345;0.8527799844741821;0.02659599855542183;0.9928359985351562;0.9886879920959473;-0.1424959897994995;1.097999930381775;4.65500020980835;11.506250381469727;24.176250457763672
2347;0.0;0.0;0.0;1.012112021446228;-0.1424959897994995;1.085312008857727;0.0;0.0;0.0
2349;0.0;0.0;0.0;1.012112021446228;-0.1424959897994995;1.0901919603347778;0.0;0.0;0.0
2351;0.0;0.0;0.0;1.0355359315872192;-0.1542080044746399;1.0814080238342285;0.0;0.0;0.0
2354;0.8915759921073914;-0.013419999741017818;0.9547719955444336;0.9847840070724487;-0.17372798919677734;1.0491999387741089;6.615000247955322;9.826250076293945;22.49625015258789
2356;0.0;0.0;0.0;1.0091840028762817;-0.15030398964881897;1.0374879837036133;0.0;0.0;0.0
2358;0.0;0.0;0.0;1.0091840028762817;-0.17372798919677734;1.0579839944839478;0.0;0.0;0.0
2360;0.0;0.0;0.0;1.0208959579467773;-0.20105600357055664;1.0696959495544434;0.0;0.0;0.0
2362;0.8976759910583496;-0.04172400012612343;0.9374479651451111;1.0404160022735596;-0.19715198874473572;1.073599934577942;8.434999465942383;11.086250305175781;17.386249542236328
2364;0.0;0.0;0.0;1.0169919729232788;-0.1815359890460968;1.073599934577942;0.0;0.0;0.0
2366;0.0;0.0;0.0;1.0247999429702759;-0.20105600357055664;1.0823839902877808;0.0;0.0;0.0
2368;0.0;0.0;0.0;0.9974719882011414;-0.20105600357055664;1.073599934577942;0.0;0.0;0.0
2371;0.8862079977989197;-0.05538799986243248;0.9474520087242126;0.9779520034790039;-0.18544000387191772;1.073599934577942;8.085000038146973;12.416250228881836;10.526249885559082
2373;0.0;0.0;0.0;0.962336003780365;-0.18934398889541626;1.0823839902877808;0.0;0.0;0.0
2375;0.0;0.0;0.0;0.985759973526001;-0.20105600357055664;1.0657919645309448;0.0;0.0;0.0
2377;0.0;0.0;0.0;0.962336003780365;-0.20495998859405518;1.0814080238342285;0.0;0.0;0.0
2379;0.8508279919624329;-0.06709999591112137;0.9486719965934753;0.9545279741287231;-0.20495998859405518;1.0823839902877808;6.40500020980835;12.486249923706055;4.016250133514404
