Timestamp(ms);LG-Accel x(g);LG-Accel y(g);LG-Accel z(g);HG-Accel x(g);HG-Accel y(g);HG-Accel z(g);Gyro x(dps);Gyro y(dps);Gyro z(dps)
75;0.0;0.0;0.0;0.045871999114751816;-0.18836799263954163;1.0784800052642822;0.0;0.0;0.0
77;0.0;0.0;0.0;0.049775999039411545;-0.1727519929409027;1.0696959495544434;0.0;0.0;0.0
79;0.0;0.0;0.0;0.03415999934077263;-0.1727519929409027;1.073599934577942;0.0;0.0;0.0
81;0.0;0.0;0.0;0.049775999039411545;-0.20398399233818054;1.0823839902877808;0.0;0.0;0.0
84;0.0;0.0;0.0;0.04196799919009209;-0.1844639927148819;1.0940959453582764;0.0;0.0;0.0
86;0.0;0.0;0.0;0.02635199949145317;-0.1512800008058548;1.0921440124511719;0.0;0.0;0.0
88;0.0;0.0;0.0;0.049775999039411545;-0.16299200057983398;1.1038559675216675;0.0;0.0;0.0
90;0.0;0.0;0.0;0.0302559994161129;-0.205935999751091;1.0960479974746704;0.0;0.0;0.0
92;-0.08588799834251404;-0.0424560010433197;0.9830759763717651;0.03806399926543236;-0.1786080002784729;1.107759952545166;0.0;0.0;0.0
94;0.0;0.0;0.0;0.010735999792814255;-0.15518400073051453;1.1526559591293335;0.0;0.0;0.0
96;0.0;0.0;0.0;-0.00878399983048439;-0.14737600088119507;1.1360639333724976;0.0;0.0;0.0
98;0.0;0.0;0.0;-0.004879999905824661;-0.12004800140857697;1.1643680334091187;0.0;0.0;0.0
101;-0.10272400081157684;-0.020739998668432236;1.0294359922409058;0.0029279999434947968;-0.1512800008058548;1.180959939956665;0.0;0.0;0.0
103;0.0;0.0;0.0;0.02635199949145317;-0.12785600125789642;1.1887680292129517;0.0;0.0;0.0
105;0.0;0.0;0.0;0.04196799919009209;-0.14347200095653534;1.1526559591293335;0.0;0.0;0.0
107;0.0;0.0;0.0;0.06148799881339073;-0.1395680010318756;1.1682720184326172;0.0;0.0;0.0
109;-0.06783200055360794;-0.0017079999670386314;1.0452959537506104;0.07710400223731995;-0.1668960005044937;1.1643680334091187;0.0;0.0;0.0
111;0.0;0.0;0.0;0.1268799901008606;-0.14347200095653534;1.1692479848861694;0.0;0.0;0.0
113;0.0;0.0;0.0;0.10833600163459778;-0.12004800140857697;1.148751974105835;0.0;0.0;0.0
115;0.0;0.0;0.0;0.15811198949813843;-0.13566400110721588;1.1204479932785034;0.0;0.0;0.0
118;0.010735999792814255;-0.00317199993878603;1.0157719850540161;0.18934398889541626;-0.1512800008058548;1.1282559633255005;0.0;0.0;0.0
120;0.0;0.0;0.0;0.16591998934745789;-0.1395680010318756;1.1204479932785034;0.0;0.0;0.0
122;0.0;0.0;0.0;0.236191987991333;-0.1512800008058548;1.115567922592163;0.0;0.0;0.0
124;0.0;0.0;0.0;0.23228800296783447;-0.15518400073051453;1.1282559633255005;0.0;0.0;0.0
126;0.09125600010156631;-0.00878399983048439;0.9911279678344727;0.23228800296783447;-0.14737600088119507;1.107759952545166;0.0;0.0;0.0
128;0.0;0.0;0.0;0.26742398738861084;-0.12785600125789642;1.0921440124511719;0.0;0.0;0.0
130;0.0;0.0;0.0;0.2908479869365692;-0.14737600088119507;1.107759952545166;0.0;0.0;0.0
132;0.0;0.0;0.0;0.31036800146102905;-0.18251200020313263;1.107759952545166;0.0;0.0;0.0
135;0.15908800065517426;-0.028547998517751694;0.9779520034790039;0.32207998633384705;-0.19812799990177155;1.0872639417648315;1.0456249713897705;15.255624771118164;13.0287504196167
137;0.0;0.0;0.0;0.32207998633384705;-0.18251200020313263;1.107759952545166;0.0;0.0;0.0
139;0.0;0.0;0.0;0.31036800146102905;-0.1786080002784729;1.0872639417648315;0.0;0.0;0.0
141;0.0;0.0;0.0;0.3416000008583069;-0.205935999751091;1.083359956741333;0.0;0.0;0.0
143;0.21032799780368805;-0.05782799795269966;0.9647759795188904;0.3718560039997101;-0.18641600012779236;1.0638400316238403;-1.6843750476837158;17.35562515258789;13.30875015258789
145;0.0;0.0;0.0;0.36111998558044434;-0.22935999929904938;1.0716480016708374;0.0;0.0;0.0
147;0.0;0.0;0.0;0.37966400384902954;-0.21374399960041046;1.1038559675216675;0.0;0.0;0.0
149;0.0;0.0;0.0;0.387472003698349;-0.24107199907302856;1.0716480016708374;0.0;0.0;0.0
152;0.2566879987716675;-0.08295999467372894;0.9584319591522217;0.3835679888725281;-0.22545599937438965;1.099951982498169;-2.4543750286102295;21.345624923706055;14.078750610351562
154;0.0;0.0;0.0;0.40699198842048645;-0.20203199982643127;1.0677440166473389;0.0;0.0;0.0
156;0.0;0.0;0.0;0.44603198766708374;-0.26449599862098694;1.0384639501571655;0.0;0.0;0.0
158;0.0;0.0;0.0;0.4577440023422241;-0.2683999836444855;1.0794559717178345;0.0;0.0;0.0
160;0.3111000061035156;-0.12029200047254562;0.9564799666404724;0.4421280026435852;-0.2840159833431244;1.0872639417648315;-0.6343749761581421;25.545625686645508;13.658750534057617
162;0.0;0.0;0.0;0.4265120029449463;-0.27620798349380493;1.107759952545166;0.0;0.0;0.0
164;0.0;0.0;0.0;0.4655520021915436;-0.26449599862098694;1.099951982498169;0.0;0.0;0.0
167;0.0;0.0;0.0;0.4538399875164032;-0.2723039984703064;1.1282559633255005;0.0;0.0;0.0
169;0.3333039879798889;-0.13541999459266663;0.9894199967384338;0.4577440023422241;-0.2683999836444855;1.1448479890823364;3.775624990463257;30.58562469482422;17.158748626708984
171;0.0;0.0;0.0;0.46164798736572266;-0.28011199831962585;1.132159948348999;0.0;0.0;0.0
173;0.0;0.0;0.0;0.43432000279426575;-0.260591983795166;1.132159948348999;0.0;0.0;0.0
175;0.0;0.0;0.0;0.4382239878177643;-0.2683999836444855;1.156559944152832;0.0;0.0;0.0
177;0.32207998633384705;-0.13346800208091736;1.0230920314788818;0.4577440023422241;-0.27620798349380493;1.1604639291763306;7.625625133514404;33.31562423706055;19.46875
179;0.0;0.0;0.0;0.4108960032463074;-0.23716799914836884;1.1692479848861694;0.0;0.0;0.0
181;0.0;0.0;0.0;0.41870400309562683;-0.30353599786758423;1.1604639291763306;0.0;0.0;0.0
184;0.0;0.0;0.0;0.44993600249290466;-0.27620798349380493;1.1770559549331665;0.0;0.0;0.0
186;0.3047559857368469;-0.13810399174690247;1.0455399751663208;0.4265120029449463;-0.30743998289108276;1.1643680334091187;10.075624465942383;33.10562515258789;17.78874969482422
188;0.0;0.0;0.0;0.4265120029449463;-0.3269599974155426;1.180959939956665;0.0;0.0;0.0
190;0.0;0.0;0.0;0.43432000279426575;-0.31915199756622314;1.2014559507369995;0.0;0.0;0.0
192;0.0;0.0;0.0;0.44993600249290466;-0.29182398319244385;1.2170720100402832;0.0;0.0;0.0
194;0.3130519986152649;-0.1676279902458191;1.0723799467086792;0.4538399875164032;-0.3113439977169037;1.2258559465408325;12.17562484741211;30.795625686645508;15.408750534057617
196;0.0;0.0;0.0;0.4577440023422241;-0.31915199756622314;1.221951961517334;0.0;0.0;0.0
198;0.0;0.0;0.0;0.4538399875164032;-0.2879199981689453;1.2092639207839966;0.0;0.0;0.0
201;0.0;0.0;0.0;0.4421280026435852;-0.2840159833431244;1.205359935760498;0.0;0.0;0.0
203;0.3211039900779724;-0.1559159904718399;1.0928759574890137;0.4538399875164032;-0.27620798349380493;1.205359935760498;12.805624961853027;25.965625762939453;12.46875
205;0.0;0.0;0.0;0.4772639870643616;-0.2723039984703064;1.205359935760498;0.0;0.0;0.0
207;0.0;0.0;0.0;0.48897600173950195;-0.2566879987716675;1.2336640357971191;0.0;0.0;0.0
209;0.0;0.0;0.0;0.5202080011367798;-0.24887999892234802;1.2170720100402832;0.0;0.0;0.0
211;0.3740519881248474;-0.12663599848747253;1.087996006011963;0.5592479705810547;-0.2449759989976883;1.173151969909668;11.895624160766602;19.035625457763672;8.548749923706055
213;0.0;0.0;0.0;0.563152015209198;-0.24887999892234802;1.2014559507369995;0.0;0.0;0.0
215;0.0;0.0;0.0;0.5592479705810547;-0.2566879987716675;1.1887680292129517;0.0;0.0;0.0
218;0.0;0.0;0.0;0.5934079885482788;-0.25278398394584656;1.173151969909668;0.0;0.0;0.0
220;0.4531079828739166;-0.11394799500703812;1.0599359273910522;0.5943840146064758;-0.2449759989976883;1.156559944152832;8.745624542236328;14.485625267028809;4.978749752044678
222;0.0;0.0;0.0;0.5943840146064758;-0.2449759989976883;1.1526559591293335;0.0;0.0;0.0
224;0.0;0.0;0.0;0.6060959696769714;-0.24887999892234802;1.1692479848861694;0.0;0.0;0.0
226;0.0;0.0;0.0;0.6100000143051147;-0.2566879987716675;1.148751974105835;0.0;0.0;0.0
228;0.4926359951496124;-0.11565599590539932;1.034071922302246;0.6324479579925537;-0.23716799914836884;1.1448479890823364;5.385624885559082;13.225625038146973;2.1787500381469727
231;0.0;0.0;0.0;0.6285439729690552;-0.25278398394584656;1.1643680334091187;0.0;0.0;0.0
232;0.0;0.0;0.0;0.6285439729690552;-0.2449759989976883;1.1604639291763306;0.0;0.0;0.0
235;0.0;0.0;0.0;0.6129279732704163;-0.24107199907302856;1.139967918395996;0.0;0.0;0.0
237;0.5041040182113647;-0.1088239997625351;1.0299240350723267;0.6558719873428345;-0.22545599937438965;1.173151969909668;3.2856249809265137;12.315625190734863;-1.0412499904632568
239;0.0;0.0;0.0;0.6246399879455566;-0.22545599937438965;1.148751974105835;0.0;0.0;0.0
241;0.0;0.0;0.0;0.6441599726676941;-0.260591983795166;1.173151969909668;0.0;0.0;0.0
243;0.0;0.0;0.0;0.636352002620697;-0.24107199907302856;1.1604639291763306;0.0;0.0;0.0
245;0.5255759954452515;-0.10589599609375;1.02675199508667;0.6714879870414734;-0.22935999929904938;1.139967918395996;2.585624933242798;11.265625;-3.351249933242798
247;0.0;0.0;0.0;0.6480640172958374;-0.22545599937438965;1.156559944152832;0.0;0.0;0.0
249;0.0;0.0;0.0;0.6988160014152527;-0.2683999836444855;1.1448479890823364;0.0;0.0;0.0
252;0.0;0.0;0.0;0.6714879870414734;-0.260591983795166;1.1604639291763306;0.0;0.0;0.0
254;0.5602239966392517;-0.10345599800348282;1.0367560386657715;0.7066239714622498;-0.2449759989976883;1.1604639291763306;2.655625104904175;11.405625343322754;-3.6312499046325684
256;0.0;0.0;0.0;0.6949119567871094;-0.22545599937438965;1.1448479890823364;0.0;0.0;0.0
258;0.0;0.0;0.0;0.6753919720649719;-0.260591983795166;1.173151969909668;0.0;0.0;0.0
260;0.0;0.0;0.0;0.7105280160903931;-0.22545599937438965;1.1692479848861694;0.0;0.0;0.0
262;0.5780360102653503;-0.10199199616909027;1.0374879837036133;0.7183359861373901;-0.24107199907302856;1.1526559591293335;3.8456249237060547;10.7056245803833;-1.9512499570846558
264;0.0;0.0;0.0;0.7066239714622498;-0.24107199907302856;1.173151969909668;0.0;0.0;0.0
266;0.0;0.0;0.0;0.7300480008125305;-0.22545599937438965;1.156559944152832;0.0;0.0;0.0
269;0.0;0.0;0.0;0.7183359861373901;-0.24107199907302856;1.1643680334091187;0.0;0.0;0.0
271;0.5965799689292908;-0.1029679998755455;1.0418800115585327;0.733951985836029;-0.26449599862098694;1.1848639249801636;5.805624961853027;9.935625076293945;0.35875001549720764
273;0.0;0.0;0.0;0.7417600154876709;-0.2449759989976883;1.173151969909668;0.0;0.0;0.0
275;0.0;0.0;0.0;0.7144320011138916;-0.23716799914836884;1.1643680334091187;0.0;0.0;0.0
277;0.0;0.0;0.0;0.6988160014152527;-0.23716799914836884;1.1926720142364502;0.0;0.0;0.0
279;0.5873079895973206;-0.10516399890184402;1.0579839944839478;0.6910079717636108;-0.2332639992237091;1.1887680292129517;6.995625019073486;8.815625190734863;2.3187501430511475
281;0.0;0.0;0.0;0.6792960166931152;-0.23716799914836884;1.205359935760498;0.0;0.0;0.0
283;0.0;0.0;0.0;0.6753919720649719;-0.260591983795166;1.1848639249801636;0.0;0.0;0.0
286;0.0;0.0;0.0;0.6519680023193359;-0.2449759989976883;1.2170720100402832;0.0;0.0;0.0
288;0.5433880090713501;-0.10809199512004852;1.0818959474563599;0.6480640172958374;-0.260591983795166;1.1926720142364502;6.855625152587891;4.965624809265137;2.3187501430511475
290;0.0;0.0;0.0;0.6480640172958374;-0.24887999892234802;1.2209759950637817;0.0;0.0;0.0
292;0.0;0.0;0.0;0.6207360029220581;-0.260591983795166;1.2502559423446655;0.0;0.0;0.0
294;0.0;0.0;0.0;0.6090239882469177;-0.27620798349380493;1.205359935760498;0.0;0.0;0.0
296;0.508251965045929;-0.11272799968719482;1.0889719724655151;0.6060959696769714;-0.2566879987716675;1.2170720100402832;5.385624885559082;-1.9643750190734863;0.2887499928474426
298;0.0;0.0;0.0;0.5709599852561951;-0.23716799914836884;1.2170720100402832;0.0;0.0;0.0
301;0.0;0.0;0.0;0.6285439729690552;-0.2566879987716675;1.2258559465408325;0.0;0.0;0.0
303;0.0;0.0;0.0;0.6021919846534729;-0.23716799914836884;1.205359935760498;0.0;0.0;0.0
305;0.4840959906578064;-0.11687599867582321;1.0843359231948853;0.586575984954834;-0.25278398394584656;1.205359935760498;2.3056249618530273;-8.964375495910645;-3.421250104904175
307;0.0;0.0;0.0;0.5943840146064758;-0.2566879987716675;1.1770559549331665;0.0;0.0;0.0
309;0.0;0.0;0.0;0.6021919846534729;-0.23716799914836884;1.180959939956665;0.0;0.0;0.0
311;0.0;0.0;0.0;0.6090239882469177;-0.260591983795166;1.1770559549331665;0.0;0.0;0.0
313;0.47555598616600037;-0.11492399871349335;1.0599359273910522;0.6090239882469177;-0.24887999892234802;1.173151969909668;-1.0543749332427979;-15.82437515258789;-8.251249313354492
316;0.0;0.0;0.0;0.6207360029220581;-0.24107199907302856;1.148751974105835;0.0;0.0;0.0
317;0.0;0.0;0.0;0.6090239882469177;-0.2332639992237091;1.1360639333724976;0.0;0.0;0.0
320;0.0;0.0;0.0;0.6090239882469177;-0.24887999892234802;1.1526559591293335;0.0;0.0;0.0
322;0.4875119924545288;-0.11565599590539932;1.030900001525879;0.6246399879455566;-0.22935999929904938;1.139967918395996;-3.854374885559082;-20.934375762939453;-13.081250190734863
324;0.0;0.0;0.0;0.6246399879455566;-0.2449759989976883;1.1643680334091187;0.0;0.0;0.0
326;0.0;0.0;0.0;0.5904799699783325;-0.25278398394584656;1.1204479932785034;0.0;0.0;0.0
328;0.0;0.0;0.0;0.6246399879455566;-0.2879199981689453;1.099951982498169;0.0;0.0;0.0
330;0.48970797657966614;-0.1239520013332367;0.9896639585494995;0.6090239882469177;-0.2840159833431244;1.0794559717178345;-5.534375190734863;-23.734375;-16.791250228881836
332;0.0;0.0;0.0;0.6100000143051147;-0.26449599862098694;1.0960479974746704;0.0;0.0;0.0
334;0.0;0.0;0.0;0.5748639702796936;-0.26449599862098694;1.0716480016708374;0.0;0.0;0.0
337;0.0;0.0;0.0;0.5709599852561951;-0.28011199831962585;1.0550559759140015;0.0;0.0;0.0
339;0.46457600593566895;-0.13712799549102783;0.9469639658927917;0.5904799699783325;-0.2840159833431244;1.0677440166473389;-4.554375171661377;-23.94437599182129;-18.821250915527344
341;0.0;0.0;0.0;0.5748639702796936;-0.28011199831962585;1.0589599609375;0.0;0.0;0.0
343;0.0;0.0;0.0;0.5553439855575562;-0.2879199981689453;1.034559965133667;0.0;0.0;0.0
345;0.0;0.0;0.0;0.5514400005340576;-0.26449599862098694;1.0589599609375;0.0;0.0;0.0
347;0.43212398886680603;-0.13761599361896515;0.9247599840164185;0.5475360155105591;-0.25278398394584656;1.051151990890503;-0.8443750143051147;-23.03437614440918;-18.12125015258789
349;0.0;0.0;0.0;0.5319200158119202;-0.2449759989976883;1.02675199508667;0.0;0.0;0.0
352;0.0;0.0;0.0;0.5280159711837769;-0.25278398394584656;1.0433440208435059;0.0;0.0;0.0
354;0.0;0.0;0.0;0.48897600173950195;-0.22935999929904938;1.042367935180664;0.0;0.0;0.0
356;0.39479199051856995;-0.11199599504470825;0.9147560000419617;0.4772639870643616;-0.22545599937438965;1.051151990890503;4.615624904632568;-22.684375762939453;-15.041250228881836
358;0.0;0.0;0.0;0.48897600173950195;-0.21374399960041046;1.0384639501571655;0.0;0.0;0.0
360;0.0;0.0;0.0;0.4655520021915436;-0.19422399997711182;1.0189440250396729;0.0;0.0;0.0
362;0.0;0.0;0.0;0.4304159879684448;-0.18641600012779236;1.0228480100631714;0.0;0.0;0.0
364;0.3320840001106262;-0.07368800044059753;0.9081679582595825;0.41870400309562683;-0.20203199982643127;1.0384639501571655;9.585624694824219;-23.174375534057617;-11.891249656677246
367;0.0;0.0;0.0;0.40699198842048645;-0.21374399960041046;1.0394400358200073;0.0;0.0;0.0
368;0.0;0.0;0.0;0.3718560039997101;-0.1786080002784729;1.034559965133667;0.0;0.0;0.0
371;0.0;0.0;0.0;0.3601439893245697;-0.15908800065517426;1.0062559843063354;0.0;0.0;0.0
373;0.25058799982070923;-0.03879600018262863;0.9110959768295288;0.32598400115966797;-0.14347200095653534;1.0228480100631714;12.385624885559082;-25.834375381469727;-10.28125
375;0.0;0.0;0.0;0.30646398663520813;-0.1395680010318756;1.0550559759140015;0.0;0.0;0.0
377;0.0;0.0;0.0;0.32207998633384705;-0.12004800140857697;1.0433440208435059;0.0;0.0;0.0
379;0.0;0.0;0.0;0.28303998708724976;-0.09662400186061859;1.0433440208435059;0.0;0.0;0.0
381;0.18812400102615356;0.004635999910533428;0.9176839590072632;0.32598400115966797;-0.11614400148391724;1.034559965133667;11.895624160766602;-30.874374389648438;-9.301249504089355
384;0.0;0.0;0.0;0.26742398738861084;-0.10052800178527832;1.0384639501571655;0.0;0.0;0.0
386;0.0;0.0;0.0;0.29475200176239014;-0.08881600201129913;1.0355359315872192;0.0;0.0;0.0
388;0.0;0.0;0.0;0.2752319872379303;-0.07710400223731995;1.034559965133667;0.0;0.0;0.0
390;0.15786799788475037;0.0558759979903698;0.9225639700889587;0.2635200023651123;-0.06148799881339073;1.034559965133667;7.205625057220459;-34.864376068115234;-5.591250419616699
392;0.0;0.0;0.0;0.2635200023651123;-0.08100800216197968;1.002351999282837;0.0;0.0;0.0
394;0.0;0.0;0.0;0.2479040026664734;-0.07320000231266022;0.9984479546546936;0.0;0.0;0.0
396;0.0;0.0;0.0;0.25571200251579285;-0.07710400223731995;1.010159969329834;0.0;0.0;0.0
398;0.12834399938583374;0.07222399860620499;0.8954799771308899;0.29475200176239014;-0.045871999114751816;0.9984479546546936;0.34562498331069946;-38.364376068115234;-3.771250009536743
401;0.0;0.0;0.0;0.2479040026664734;-0.08881600201129913;1.002351999282837;0.0;0.0;0.0
403;0.0;0.0;0.0;0.2088640034198761;-0.08100800216197968;0.985759973526001;0.0;0.0;0.0
405;0.0;0.0;0.0;0.20105600357055664;-0.06929600238800049;0.9818559885025024;0.0;0.0;0.0
407;0.10735999792814255;0.06856399774551392;0.8727880120277405;0.20495998859405518;-0.07710400223731995;0.9574559926986694;-6.794374942779541;-38.99437713623047;-0.6912499666213989
409;0.0;0.0;0.0;0.18836799263954163;-0.0849120020866394;0.9818559885025024;0.0;0.0;0.0
411;0.0;0.0;0.0;0.17665599286556244;-0.06148799881339073;0.9535520076751709;0.0;0.0;0.0
413;0.0;0.0;0.0;0.14932799339294434;-0.11224000155925751;0.9779520034790039;0.0;0.0;0.0
415;0.04758000001311302;0.052216000854969025;0.8503400087356567;0.13371199369430542;-0.09272000193595886;0.9779520034790039;-13.164375305175781;-36.614376068115234;0.07874999940395355
418;0.0;0.0;0.0;0.11419199407100677;-0.08881600201129913;0.985759973526001;0.0;0.0;0.0
420;0.0;0.0;0.0;0.115167997777462;-0.11224000155925751;0.985759973526001;0.0;0.0;0.0
422;0.0;0.0;0.0;0.08393599838018417;-0.14347200095653534;0.9935680031776428;0.0;0.0;0.0
424;-0.021715998649597168;0.02659599855542183;0.8586359620094299;0.08003199845552444;-0.16299200057983398;0.961359977722168;-17.364376068115234;-33.044376373291016;2.2487499713897705
426;0.0;0.0;0.0;0.06929600238800049;-0.049775999039411545;1.0384639501571655;0.0;0.0;0.0
428;0.0;0.0;0.0;0.06539200246334076;-0.12004800140857697;0.9935680031776428;0.0;0.0;0.0
430;0.0;0.0;0.0;0.010735999792814255;-0.14737600088119507;1.002351999282837;0.0;0.0;0.0
432;-0.08442399650812149;0.030499998480081558;0.8905999660491943;0.0302559994161129;-0.10833600163459778;1.0628639459609985;-19.744375228881836;-28.704376220703125;6.308749675750732
435;0.0;0.0;0.0;-0.004879999905824661;-0.09272000193595886;1.0628639459609985;0.0;0.0;0.0
437;0.0;0.0;0.0;-0.00878399983048439;-0.11224000155925751;1.0433440208435059;0.0;0.0;0.0
439;0.0;0.0;0.0;-0.05953599885106087;-0.13566400110721588;1.0628639459609985;0.0;0.0;0.0
441;-0.1525000035762787;0.023180000483989716;0.9354959726333618;-0.06734399497509003;-0.10833600163459778;1.0628639459609985;-23.87437629699707;-24.434375762939453;12.398750305175781
443;0.0;0.0;0.0;-0.09467199444770813;-0.10443200170993805;1.0716480016708374;0.0;0.0;0.0
445;0.0;0.0;0.0;-0.09857599437236786;-0.13176000118255615;1.0794559717178345;0.0;0.0;0.0
447;0.0;0.0;0.0;-0.13761599361896515;-0.11614400148391724;1.0872639417648315;0.0;0.0;0.0
449;-0.23936399817466736;0.004391999915242195;0.9703879952430725;-0.17958399653434753;-0.1239520013332367;1.099951982498169;-25.55437469482422;-22.684375762939453;19.46875
452;0.0;0.0;0.0;-0.20691199600696564;-0.1668960005044937;1.1204479932785034;0.0;0.0;0.0
454;0.0;0.0;0.0;-0.21862399578094482;-0.15908800065517426;1.1448479890823364;0.0;0.0;0.0
456;0.0;0.0;0.0;-0.24985599517822266;-0.1668960005044937;1.156559944152832;0.0;0.0;0.0
458;-0.3455039858818054;-0.02537599951028824;1.0196759700775146;-0.2693759799003601;-0.17080000042915344;1.1770559549331665;-24.504375457763672;-24.504375457763672;25.698749542236328
460;0.0;0.0;0.0;-0.2664479911327362;-0.18251200020313263;1.156559944152832;0.0;0.0;0.0
462;0.0;0.0;0.0;-0.2898719906806946;-0.1786080002784729;1.180959939956665;0.0;0.0;0.0
464;0.0;0.0;0.0;-0.31329599022865295;-0.20983999967575073;1.1526559591293335;0.0;0.0;0.0
466;-0.41626399755477905;-0.0558759979903698;1.042367935180664;-0.31329599022865295;-0.19812799990177155;1.1604639291763306;-23.94437599182129;-29.544374465942383;30.03874969482422
469;0.0;0.0;0.0;-0.3054879903793335;-0.22935999929904938;1.148751974105835;0.0;0.0;0.0
471;0.0;0.0;0.0;-0.29767999053001404;-0.21374399960041046;1.1448479890823364;0.0;0.0;0.0
473;0.0;0.0;0.0;-0.30158400535583496;-0.2176479995250702;1.1360639333724976;0.0;0.0;0.0
475;-0.41797199845314026;-0.08930400013923645;1.0194319486618042;-0.3054879903793335;-0.22155199944972992;1.124351978302002;-23.94437599182129;-32.06437301635742;31.71875
477;0.0;0.0;0.0;-0.29767999053001404;-0.24887999892234802;1.1204479932785034;0.0;0.0;0.0
479;0.0;0.0;0.0;-0.2937760055065155;-0.24107199907302856;1.139967918395996;0.0;0.0;0.0
481;0.0;0.0;0.0;-0.2664479911327362;-0.24107199907302856;1.124351978302002;0.0;0.0;0.0
483;-0.40991997718811035;-0.11687599867582321;1.0035719871520996;-0.26254400610923767;-0.24887999892234802;1.139967918395996;-23.1043758392334;-31.994375228881836;31.928749084472656
486;0.0;0.0;0.0;-0.3054879903793335;-0.2840159833431244;1.1116639375686646;0.0;0.0;0.0
488;0.0;0.0;0.0;-0.2898719906806946;-0.26449599862098694;1.1204479932785034;0.0;0.0;0.0
490;0.0;0.0;0.0;-0.32500800490379333;-0.2566879987716675;1.1360639333724976;0.0;0.0;0.0
492;-0.42089998722076416;-0.1395680010318756;1.001863956451416;-0.3054879903793335;-0.2840159833431244;1.132159948348999;-22.544376373291016;-29.754375457763672;30.948749542236328
494;0.0;0.0;0.0;-0.30060797929763794;-0.2879199981689453;1.1282559633255005;0.0;0.0;0.0
496;0.0;0.0;0.0;-0.3240320086479187;-0.30743998289108276;1.1116639375686646;0.0;0.0;0.0
498;0.0;0.0;0.0;-0.27327999472618103;-0.31915199756622314;1.1038559675216675;0.0;0.0;0.0
500;-0.423583984375;-0.16274799406528473;0.9996680021286011;-0.2810879945755005;-0.3269599974155426;1.124351978302002;-22.264375686645508;-25.904375076293945;28.21875
503;0.0;0.0;0.0;-0.30060797929763794;-0.3152479827404022;1.1204479932785034;0.0;0.0;0.0
505;0.0;0.0;0.0;-0.3201279938220978;-0.30743998289108276;1.139967918395996;0.0;0.0;0.0
507;0.0;0.0;0.0;-0.3669759929180145;-0.28011199831962585;1.139967918395996;0.0;0.0;0.0
509;-0.4596959948539734;-0.16713999211788177;1.020651936531067;-0.40113598108291626;-0.30353599786758423;1.1926720142364502;-20.024375915527344;-14.284375190734863;23.73874855041504
511;0.0;0.0;0.0;-0.447983980178833;-0.27620798349380493;1.221951961517334;0.0;0.0;0.0
513;0.0;0.0;0.0;-0.47921597957611084;-0.2683999836444855;1.2453759908676147;0.0;0.0;0.0
515;0.0;0.0;0.0;-0.5299679636955261;-0.27620798349380493;1.2658720016479492;0.0;0.0;0.0
517;-0.6012159585952759;-0.13371199369430542;1.1233760118484497;-0.5494880080223083;-0.26449599862098694;1.3517600297927856;-14.63437557220459;-5.884375095367432;18.698749542236328
520;0.0;0.0;0.0;-0.5807200074195862;-0.22935999929904938;1.3429759740829468;0.0;0.0;0.0
522;0.0;0.0;0.0;-0.6236639618873596;-0.22155199944972992;1.3761600255966187;0.0;0.0;0.0
524;0.0;0.0;0.0;-0.6080479621887207;-0.20203199982643127;1.4122719764709473;0.0;0.0;0.0
526;-0.7395640015602112;-0.08637599647045135;1.2634320259094238;-0.6734399795532227;-0.19812799990177155;1.4405759572982788;-10.924375534057617;-6.374375343322754;14.638750076293945
528;0.0;0.0;0.0;-0.6734399795532227;-0.19812799990177155;1.4688799381256104;0.0;0.0;0.0
530;0.0;0.0;0.0;-0.6656320095062256;-0.22935999929904938;1.4649759531021118;0.0;0.0;0.0
532;0.0;0.0;0.0;-0.7202879786491394;-0.21374399960041046;1.4893759489059448;0.0;0.0;0.0
534;-0.8122760057449341;-0.06002400070428848;1.3468799591064453;-0.6812480092048645;-0.20203199982643127;1.4932799339294434;-12.464375495910645;-10.64437484741211;10.858750343322754
537;0.0;0.0;0.0;-0.7241919636726379;-0.19812799990177155;1.4893759489059448;0.0;0.0;0.0
539;0.0;0.0;0.0;-0.7241919636726379;-0.18251200020313263;1.4854719638824463;0.0;0.0;0.0
541;0.0;0.0;0.0;-0.7163839936256409;-0.1786080002784729;1.4688799381256104;0.0;0.0;0.0
543;-0.8361879587173462;-0.058559998869895935;1.3622519969940186;-0.7319999933242798;-0.18641600012779236;1.4727839231491089;-15.614375114440918;-18.274375915527344;8.478750228881836
545;0.0;0.0;0.0;-0.6734399795532227;-0.22155199944972992;1.497183918952942;0.0;0.0;0.0
547;0.0;0.0;0.0;-0.6539199948310852;-0.20983999967575073;1.476688027381897;0.0;0.0;0.0
549;0.0;0.0;0.0;-0.6539199948310852;-0.22155199944972992;1.4366719722747803;0.0;0.0;0.0
551;-0.8044679760932922;-0.06612399965524673;1.340291976928711;-0.6500160098075867;-0.1903200000524521;1.4327679872512817;-18.484375;-27.44437599182129;7.21875
554;0.0;0.0;0.0;-0.6353759765625;-0.22545599937438965;1.4288640022277832;0.0;0.0;0.0
556;0.0;0.0;0.0;-0.6275680065155029;-0.22155199944972992;1.3956799507141113;0.0;0.0;0.0
558;0.0;0.0;0.0;-0.5807200074195862;-0.23716799914836884;1.3761600255966187;0.0;0.0;0.0
560;-0.7444440126419067;-0.0924759954214096;1.2783160209655762;-0.5807200074195862;-0.23716799914836884;1.3468799591064453;-20.37437629699707;-34.30437469482422;4.838749885559082
562;0.0;0.0;0.0;-0.5651040077209473;-0.2566879987716675;1.3351680040359497;0.0;0.0;0.0
564;0.0;0.0;0.0;-0.5299679636955261;-0.2449759989976883;1.3351680040359497;0.0;0.0;0.0
566;0.0;0.0;0.0;-0.5104479789733887;-0.25278398394584656;1.3107680082321167;0.0;0.0;0.0
568;-0.6636799573898315;-0.12370799481868744;1.1956000328063965;-0.48311999440193176;-0.28011199831962585;1.2824640274047852;-20.16437530517578;-37.384376525878906;0.4987500011920929
571;0.0;0.0;0.0;-0.4870239794254303;-0.24887999892234802;1.2658720016479492;0.0;0.0;0.0
573;0.0;0.0;0.0;-0.47921597957611084;-0.25278398394584656;1.2375680208206177;0.0;0.0;0.0
575;0.0;0.0;0.0;-0.4323679804801941;-0.2879199981689453;1.2375680208206177;0.0;0.0;0.0
577;-0.583404004573822;-0.13419999182224274;1.130452036857605;-0.42455998063087463;-0.2723039984703064;1.221951961517334;-17.78437614440918;-36.194374084472656;-4.611250400543213
579;0.0;0.0;0.0;-0.4167519807815552;-0.28011199831962585;1.2258559465408325;0.0;0.0;0.0
581;0.0;0.0;0.0;-0.39820799231529236;-0.28011199831962585;1.1887680292129517;0.0;0.0;0.0
583;0.0;0.0;0.0;-0.38942399621009827;-0.30353599786758423;1.180959939956665;0.0;0.0;0.0
585;-0.5199639797210693;-0.14420399069786072;1.0723799467086792;-0.38259199261665344;-0.2723039984703064;1.1770559549331665;-14.494375228881836;-31.364376068115234;-9.37125015258789
588;0.0;0.0;0.0;-0.35526400804519653;-0.260591983795166;1.156559944152832;0.0;0.0;0.0
590;0.0;0.0;0.0;-0.38942399621009827;-0.2879199981689453;1.1282559633255005;0.0;0.0;0.0
592;0.0;0.0;0.0;-0.34355199337005615;-0.24107199907302856;1.156559944152832;0.0;0.0;0.0
594;-0.4858039915561676;-0.13761599361896515;1.0313879251480103;-0.34355199337005615;-0.24887999892234802;1.1526559591293335;-9.594375610351562;-25.834375381469727;-13.081250190734863
596;0.0;0.0;0.0;-0.3396480083465576;-0.22935999929904938;1.1116639375686646;0.0;0.0;0.0
598;0.0;0.0;0.0;-0.3240320086479187;-0.2566879987716675;1.1448479890823364;0.0;0.0;0.0
600;0.0;0.0;0.0;-0.3084160089492798;-0.22935999929904938;1.1038559675216675;0.0;0.0;0.0
602;-0.452131986618042;-0.11248400062322617;1.0006439685821533;-0.30451199412345886;-0.22155199944972992;1.124351978302002;-3.434375047683716;-21.634374618530273;-15.111249923706055
605;0.0;0.0;0.0;-0.30451199412345886;-0.22155199944972992;1.083359956741333;0.0;0.0;0.0
607;0.0;0.0;0.0;-0.3123199939727783;-0.20983999967575073;1.0716480016708374;0.0;0.0;0.0
609;0.0;0.0;0.0;-0.30451199412345886;-0.24887999892234802;1.0716480016708374;0.0;0.0;0.0
611;-0.4147999882698059;-0.08247199654579163;0.9735599756240845;-0.2693759799003601;-0.2332639992237091;1.0716480016708374;3.145625114440918;-17.224374771118164;-14.061249732971191
613;0.0;0.0;0.0;-0.24692799150943756;-0.20983999967575073;1.0716480016708374;0.0;0.0;0.0
615;0.0;0.0;0.0;-0.2664479911327362;-0.18251200020313263;1.09116792678833;0.0;0.0;0.0
617;0.0;0.0;0.0;-0.26254400610923767;-0.17470400035381317;1.0921440124511719;0.0;0.0;0.0
619;-0.38893598318099976;-0.04879999905824661;0.962336003780365;-0.2664479911327362;-0.17470400035381317;1.075551986694336;9.445624351501465;-13.304375648498535;-9.7212495803833
622;0.0;0.0;0.0;-0.24302399158477783;-0.15518400073051453;1.099951982498169;0.0;0.0;0.0
624;0.0;0.0;0.0;-0.2117919921875;-0.14737600088119507;1.075551986694336;0.0;0.0;0.0
626;0.0;0.0;0.0;-0.21959999203681946;-0.14347200095653534;1.083359956741333;0.0;0.0;0.0
628;-0.3555079996585846;-0.009027999825775623;0.9616039991378784;-0.21959999203681946;-0.1395680010318756;1.0872639417648315;13.435625076293945;-10.64437484741211;-4.471250057220459
630;0.0;0.0;0.0;-0.16884799301624298;-0.1239520013332367;1.083359956741333;0.0;0.0;0.0
632;0.0;0.0;0.0;-0.16884799301624298;-0.13176000118255615;1.0872639417648315;0.0;0.0;0.0
634;0.0;0.0;0.0;-0.13761599361896515;-0.13176000118255615;1.0960479974746704;0.0;0.0;0.0
636;-0.2903600037097931;-0.0012199999764561653;0.9667279720306396;-0.115167997777462;-0.14737600088119507;1.1204479932785034;13.715624809265137;-8.124375343322754;0.7087500095367432
639;0.0;0.0;0.0;-0.14151999354362488;-0.14347200095653534;1.0794559717178345;0.0;0.0;0.0
641;0.0;0.0;0.0;-0.10345599800348282;-0.1512800008058548;1.099951982498169;0.0;0.0;0.0
643;0.0;0.0;0.0;-0.08393599838018417;-0.16299200057983398;1.0628639459609985;0.0;0.0;0.0
645;-0.23545999825000763;-0.014639999717473984;0.961359977722168;-0.0878399983048439;-0.14347200095653534;1.099951982498169;12.595624923706055;-6.444375038146973;5.46875
647;0.0;0.0;0.0;-0.07222399860620499;-0.17080000042915344;1.0550559759140015;0.0;0.0;0.0
649;0.0;0.0;0.0;-0.044895999133586884;-0.1668960005044937;1.0433440208435059;0.0;0.0;0.0
651;0.0;0.0;0.0;-0.0331839993596077;-0.15908800065517426;1.051151990890503;0.0;0.0;0.0
653;-0.17421600222587585;-0.028303999453783035;0.9413520097732544;-0.01756799966096878;-0.1668960005044937;1.051151990890503;12.315624237060547;-6.234375;8.478750228881836
656;0.0;0.0;0.0;0.029279999434947968;-0.1786080002784729;1.034559965133667;0.0;0.0;0.0
658;0.0;0.0;0.0;0.0331839993596077;-0.15908800065517426;1.034559965133667;0.0;0.0;0.0
660;0.0;0.0;0.0;0.06831999868154526;-0.17470400035381317;1.017967939376831;0.0;0.0;0.0
662;-0.08173999935388565;-0.04147999733686447;0.8986519575119019;0.10345599800348282;-0.1786080002784729;1.002351999282837;12.945624351501465;-5.184375286102295;9.738750457763672
664;0.0;0.0;0.0;0.09174399822950363;-0.19422399997711182;0.9896639585494995;0.0;0.0;0.0
666;0.0;0.0;0.0;0.11419199407100677;-0.16299200057983398;0.9740479588508606;0.0;0.0;0.0
668;0.0;0.0;0.0;0.1454239934682846;-0.17470400035381317;0.9730719923973083;0.0;0.0;0.0
670;0.003903999924659729;-0.040991999208927155;0.8696159720420837;0.18836799263954163;-0.16299200057983398;0.9779520034790039;14.485624313354492;-1.9643750190734863;10.648750305175781
673;0.0;0.0;0.0;0.16884799301624298;-0.17470400035381317;0.9535520076751709;0.0;0.0;0.0
675;0.0;0.0;0.0;0.18055999279022217;-0.14737600088119507;1.002351999282837;0.0;0.0;0.0
677;0.0;0.0;0.0;0.19227199256420135;-0.14347200095653534;0.9896639585494995;0.0;0.0;0.0
679;0.06295199692249298;-0.010735999792814255;0.8644919991493225;0.20398399233818054;-0.12004800140857697;1.0189440250396729;14.975625038146973;3.215625047683716;10.858750343322754
681;0.0;0.0;0.0;0.2117919921875;-0.11614400148391724;0.9984479546546936;0.0;0.0;0.0
683;0.0;0.0;0.0;0.23131199181079865;-0.1395680010318756;1.042367935180664;0.0;0.0;0.0
685;0.0;0.0;0.0;0.24692799150943756;-0.10833600163459778;1.02675199508667;0.0;0.0;0.0
687;0.10443200170993805;0.020495999604463577;0.8947479724884033;0.24302399158477783;-0.10052800178527832;1.02675199508667;13.015625;8.815625190734863;12.048749923706055
690;0.0;0.0;0.0;0.22740799188613892;-0.10833600163459778;1.0677440166473389;0.0;0.0;0.0
692;0.0;0.0;0.0;0.2547360062599182;-0.08881600201129913;1.066767930984497;0.0;0.0;0.0
694;0.0;0.0;0.0;0.21569599211215973;-0.13176000118255615;1.0794559717178345;0.0;0.0;0.0
696;0.11248400062322617;0.024156000465154648;0.9386679530143738;0.19227199256420135;-0.09272000193595886;1.083359956741333;8.325624465942383;11.965624809265137;15.128750801086426
698;0.0;0.0;0.0;0.2235039919614792;-0.10052800178527832;1.0872639417648315;0.0;0.0;0.0
700;0.0;0.0;0.0;0.2235039919614792;-0.10052800178527832;1.0921440124511719;0.0;0.0;0.0
702;0.0;0.0;0.0;0.2000799924135208;-0.13566400110721588;1.0921440124511719;0.0;0.0;0.0
704;0.1029679998755455;0.010003999806940556;0.9562360048294067;0.2547360062599182;-0.13566400110721588;1.0589599609375;1.8856250047683716;10.985625267028809;17.78874969482422
707;0.0;0.0;0.0;0.2547360062599182;-0.16299200057983398;1.042367935180664;0.0;0.0;0.0
709;0.0;0.0;0.0;0.26254400610923767;-0.18251200020313263;1.051151990890503;0.0;0.0;0.0
711;0.0;0.0;0.0;0.2781600058078766;-0.19812799990177155;1.0228480100631714;0.0;0.0;0.0
713;0.14859600365161896;-0.03611199930310249;0.9342759847640991;0.3054879903793335;-0.19812799990177155;1.034559965133667;-3.784374952316284;9.375624656677246;18.62874984741211
715;0.0;0.0;0.0;0.3211039900779724;-0.21374399960041046;1.0306559801101685;0.0;0.0;0.0
717;0.0;0.0;0.0;0.34062400460243225;-0.2332639992237091;1.0384639501571655;0.0;0.0;0.0
719;0.0;0.0;0.0;0.3328160047531128;-0.22935999929904938;1.042367935180664;0.0;0.0;0.0
721;0.2117919921875;-0.08222799748182297;0.9142679572105408;0.3640480041503906;-0.22545599937438965;1.034559965133667;-6.934374809265137;8.67562484741211;19.39875030517578
724;0.0;0.0;0.0;0.3718560039997101;-0.25278398394584656;1.017967939376831;0.0;0.0;0.0
726;0.0;0.0;0.0;0.3669759929180145;-0.2566879987716675;1.0384639501571655;0.0;0.0;0.0
728;0.0;0.0;0.0;0.39820799231529236;-0.24887999892234802;1.0140639543533325;0.0;0.0;0.0
730;0.25156399607658386;-0.11297199875116348;0.9047519564628601;0.37088000774383545;-0.24107199907302856;1.0384639501571655;-8.5443754196167;7.835624694824219;20.028749465942383
732;0.0;0.0;0.0;0.399183988571167;-0.22935999929904938;1.0140639543533325;0.0;0.0;0.0
734;0.0;0.0;0.0;0.42260798811912537;-0.26449599862098694;1.02675199508667;0.0;0.0;0.0
736;0.0;0.0;0.0;0.4382239878177643;-0.2449759989976883;0.9984479546546936;0.0;0.0;0.0
738;0.2879199981689453;-0.11565599590539932;0.8886479735374451;0.40699198842048645;-0.260591983795166;1.0189440250396729;-9.104375839233398;6.365624904632568;19.818748474121094
741;0.0;0.0;0.0;0.4538399875164032;-0.29182398319244385;1.002351999282837;0.0;0.0;0.0
743;0.0;0.0;0.0;0.43432000279426575;-0.24107199907302856;1.0140639543533325;0.0;0.0;0.0
745;0.0;0.0;0.0;0.4304159879684448;-0.2683999836444855;0.9779520034790039;0.0;0.0;0.0
747;0.32330000400543213;-0.1227319985628128;0.8857199549674988;0.4772639870643616;-0.2566879987716675;0.9945439696311951;-8.47437572479248;4.405624866485596;20.028749465942383
749;0.0;0.0;0.0;0.49190399050712585;-0.2840159833431244;1.0062559843063354;0.0;0.0;0.0
751;0.0;0.0;0.0;0.5153279900550842;-0.29182398319244385;1.010159969329834;0.0;0.0;0.0
753;0.0;0.0;0.0;0.5192319750785828;-0.2879199981689453;0.9779520034790039;0.0;0.0;0.0
755;0.3862519860267639;-0.14688800275325775;0.8708359599113464;0.5387519598007202;-0.30353599786758423;0.9818559885025024;-8.47437572479248;3.005625009536743;21.28874969482422
758;0.0;0.0;0.0;0.5738880038261414;-0.2996319830417633;0.9525759816169739;0.0;0.0;0.0
760;0.0;0.0;0.0;0.5816959738731384;-0.33476799726486206;0.961359977722168;0.0;0.0;0.0
762;0.0;0.0;0.0;0.6051200032234192;-0.3386719822883606;0.9252479672431946;0.0;0.0;0.0
764;0.4701879918575287;-0.18665999174118042;0.8213039636611938;0.6392799615859985;-0.3425759971141815;0.895967960357666;-6.304375171661377;4.475625038146973;20.728750228881836
766;0.0;0.0;0.0;0.6548959612846375;-0.37380799651145935;0.8920639753341675;0.0;0.0;0.0
768;0.0;0.0;0.0;0.6822239756584167;-0.350383996963501;0.888159990310669;0.0;0.0;0.0
770;0.0;0.0;0.0;0.6978399753570557;-0.3699039816856384;0.8803519606590271;0.0;0.0;0.0
773;0.5504639744758606;-0.2198439985513687;0.7705519795417786;0.7017439603805542;-0.3659999966621399;0.8842560052871704;-0.07437500357627869;11.055624961853027;18.278749465942383
775;0.0;0.0;0.0;0.7368800044059753;-0.37380799651145935;0.8637599945068359;0.0;0.0;0.0
777;0.0;0.0;0.0;0.7017439603805542;-0.3699039816856384;0.8764479756355286;0.0;0.0;0.0
779;0.0;0.0;0.0;0.7134559750556946;-0.34647998213768005;0.9086560010910034;0.0;0.0;0.0
781;0.589747965335846;-0.21203599870204926;0.7776280045509338;0.709551990032196;-0.33086398243904114;0.920367956161499;8.395624160766602;19.455625534057617;16.178749084472656
783;0.0;0.0;0.0;0.725167989730835;-0.33476799726486206;0.9408639669418335;0.0;0.0;0.0
785;0.0;0.0;0.0;0.709551990032196;-0.30353599786758423;0.9330559968948364;0.0;0.0;0.0
787;0.0;0.0;0.0;0.6861279606819153;-0.2879199981689453;0.9486719965934753;0.0;0.0;0.0
790;0.5843799710273743;-0.1786080002784729;0.8178879618644714;0.6705119609832764;-0.31915199756622314;0.9574559926986694;14.555624961853027;25.8956241607666;14.21875
792;0.0;0.0;0.0;0.6744160056114197;-0.3113439977169037;0.9408639669418335;0.0;0.0;0.0
794;0.0;0.0;0.0;0.6783199906349182;-0.2996319830417633;0.961359977722168;0.0;0.0;0.0
796;0.0;0.0;0.0;0.7173599600791931;-0.26449599862098694;0.9701439738273621;0.0;0.0;0.0
798;0.5702279806137085;-0.14786399900913239;0.8442400097846985;0.7017439603805542;-0.2840159833431244;0.9691680073738098;17.845624923706055;29.3956241607666;11.418750762939453
800;0.0;0.0;0.0;0.6744160056114197;-0.2683999836444855;0.9574559926986694;0.0;0.0;0.0
802;0.0;0.0;0.0;0.6939359903335571;-0.25278398394584656;1.0062559843063354;0.0;0.0;0.0
804;0.0;0.0;0.0;0.6900320053100586;-0.22545599937438965;0.9779520034790039;0.0;0.0;0.0
807;0.5719360113143921;-0.1163880005478859;0.8691279888153076;0.7134559750556946;-0.2332639992237091;0.9974719882011414;19.665624618530273;30.375625610351562;7.498749732971191
809;0.0;0.0;0.0;0.7368800044059753;-0.2566879987716675;1.0150399208068848;0.0;0.0;0.0
811;0.0;0.0;0.0;0.7212640047073364;-0.22935999929904938;1.0062559843063354;0.0;0.0;0.0
813;0.0;0.0;0.0;0.7173599600791931;-0.2176479995250702;1.0257760286331177;0.0;0.0;0.0
815;0.5943840146064758;-0.09393999725580215;0.8901119828224182;0.7603039741516113;-0.20983999967575073;1.034559965133667;19.315624237060547;30.515625;3.71875
817;0.0;0.0;0.0;0.725167989730835;-0.20983999967575073;1.0189440250396729;0.0;0.0;0.0
819;0.0;0.0;0.0;0.7173599600791931;-0.205935999751091;1.0394400358200073;0.0;0.0;0.0
821;0.0;0.0;0.0;0.7368800044059753;-0.19812799990177155;1.0433440208435059;0.0;0.0;0.0
824;0.5953599810600281;-0.07295599579811096;0.90938800573349;0.7368800044059753;-0.2176479995250702;1.0550559759140015;17.565624237060547;30.165624618530273;0.008749999105930328
826;0.0;0.0;0.0;0.6900320053100586;-0.1668960005044937;1.017967939376831;0.0;0.0;0.0
828;0.0;0.0;0.0;0.7290719747543335;-0.17080000042915344;1.0550559759140015;0.0;0.0;0.0
830;0.0;0.0;0.0;0.7173599600791931;-0.17080000042915344;1.0384639501571655;0.0;0.0;0.0
832;0.5982879996299744;-0.05075199902057648;0.928663969039917;0.732975959777832;-0.17470400035381317;1.051151990890503;14.905624389648438;27.92562484741211;-3.6312499046325684
834;0.0;0.0;0.0;0.7563999891281128;-0.18641600012779236;1.083359956741333;0.0;0.0;0.0
836;0.0;0.0;0.0;0.748591959476471;-0.17470400035381317;1.0628639459609985;0.0;0.0;0.0
838;0.0;0.0;0.0;0.7642079591751099;-0.18641600012779236;1.0794559717178345;0.0;0.0;0.0
841;0.6287879943847656;-0.03684400022029877;0.9364719986915588;0.7642079591751099;-0.17080000042915344;1.0716480016708374;11.61562442779541;25.755624771118164;-6.011250019073486
843;0.0;0.0;0.0;0.7642079591751099;-0.1512800008058548;1.0589599609375;0.0;0.0;0.0
845;0.0;0.0;0.0;0.7642079591751099;-0.15908800065517426;1.051151990890503;0.0;0.0;0.0
847;0.0;0.0;0.0;0.7563999891281128;-0.1512800008058548;1.0677440166473389;0.0;0.0;0.0
849;0.6434279680252075;-0.026839999482035637;0.932811975479126;0.7681120038032532;-0.17470400035381317;1.0472480058670044;8.395624160766602;25.475624084472656;-7.271250247955322
851;0.0;0.0;0.0;0.7603039741516113;-0.1395680010318756;1.0677440166473389;0.0;0.0;0.0
853;0.0;0.0;0.0;0.7603039741516113;-0.14737600088119507;1.075551986694336;0.0;0.0;0.0
855;0.0;0.0;0.0;0.725167989730835;-0.13566400110721588;1.066767930984497;0.0;0.0;0.0
858;0.6241520047187805;-0.016103999689221382;0.948915958404541;0.7368800044059753;-0.1512800008058548;1.1116639375686646;5.035624980926514;26.17562484741211;-7.831250190734863
860;0.0;0.0;0.0;0.7134559750556946;-0.16299200057983398;1.0794559717178345;0.0;0.0;0.0
862;0.0;0.0;0.0;0.732975959777832;-0.14737600088119507;1.099951982498169;0.0;0.0;0.0
864;0.0;0.0;0.0;0.7173599600791931;-0.1512800008058548;1.1116639375686646;0.0;0.0;0.0
866;0.586575984954834;-0.011467999778687954;0.9855159521102905;0.6861279606819153;-0.1239520013332367;1.1204479932785034;0.90562504529953;25.405624389648438;-7.551250457763672
868;0.0;0.0;0.0;0.6588000059127808;-0.15518400073051453;1.1448479890823364;0.0;0.0;0.0
870;0.0;0.0;0.0;0.6666079759597778;-0.16299200057983398;1.1360639333724976;0.0;0.0;0.0
872;0.0;0.0;0.0;0.6783199906349182;-0.16299200057983398;1.1643680334091187;0.0;0.0;0.0
875;0.5404599905014038;-0.03147599846124649;1.0260199308395386;0.6236639618873596;-0.1786080002784729;1.1770559549331665;-2.9443750381469727;22.67562484741211;-5.941250324249268
877;0.0;0.0;0.0;0.6158559918403625;-0.205935999751091;1.180959939956665;0.0;0.0;0.0
879;0.0;0.0;0.0;0.5934079885482788;-0.20203199982643127;1.1848639249801636;0.0;0.0;0.0
881;0.0;0.0;0.0;0.5973119735717773;-0.22545599937438965;1.1848639249801636;0.0;0.0;0.0
883;0.4909279942512512;-0.07417599856853485;1.056764006614685;0.5973119735717773;-0.22155199944972992;1.2092639207839966;-5.744375228881836;18.19562530517578;-3.141249895095825
885;0.0;0.0;0.0;0.6041439771652222;-0.2449759989976883;1.1887680292129517;0.0;0.0;0.0
887;0.0;0.0;0.0;0.5660799741744995;-0.25278398394584656;1.180959939956665;0.0;0.0;0.0
889;0.0;0.0;0.0;0.5660799741744995;-0.2723039984703064;1.1936479806900024;0.0;0.0;0.0
892;0.4579879939556122;-0.11907199770212173;1.0645719766616821;0.5582720041275024;-0.2840159833431244;1.1887680292129517;-6.444375038146973;12.10562515258789;-0.5512499809265137
894;0.0;0.0;0.0;0.569983959197998;-0.28011199831962585;1.1692479848861694;0.0;0.0;0.0
896;0.0;0.0;0.0;0.5856000185012817;-0.29182398319244385;1.1848639249801636;0.0;0.0;0.0
898;0.0;0.0;0.0;0.5895040035247803;-0.3152479827404022;1.1926720142364502;0.0;0.0;0.0
900;0.45237597823143005;-0.1483519971370697;1.0657919645309448;0.5777919888496399;-0.30743998289108276;1.1936479806900024;-5.814374923706055;6.505624771118164;1.058750033378601
902;0.0;0.0;0.0;0.569983959197998;-0.30646398663520813;1.2092639207839966;0.0;0.0;0.0
904;0.0;0.0;0.0;0.5816959738731384;-0.29475200176239014;1.197551965713501;0.0;0.0;0.0
906;0.0;0.0;0.0;0.5816959738731384;-0.32598400115966797;1.2092639207839966;0.0;0.0;0.0
909;0.4538399875164032;-0.16884799301624298;1.075551986694336;0.562175989151001;-0.32207998633384705;1.221951961517334;-6.444375038146973;1.9556249380111694;2.2487499713897705
911;0.0;0.0;0.0;0.5963360071182251;-0.32598400115966797;1.2092639207839966;0.0;0.0;0.0
913;0.0;0.0;0.0;0.5465599894523621;-0.3298879861831665;1.2092639207839966;0.0;0.0;0.0
915;0.0;0.0;0.0;0.5465599894523621;-0.3455039858818054;1.2258559465408325;0.0;0.0;0.0
917;0.43432000279426575;-0.183243989944458;1.0892159938812256;0.562175989151001;-0.32598400115966797;1.2131680250167847;-8.964375495910645;-2.3143749237060547;1.96875
919;0.0;0.0;0.0;0.5231360197067261;-0.3425759971141815;1.2180479764938354;0.0;0.0;0.0
921;0.0;0.0;0.0;0.5231360197067261;-0.3386719822883606;1.2092639207839966;0.0;0.0;0.0
923;0.0;0.0;0.0;0.5192319750785828;-0.3425759971141815;1.205359935760498;0.0;0.0;0.0
926;0.4060159921646118;-0.1978839933872223;1.0909240245819092;0.5153279900550842;-0.3386719822883606;1.2131680250167847;-12.604375839233398;-7.35437536239624;-0.27125000953674316
928;0.0;0.0;0.0;0.5231360197067261;-0.3425759971141815;1.2131680250167847;0.0;0.0;0.0
930;0.0;0.0;0.0;0.5153279900550842;-0.3113439977169037;1.205359935760498;0.0;0.0;0.0
932;0.0;0.0;0.0;0.5192319750785828;-0.37380799651145935;1.1936479806900024;0.0;0.0;0.0
934;0.39430397748947144;-0.21252399682998657;1.0794559717178345;0.5426560044288635;-0.350383996963501;1.1848639249801636;-16.03437614440918;-12.604374885559082;-3.421250104904175
936;0.0;0.0;0.0;0.5153279900550842;-0.35819199681282043;1.1848639249801636;0.0;0.0;0.0
938;0.0;0.0;0.0;0.5387519598007202;-0.3933279812335968;1.1526559591293335;0.0;0.0;0.0
940;0.0;0.0;0.0;0.5153279900550842;-0.38551998138427734;1.1604639291763306;0.0;0.0;0.0
943;0.3996720016002655;-0.2449759989976883;1.044808030128479;0.5192319750785828;-0.4089439809322357;1.1448479890823364;-18.484375;-15.404375076293945;-6.851250171661377
945;0.0;0.0;0.0;0.5036159753799438;-0.3972319960594177;1.1282559633255005;0.0;0.0;0.0
947;0.0;0.0;0.0;0.5075199604034424;-0.40113598108291626;1.124351978302002;0.0;0.0;0.0
949;0.0;0.0;0.0;0.472383975982666;-0.41284799575805664;1.1165440082550049;0.0;0.0;0.0
951;0.3794199824333191;-0.27083998918533325;1.0045479536056519;0.4958080053329468;-0.42846399545669556;1.0960479974746704;-18.274375915527344;-14.984375;-10.63124942779541
953;0.0;0.0;0.0;0.46457600593566895;-0.47921597957611084;1.066767930984497;0.0;0.0;0.0
955;0.0;0.0;0.0;0.4333440065383911;-0.3152479827404022;1.180959939956665;0.0;0.0;0.0
957;0.0;0.0;0.0;0.4450559914112091;-0.4089439809322357;1.1360639333724976;0.0;0.0;0.0
960;0.313539981842041;-0.2757200002670288;1.0003999471664429;0.4021120071411133;-0.44017598032951355;1.1116639375686646;-14.494375228881836;-13.724374771118164;-14.411250114440918
962;0.0;0.0;0.0;0.39820799231529236;-0.4167519807815552;1.1604639291763306;0.0;0.0;0.0
964;0.0;0.0;0.0;0.4138239920139313;-0.4206559956073761;1.132159948348999;0.0;0.0;0.0
966;0.0;0.0;0.0;0.38259199261665344;-0.3699039816856384;1.156559944152832;0.0;0.0;0.0
968;0.27035200595855713;-0.25571200251579285;1.0191879272460938;0.36795198917388916;-0.4050399959087372;1.148751974105835;-12.464375495910645;-13.584375381469727;-16.301250457763672
970;0.0;0.0;0.0;0.35916799306869507;-0.3806400001049042;1.1038559675216675;0.0;0.0;0.0
972;0.0;0.0;0.0;0.3328160047531128;-0.3533119857311249;1.1204479932785034;0.0;0.0;0.0
975;0.0;0.0;0.0;0.32500800490379333;-0.36502400040626526;1.1038559675216675;0.0;0.0;0.0
977;0.2083759903907776;-0.24643999338150024;0.9891759753227234;0.2937760055065155;-0.36111998558044434;1.0950720310211182;-8.614375114440918;-14.354374885559082;-14.9712495803833
979;0.0;0.0;0.0;0.3093920052051544;-0.3806400001049042;1.09116792678833;0.0;0.0;0.0
981;0.0;0.0;0.0;0.3093920052051544;-0.3728320002555847;1.1116639375686646;0.0;0.0;0.0
983;0.0;0.0;0.0;0.2898719906806946;-0.3962559998035431;1.099951982498169;0.0;0.0;0.0
985;0.16665199398994446;-0.240339994430542;0.9803919792175293;0.27425599098205566;-0.3845439851284027;1.099951982498169;-1.4743750095367432;-15.474374771118164;-15.041250228881836
987;0.0;0.0;0.0;0.2820639908313751;-0.350383996963501;1.1204479932785034;0.0;0.0;0.0
989;0.0;0.0;0.0;0.2664479911327362;-0.35819199681282043;1.1204479932785034;0.0;0.0;0.0
992;0.0;0.0;0.0;0.2781600058078766;-0.35819199681282043;1.1282559633255005;0.0;0.0;0.0
994;0.13663999736309052;-0.2181359976530075;0.9938119649887085;0.22740799188613892;-0.350383996963501;1.1282559633255005;3.565624952316284;-13.7943754196167;-14.13124942779541
996;0.0;0.0;0.0;0.1844639927148819;-0.31915199756622314;1.124351978302002;0.0;0.0;0.0
998;0.0;0.0;0.0;0.18055999279022217;-0.33086398243904114;1.124351978302002;0.0;0.0;0.0
1000;0.0;0.0;0.0;0.15323199331760406;-0.3386719822883606;1.1282559633255005;0.0;0.0;0.0
1002;0.07490799576044083;-0.1966639906167984;1.0001559257507324;0.14932799339294434;-0.3152479827404022;1.1165440082550049;6.785624980926514;-10.714375495910645;-12.94124984741211
1004;0.0;0.0;0.0;0.12590399384498596;-0.3025600016117096;1.139967918395996;0.0;0.0;0.0
1006;0.0;0.0;0.0;0.1180959939956665;-0.29865598678588867;1.107759952545166;0.0;0.0;0.0
1008;0.0;0.0;0.0;0.11028799414634705;-0.3025600016117096;1.115567922592163;0.0;0.0;0.0
1011;0.008051999844610691;-0.17812000215053558;1.0003999471664429;0.08003199845552444;-0.29865598678588867;1.1038559675216675;10.77562427520752;-9.38437557220459;-12.801249504089355
1013;0.0;0.0;0.0;0.07612799853086472;-0.30646398663520813;1.139967918395996;0.0;0.0;0.0
1015;0.0;0.0;0.0;0.07612799853086472;-0.25571200251579285;1.1360639333724976;0.0;0.0;0.0
1017;0.0;0.0;0.0;0.044895999133586884;-0.2791360020637512;1.139967918395996;0.0;0.0;0.0
1019;-0.05392399802803993;-0.1500599980354309;1.0118680000305176;0.05270399898290634;-0.2791360020637512;1.156559944152832;15.045624732971191;-9.104374885559082;-12.451250076293945
1021;0.0;0.0;0.0;0.009759999811649323;-0.24887999892234802;1.1692479848861694;0.0;0.0;0.0
1023;0.0;0.0;0.0;0.0019519999623298645;-0.22935999929904938;1.180959939956665;0.0;0.0;0.0
1026;0.0;0.0;0.0;-0.02147199958562851;-0.2176479995250702;1.1887680292129517;0.0;0.0;0.0
1028;-0.12151199579238892;-0.09418399631977081;1.0384639501571655;-0.040991999208927155;-0.21374399960041046;1.1848639249801636;18.05562400817871;-11.554375648498535;-10.841249465942383
1030;0.0;0.0;0.0;-0.07612799853086472;-0.19812799990177155;1.1887680292129517;0.0;0.0;0.0
1032;0.0;0.0;0.0;-0.05660799890756607;-0.14737600088119507;1.1770559549331665;0.0;0.0;0.0
1034;0.0;0.0;0.0;-0.08393599838018417;-0.17080000042915344;1.148751974105835;0.0;0.0;0.0
1036;-0.18422000110149384;-0.04294399917125702;1.0545679330825806;-0.0878399983048439;-0.16299200057983398;1.1770559549331665;16.58562469482422;-16.1043758392334;-9.301249504089355
1038;0.0;0.0;0.0;-0.08393599838018417;-0.14737600088119507;1.1770559549331665;0.0;0.0;0.0
1040;0.0;0.0;0.0;-0.10735999792814255;-0.13566400110721588;1.2092639207839966;0.0;0.0;0.0
1043;0.0;0.0;0.0;-0.06831999868154526;-0.1512800008058548;1.180959939956665;0.0;0.0;0.0
1045;-0.21593999862670898;-0.01268799975514412;1.0599359273910522;-0.08393599838018417;-0.13566400110721588;1.1887680292129517;10.77562427520752;-20.16437530517578;-8.461249351501465
1047;0.0;0.0;0.0;-0.09564799815416336;-0.13566400110721588;1.1936479806900024;0.0;0.0;0.0
1049;0.0;0.0;0.0;-0.10735999792814255;-0.12785600125789642;1.1887680292129517;0.0;0.0;0.0
1051;0.0;0.0;0.0;-0.115167997777462;-0.15518400073051453;1.1887680292129517;0.0;0.0;0.0
1053;-0.23765599727630615;-0.0026839999482035637;1.065060019493103;-0.115167997777462;-0.1512800008058548;1.180959939956665;0.9756250381469727;-23.174375534057617;-8.251249313354492
1055;0.0;0.0;0.0;-0.14640000462532043;-0.10833600163459778;1.2014559507369995;0.0;0.0;0.0
1057;0.0;0.0;0.0;-0.11907199770212173;-0.1512800008058548;1.180959939956665;0.0;0.0;0.0
1060;0.0;0.0;0.0;-0.13468798995018005;-0.15518400073051453;1.1770559549331665;0.0;0.0;0.0
1062;-0.2564440071582794;-0.020495999604463577;1.0596920251846313;-0.13761599361896515;-0.16299200057983398;1.1604639291763306;-10.434375762939453;-25.55437469482422;-8.88124942779541
1064;0.0;0.0;0.0;-0.14151999354362488;-0.1903200000524521;1.156559944152832;0.0;0.0;0.0
1066;0.0;0.0;0.0;-0.13078400492668152;-0.17470400035381317;1.139967918395996;0.0;0.0;0.0
1068;0.0;0.0;0.0;-0.12199999392032623;-0.19812799990177155;1.1360639333724976;0.0;0.0;0.0
1070;-0.2437559962272644;-0.05685199797153473;1.0289479494094849;-0.10345599800348282;-0.2176479995250702;1.1360639333724976;-20.16437530517578;-27.094375610351562;-9.651249885559082
1072;0.0;0.0;0.0;-0.09564799815416336;-0.2205759882926941;1.139967918395996;0.0;0.0;0.0
1074;0.0;0.0;0.0;-0.09174399822950363;-0.2479040026664734;1.139967918395996;0.0;0.0;0.0
1077;0.0;0.0;0.0;-0.09955199807882309;-0.2596159875392914;1.107759952545166;0.0;0.0;0.0
1079;-0.22935999929904938;-0.10858000069856644;1.010159969329834;-0.11907199770212173;-0.25571200251579285;1.1116639375686646;-27.024375915527344;-24.224374771118164;-9.44124984741211
1081;0.0;0.0;0.0;-0.13371199369430542;-0.26742398738861084;1.1038559675216675;0.0;0.0;0.0
1083;0.0;0.0;0.0;-0.13078400492668152;-0.2908479869365692;1.107759952545166;0.0;0.0;0.0
1085;0.0;0.0;0.0;-0.16494399309158325;-0.3025600016117096;1.0872639417648315;0.0;0.0;0.0
1087;-0.2622999846935272;-0.15640400350093842;0.9869799613952637;-0.13078400492668152;-0.3025600016117096;1.1038559675216675;-29.474374771118164;-19.32437515258789;-9.7212495803833
1089;0.0;0.0;0.0;-0.16103999316692352;-0.30646398663520813;1.0960479974746704;0.0;0.0;0.0
1091;0.0;0.0;0.0;-0.1844639927148819;-0.3416000008583069;1.0794559717178345;0.0;0.0;0.0
1094;0.0;0.0;0.0;-0.19617599248886108;-0.36502400040626526;1.0960479974746704;0.0;0.0;0.0
1096;-0.2989000082015991;-0.1995919942855835;0.974291980266571;-0.18055999279022217;-0.36111998558044434;1.099951982498169;-26.814374923706055;-13.7943754196167;-11.821249961853027
1098;0.0;0.0;0.0;-0.20398399233818054;-0.3455039858818054;1.0794559717178345;0.0;0.0;0.0
1100;0.0;0.0;0.0;-0.19227199256420135;-0.3728320002555847;1.09116792678833;0.0;0.0;0.0
1102;0.0;0.0;0.0;-0.18836799263954163;-0.36111998558044434;1.099951982498169;0.0;0.0;0.0
1104;-0.32964399456977844;-0.2281399965286255;0.9696559906005859;-0.23521599173545837;-0.38844799995422363;1.0872639417648315;-20.234375;-7.774374961853027;-14.411250114440918
1106;0.0;0.0;0.0;-0.21959999203681946;-0.3542879819869995;1.0921440124511719;0.0;0.0;0.0
1108;0.0;0.0;0.0;-0.26254400610923767;-0.37380799651145935;1.1038559675216675;0.0;0.0;0.0
1111;0.0;0.0;0.0;-0.25863999128341675;-0.3659999966621399;1.124351978302002;0.0;0.0;0.0
1113;-0.3816159963607788;-0.2327760010957718;0.9789279699325562;-0.2937760055065155;-0.40113598108291626;1.1165440082550049;-11.484375953674316;-1.824375033378601;-15.671249389648438
1115;0.0;0.0;0.0;-0.31329599022865295;-0.3699039816856384;1.107759952545166;0.0;0.0;0.0
1117;0.0;0.0;0.0;-0.32500800490379333;-0.37380799651145935;1.124351978302002;0.0;0.0;0.0
1119;0.0;0.0;0.0;-0.3640480041503906;-0.35819199681282043;1.132159948348999;0.0;0.0;0.0
1121;-0.46286800503730774;-0.2147199958562851;0.9925919771194458;-0.3601439893245697;-0.33086398243904114;1.1116639375686646;-1.9643750190734863;2.1656250953674316;-16.301250457763672
1123;0.0;0.0;0.0;-0.3835679888725281;-0.3416000008583069;1.115567922592163;0.0;0.0;0.0
1125;0.0;0.0;0.0;-0.42553597688674927;-0.3142719864845276;1.156559944152832;0.0;0.0;0.0
1128;0.0;0.0;0.0;-0.43724799156188965;-0.2518079876899719;1.2014559507369995;0.0;0.0;0.0
1130;-0.5319200158119202;-0.16494399309158325;1.0316319465637207;-0.4138239920139313;-0.2869440019130707;1.173151969909668;6.645625114440918;3.845625162124634;-17.981250762939453
1132;0.0;0.0;0.0;-0.42553597688674927;-0.24009600281715393;1.197551965713501;0.0;0.0;0.0
1134;0.0;0.0;0.0;-0.48799997568130493;-0.2596159875392914;1.205359935760498;0.0;0.0;0.0
1136;0.0;0.0;0.0;-0.48799997568130493;-0.21667200326919556;1.1926720142364502;0.0;0.0;0.0
1138;-0.603655993938446;-0.10052800178527832;1.0787240266799927;-0.5036159753799438;-0.21667200326919556;1.2131680250167847;10.7056245803833;2.7256250381469727;-20.571250915527344
1141;0.0;0.0;0.0;-0.4997119903564453;-0.1698240041732788;1.197551965713501;0.0;0.0;0.0
1142;0.0;0.0;0.0;-0.5153279900550842;-0.17372798919677734;1.2131680250167847;0.0;0.0;0.0
1145;0.0;0.0;0.0;-0.4840959906578064;-0.15811198949813843;1.2131680250167847;0.0;0.0;0.0
1147;-0.6307399868965149;-0.03903999924659729;1.091655969619751;-0.5036159753799438;-0.1542080044746399;1.2131680250167847;10.355624198913574;-0.7743749618530273;-25.891250610351562
1149;0.0;0.0;0.0;-0.48019200563430786;-0.15811198949813843;1.2092639207839966;0.0;0.0;0.0
1151;0.0;0.0;0.0;-0.46457600593566895;-0.11907199770212173;1.221951961517334;0.0;0.0;0.0
1153;0.0;0.0;0.0;-0.44896000623703003;-0.115167997777462;1.2092639207839966;0.0;0.0;0.0
1155;-0.5970680117607117;0.013907999731600285;1.0884839296340942;-0.45286399126052856;-0.09174399822950363;1.2092639207839966;7.205625057220459;-3.994374990463257;-30.161251068115234
1158;0.0;0.0;0.0;-0.42163199186325073;-0.08100800216197968;1.1926720142364502;0.0;0.0;0.0
1159;0.0;0.0;0.0;-0.44896000623703003;-0.07710400223731995;1.1604639291763306;0.0;0.0;0.0
1162;0.0;0.0;0.0;-0.399183988571167;-0.08881600201129913;1.1682720184326172;0.0;0.0;0.0
1164;-0.5472919940948486;0.06319599598646164;1.0555440187454224;-0.4060159921646118;-0.06539200246334076;1.156559944152832;3.8456249237060547;-6.164375305175781;-31.28125
1166;0.0;0.0;0.0;-0.3640480041503906;-0.04196799919009209;1.148751974105835;0.0;0.0;0.0
1168;0.0;0.0;0.0;-0.37966400384902954;-0.0302559994161129;1.1448479890823364;0.0;0.0;0.0
1170;0.0;0.0;0.0;-0.36795198917388916;-0.018543999642133713;1.132159948348999;0.0;0.0;0.0
1172;-0.5014199614524841;0.10247999429702759;1.0177240371704102;-0.35233598947525024;-0.014639999717473984;1.1282559633255005;2.0956249237060547;-7.074375152587891;-30.021251678466797
1174;0.0;0.0;0.0;-0.34062400460243225;0.0009759999811649323;1.1165440082550049;0.0;0.0;0.0
1176;0.0;0.0;0.0;-0.33671998977661133;-0.022447999566793442;1.124351978302002;0.0;0.0;0.0
1179;0.0;0.0;0.0;-0.32891198992729187;0.024399999529123306;1.1360639333724976;0.0;0.0;0.0
1181;-0.46116000413894653;0.13395600020885468;1.0006439685821533;-0.3211039900779724;-0.006831999868154526;1.1282559633255005;0.6956250071525574;-6.234375;-27.1512508392334
1183;0.0;0.0;0.0;-0.28596800565719604;-0.022447999566793442;1.1116639375686646;0.0;0.0;0.0
1185;0.0;0.0;0.0;-0.2937760055065155;0.028303999453783035;1.0960479974746704;0.0;0.0;0.0
1187;0.0;0.0;0.0;-0.27425599098205566;-0.057583998888731;1.0872639417648315;0.0;0.0;0.0
1189;-0.43383198976516724;0.13566400110721588;0.9745360016822815;-0.3211039900779724;-0.0029279999434947968;1.0716480016708374;-0.4243750274181366;-4.134375095367432;-21.62125015258789
1191;0.0;0.0;0.0;-0.2781600058078766;-0.01756799966096878;1.0794559717178345;0.0;0.0;0.0
1193;0.0;0.0;0.0;-0.2820639908313751;-0.04879999905824661;1.0706720352172852;0.0;0.0;0.0
1196;0.0;0.0;0.0;-0.30158400535583496;-0.02537599951028824;1.0872639417648315;0.0;0.0;0.0
1198;-0.4025999903678894;0.10833600163459778;0.9652639627456665;-0.2664479911327362;-0.0605119988322258;1.0589599609375;0.4856249988079071;-1.8943750858306885;-13.711249351501465
1200;0.0;0.0;0.0;-0.27035200595855713;-0.0331839993596077;1.0872639417648315;0.0;0.0;0.0
1202;0.0;0.0;0.0;-0.23131199181079865;-0.04879999905824661;1.099951982498169;0.0;0.0;0.0
1204;0.0;0.0;0.0;-0.21569599211215973;-0.0331839993596077;1.083359956741333;0.0;0.0;0.0
1206;-0.36746400594711304;0.08003199845552444;0.9706319570541382;-0.24692799150943756;-0.07222399860620499;1.09116792678833;1.0456249713897705;0.34562501311302185;-4.8212504386901855
1208;0.0;0.0;0.0;-0.2000799924135208;-0.05270399898290634;1.1038559675216675;0.0;0.0;0.0
1211;0.0;0.0;0.0;-0.19617599248886108;-0.08393599838018417;1.115567922592163;0.0;0.0;0.0
1213;0.0;0.0;0.0;-0.20398399233818054;-0.10345599800348282;1.0794559717178345;0.0;0.0;0.0
1215;-0.33086398243904114;0.05441199988126755;0.9637999534606934;-0.2117919921875;-0.09174399822950363;1.0872639417648315;0.4156250059604645;1.7456250190734863;2.598750114440918
1217;0.0;0.0;0.0;-0.18055999279022217;-0.11126399785280228;1.0462720394134521;0.0;0.0;0.0
1219;0.0;0.0;0.0;-0.20788799226284027;-0.115167997777462;1.075551986694336;0.0;0.0;0.0
1221;0.0;0.0;0.0;-0.16884799301624298;-0.13859200477600098;1.017967939376831;0.0;0.0;0.0
1223;-0.30573198199272156;0.008295999839901924;0.9284200072288513;-0.16884799301624298;-0.15030398964881897;1.034559965133667;1.6756250858306885;2.3056252002716064;6.588749885559082
1226;0.0;0.0;0.0;-0.16494399309158325;-0.16591998934745789;1.017967939376831;0.0;0.0;0.0
1228;0.0;0.0;0.0;-0.13468798995018005;-0.1815359890460968;1.010159969329834;0.0;0.0;0.0
1230;0.0;0.0;0.0;-0.14932799339294434;-0.17372798919677734;0.9974719882011414;0.0;0.0;0.0
1232;-0.27669599652290344;-0.037087999284267426;0.8993839621543884;-0.10345599800348282;-0.17763200402259827;1.0140639543533325;5.175624847412109;3.3556251525878906;7.008749961853027
1234;0.0;0.0;0.0;-0.13078400492668152;-0.20105600357055664;0.9935680031776428;0.0;0.0;0.0
1236;0.0;0.0;0.0;-0.115167997777462;-0.19324800372123718;0.9935680031776428;0.0;0.0;0.0
1238;0.0;0.0;0.0;-0.09174399822950363;-0.19715198874473572;0.9808799624443054;0.0;0.0;0.0
1240;-0.24131599068641663;-0.06465999782085419;0.8837679624557495;-0.09564799815416336;-0.19324800372123718;0.9974719882011414;8.325624465942383;6.015625;6.028749942779541
1243;0.0;0.0;0.0;-0.0878399983048439;-0.20105600357055664;1.010159969329834;0.0;0.0;0.0
1245;0.0;0.0;0.0;-0.08393599838018417;-0.20105600357055664;0.9974719882011414;0.0;0.0;0.0
1247;0.0;0.0;0.0;-0.05270399898290634;-0.19715198874473572;1.0140639543533325;0.0;0.0;0.0
1249;-0.19178399443626404;-0.0605119988322258;0.8913319706916809;-0.044895999133586884;-0.18934398889541626;1.0218719244003296;9.86562442779541;8.325624465942383;4.978749752044678
1251;0.0;0.0;0.0;-0.01756799966096878;-0.18934398889541626;1.0306559801101685;0.0;0.0;0.0
1253;0.0;0.0;0.0;-0.04879999905824661;-0.1698240041732788;1.0218719244003296;0.0;0.0;0.0
1255;0.0;0.0;0.0;0.013663999736309052;-0.16201600432395935;1.0462720394134521;0.0;0.0;0.0
1257;-0.14859600365161896;-0.035868000239133835;0.9118279814720154;0.009759999811649323;-0.1698240041732788;1.0589599609375;8.745624542236328;9.585624694824219;5.118749618530273
1260;0.0;0.0;0.0;-0.0019519999623298645;-0.17470400035381317;1.0472480058670044;0.0;0.0;0.0
1262;0.0;0.0;0.0;0.02537599951028824;-0.16299200057983398;1.051151990890503;0.0;0.0;0.0
1264;0.0;0.0;0.0;0.02537599951028824;-0.15518400073051453;1.0550559759140015;0.0;0.0;0.0
1266;-0.11199599504470825;-0.01878799870610237;0.9374479651451111;0.01756799966096878;-0.14737600088119507;1.0550559759140015;4.125625133514404;9.515625;6.448750019073486
1268;0.0;0.0;0.0;0.037087999284267426;-0.15518400073051453;1.0960479974746704;0.0;0.0;0.0
1270;0.0;0.0;0.0;0.02537599951028824;-0.15518400073051453;1.083359956741333;0.0;0.0;0.0
1272;0.0;0.0;0.0;0.0605119988322258;-0.17080000042915344;1.0794559717178345;0.0;0.0;0.0
1274;-0.07954400032758713;-0.02513200044631958;0.9594079852104187;0.0605119988322258;-0.15908800065517426;1.1204479932785034;-3.1543750762939453;8.67562484741211;8.688750267028809
1276;0.0;0.0;0.0;0.06831999868154526;-0.20105600357055664;1.09116792678833;0.0;0.0;0.0
1279;0.0;0.0;0.0;0.08003199845552444;-0.16201600432395935;1.09116792678833;0.0;0.0;0.0
1281;0.0;0.0;0.0;0.10638399422168732;-0.19715198874473572;1.0950720310211182;0.0;0.0;0.0
1283;-0.039772000163793564;-0.048312000930309296;0.9730719923973083;0.09857599437236786;-0.21276798844337463;1.107759952545166;-10.924375534057617;7.275624752044678;10.088749885559082
1285;0.0;0.0;0.0;0.1298079937696457;-0.2088640034198761;1.083359956741333;0.0;0.0;0.0
1287;0.0;0.0;0.0;0.12590399384498596;-0.18934398889541626;1.09116792678833;0.0;0.0;0.0
1289;0.0;0.0;0.0;0.15323199331760406;-0.22838398814201355;1.075551986694336;0.0;0.0;0.0
1291;0.009271999821066856;-0.08442399650812149;0.9681919813156128;0.19617599248886108;-0.2479040026664734;1.0706720352172852;-17.014375686645508;7.065624713897705;10.228750228881836
1294;0.0;0.0;0.0;0.14932799339294434;-0.2449759989976883;1.0677440166473389;0.0;0.0;0.0
1296;0.0;0.0;0.0;0.1844639927148819;-0.24107199907302856;1.083359956741333;0.0;0.0;0.0
1298;0.0;0.0;0.0;0.2000799924135208;-0.28011199831962585;1.0921440124511719;0.0;0.0;0.0
1300;0.05026400089263916;-0.11907199770212173;0.957211971282959;0.1727519929409027;-0.28011199831962585;1.0716480016708374;-20.514375686645508;7.48562479019165;11.2787504196167
1302;0.0;0.0;0.0;0.1727519929409027;-0.2879199981689453;1.083359956741333;0.0;0.0;0.0
1304;0.0;0.0;0.0;0.1727519929409027;-0.2879199981689453;1.0716480016708374;0.0;0.0;0.0
1306;0.0;0.0;0.0;0.1727519929409027;-0.26449599862098694;1.0794559717178345;0.0;0.0;0.0
1308;0.05807200074195862;-0.14518000185489655;0.9579439759254456;0.18055999279022217;-0.2683999836444855;1.0794559717178345;-21.14437484741211;6.645625114440918;13.30875015258789
1311;0.0;0.0;0.0;0.16103999316692352;-0.29182398319244385;1.0794559717178345;0.0;0.0;0.0
1313;0.0;0.0;0.0;0.2000799924135208;-0.28011199831962585;1.075551986694336;0.0;0.0;0.0
1315;0.0;0.0;0.0;0.19617599248886108;-0.2996319830417633;1.0589599609375;0.0;0.0;0.0
1317;0.07466399669647217;-0.16323599219322205;0.9435479640960693;0.21959999203681946;-0.31915199756622314;1.0589599609375;-19.744375228881836;3.9856250286102295;15.408750534057617
1319;0.0;0.0;0.0;0.24302399158477783;-0.29572799801826477;1.0433440208435059;0.0;0.0;0.0
1321;0.0;0.0;0.0;0.24302399158477783;-0.30743998289108276;1.0628639459609985;0.0;0.0;0.0
1323;0.0;0.0;0.0;0.27425599098205566;-0.33086398243904114;1.0433440208435059;0.0;0.0;0.0
1325;0.12663599848747253;-0.17323999106884003;0.9293959736824036;0.29767999053001404;-0.3113439977169037;1.0472480058670044;-17.71437644958496;2.025624990463257;17.998748779296875
1328;0.0;0.0;0.0;0.2820639908313751;-0.3269599974155426;1.02675199508667;0.0;0.0;0.0
1330;0.0;0.0;0.0;0.3172000050544739;-0.3230559825897217;1.051151990890503;0.0;0.0;0.0
1332;0.0;0.0;0.0;0.3328160047531128;-0.33086398243904114;1.034559965133667;0.0;0.0;0.0
1334;0.1937360018491745;-0.18836799263954163;0.9232959747314453;0.3445279896259308;-0.3386719822883606;1.0384639501571655;-16.594375610351562;2.515625;20.448749542236328
1336;0.0;0.0;0.0;0.3601439893245697;-0.33086398243904114;1.0472480058670044;0.0;0.0;0.0
1338;0.0;0.0;0.0;0.3669759929180145;-0.35819199681282043;1.0228480100631714;0.0;0.0;0.0
1340;0.0;0.0;0.0;0.3903999924659729;-0.3699039816856384;1.02675199508667;0.0;0.0;0.0
1342;0.2547360062599182;-0.22326000034809113;0.9169519543647766;0.4138239920139313;-0.3816159963607788;1.0306559801101685;-15.614375114440918;5.175624847412109;22.198749542236328
1345;0.0;0.0;0.0;0.4138239920139313;-0.3962559998035431;1.034559965133667;0.0;0.0;0.0
1347;0.0;0.0;0.0;0.42553597688674927;-0.3845439851284027;1.034559965133667;0.0;0.0;0.0
1349;0.0;0.0;0.0;0.42163199186325073;-0.3845439851284027;1.0628639459609985;0.0;0.0;0.0
1351;0.29231199622154236;-0.26205599308013916;0.9279319643974304;0.4333440065383911;-0.40406399965286255;1.0462720394134521;-13.654375076293945;9.095624923706055;22.338748931884766
1353;0.0;0.0;0.0;0.4411519765853882;-0.4352959990501404;1.066767930984497;0.0;0.0;0.0
1355;0.0;0.0;0.0;0.4450559914112091;-0.4470079839229584;1.0628639459609985;0.0;0.0;0.0
1357;0.0;0.0;0.0;0.45286399126052856;-0.4470079839229584;1.0462720394134521;0.0;0.0;0.0
1359;0.3152479827404022;-0.30402398109436035;0.9437919855117798;0.4333440065383911;-0.4665279984474182;1.0589599609375;-10.854375839233398;13.365625381469727;19.46875
1362;0.0;0.0;0.0;0.45286399126052856;-0.4753119945526123;1.051151990890503;0.0;0.0;0.0
1364;0.0;0.0;0.0;0.4840959906578064;-0.4909279942512512;1.0589599609375;0.0;0.0;0.0
1366;0.0;0.0;0.0;0.472383975982666;-0.5026400089263916;1.075551986694336;0.0;0.0;0.0
1368;0.34599199891090393;-0.3484320044517517;0.9506239891052246;0.43724799156188965;-0.48311999440193176;1.0921440124511719;-5.044374942779541;17.705625534057617;14.148750305175781
1370;0.0;0.0;0.0;0.460671991109848;-0.4635999798774719;1.0872639417648315;0.0;0.0;0.0
1372;0.0;0.0;0.0;0.46457600593566895;-0.4753119945526123;1.107759952545166;0.0;0.0;0.0
1374;0.0;0.0;0.0;0.45286399126052856;-0.44017598032951355;1.1038559675216675;0.0;0.0;0.0
1376;0.3340359926223755;-0.3333039879798889;0.9882000088691711;0.45286399126052856;-0.436271995306015;1.132159948348999;3.4956250190734863;20.435625076293945;6.588749885559082
1379;0.0;0.0;0.0;0.4567679762840271;-0.423583984375;1.1448479890823364;0.0;0.0;0.0
1381;0.0;0.0;0.0;0.45286399126052856;-0.37673598527908325;1.1526559591293335;0.0;0.0;0.0
1383;0.0;0.0;0.0;0.48019200563430786;-0.3689279854297638;1.1360639333724976;0.0;0.0;0.0
1385;0.3425759971141815;-0.25742000341415405;1.0250439643859863;0.4958080053329468;-0.3416000008583069;1.156559944152832;9.86562442779541;19.525625228881836;-1.4612499475479126
1387;0.0;0.0;0.0;0.4958080053329468;-0.3455039858818054;1.1448479890823364;0.0;0.0;0.0
1389;0.0;0.0;0.0;0.49190399050712585;-0.3416000008583069;1.1526559591293335;0.0;0.0;0.0
1391;0.0;0.0;0.0;0.5036159753799438;-0.31036800146102905;1.1360639333724976;0.0;0.0;0.0
1393;0.37502798438072205;-0.1937360018491745;1.0074759721755981;0.5192319750785828;-0.31036800146102905;1.0872639417648315;13.155624389648438;18.125625610351562;-8.741250038146973
1396;0.0;0.0;0.0;0.5192319750785828;-0.2791360020637512;1.09116792678833;0.0;0.0;0.0
1398;0.0;0.0;0.0;0.5426560044288635;-0.2752319872379303;1.083359956741333;0.0;0.0;0.0
1400;0.0;0.0;0.0;0.5348479747772217;-0.22838398814201355;1.0872639417648315;0.0;0.0;0.0
1402;0.40943199396133423;-0.1315159946680069;0.9789279699325562;0.5660799741744995;-0.236191987991333;1.0872639417648315;16.235624313354492;16.095624923706055;-14.551249504089355
1404;0.0;0.0;0.0;0.569983959197998;-0.236191987991333;1.099951982498169;0.0;0.0;0.0
1406;0.0;0.0;0.0;0.5738880038261414;-0.19715198874473572;1.0794559717178345;0.0;0.0;0.0
1408;0.0;0.0;0.0;0.5543680191040039;-0.19324800372123718;1.09116792678833;0.0;0.0;0.0
1410;0.4496919810771942;-0.06319599598646164;0.9852719902992249;0.5895040035247803;-0.18544000387191772;1.115567922592163;16.37562370300293;15.325624465942383;-18.471250534057617
1413;0.0;0.0;0.0;0.5856000185012817;-0.17372798919677734;1.1038559675216675;0.0;0.0;0.0
1415;0.0;0.0;0.0;0.611952006816864;-0.1542080044746399;1.1038559675216675;0.0;0.0;0.0
1417;0.0;0.0;0.0;0.611952006816864;-0.11907199770212173;1.115567922592163;0.0;0.0;0.0
1419;0.4840959906578064;-0.00024399999529123306;0.9891759753227234;0.6470879912376404;-0.08003199845552444;1.1038559675216675;11.965624809265137;14.835624694824219;-18.96125030517578
1421;0.0;0.0;0.0;0.6314719915390015;-0.09174399822950363;1.0960479974746704;0.0;0.0;0.0
1423;0.0;0.0;0.0;0.6431840062141418;-0.09174399822950363;1.107759952545166;0.0;0.0;0.0
1425;0.0;0.0;0.0;0.6509919762611389;-0.10345599800348282;1.115567922592163;0.0;0.0;0.0
1427;0.5219159722328186;0.03537999838590622;0.9906399846076965;0.6588000059127808;-0.08393599838018417;1.1282559633255005;5.525625228881836;15.115625381469727;-15.811249732971191
1430;0.0;0.0;0.0;0.6588000059127808;-0.09564799815416336;1.132159948348999;0.0;0.0;0.0
1432;0.0;0.0;0.0;0.6470879912376404;-0.09955199807882309;1.140944004058838;0.0;0.0;0.0
1434;0.0;0.0;0.0;0.6744160056114197;-0.11126399785280228;1.1526559591293335;0.0;0.0;0.0
1436;0.5358240008354187;0.04147999733686447;1.0125999450683594;0.6705119609832764;-0.0878399983048439;1.1282559633255005;-0.8443750143051147;15.745624542236328;-10.351249694824219
1438;0.0;0.0;0.0;0.6666079759597778;-0.13859200477600098;1.1770559549331665;0.0;0.0;0.0
1440;0.0;0.0;0.0;0.6509919762611389;-0.14640000462532043;1.180959939956665;0.0;0.0;0.0
1442;0.0;0.0;0.0;0.6548959612846375;-0.14640000462532043;1.1526559591293335;0.0;0.0;0.0
1444;0.5333839654922485;0.004635999910533428;1.035048007965088;0.6705119609832764;-0.16591998934745789;1.1604639291763306;-6.234375;15.465624809265137;-5.171250343322754
1447;0.0;0.0;0.0;0.6431840062141418;-0.16591998934745789;1.156559944152832;0.0;0.0;0.0
1449;0.0;0.0;0.0;0.6275680065155029;-0.1815359890460968;1.1604639291763306;0.0;0.0;0.0
1451;0.0;0.0;0.0;0.6509919762611389;-0.20495998859405518;1.1692479848861694;0.0;0.0;0.0
1453;0.5131319761276245;-0.04660400003194809;1.0374879837036133;0.6012159585952759;-0.18544000387191772;1.1643680334091187;-8.684375762939453;13.575624465942383;-3.0012500286102295
1455;0.0;0.0;0.0;0.6236639618873596;-0.20495998859405518;1.148751974105835;0.0;0.0;0.0
1457;0.0;0.0;0.0;0.6275680065155029;-0.2205759882926941;1.1770559549331665;0.0;0.0;0.0
1459;0.0;0.0;0.0;0.611952006816864;-0.24399998784065247;1.156559944152832;0.0;0.0;0.0
1461;0.5023959875106812;-0.08051999658346176;1.0330959558486938;0.6236639618873596;-0.21276798844337463;1.1604639291763306;-7.564374923706055;10.915624618530273;-3.981250047683716
1464;0.0;0.0;0.0;0.6236639618873596;-0.236191987991333;1.1692479848861694;0.0;0.0;0.0
1466;0.0;0.0;0.0;0.6392799615859985;-0.2205759882926941;1.1848639249801636;0.0;0.0;0.0
1468;0.0;0.0;0.0;0.6431840062141418;-0.236191987991333;1.1692479848861694;0.0;0.0;0.0
1470;0.5155720114707947;-0.0907679945230484;1.0450519323349;0.6666079759597778;-0.21276798844337463;1.173151969909668;-4.76437520980835;7.835624694824219;-5.871250152587891
1472;0.0;0.0;0.0;0.6392799615859985;-0.236191987991333;1.1770559549331665;0.0;0.0;0.0
1474;0.0;0.0;0.0;0.6431840062141418;-0.1815359890460968;1.197551965713501;0.0;0.0;0.0
1476;0.0;0.0;0.0;0.6744160056114197;-0.23228800296783447;1.2014559507369995;0.0;0.0;0.0
1478;0.5409479737281799;-0.08393599838018417;1.0582280158996582;0.6783199906349182;-0.23228800296783447;1.1887680292129517;-2.804374933242798;4.615624904632568;-7.411250114440918
1481;0.0;0.0;0.0;0.6861279606819153;-0.24887999892234802;1.1770559549331665;0.0;0.0;0.0
1483;0.0;0.0;0.0;0.7212640047073364;-0.24887999892234802;1.1448479890823364;0.0;0.0;0.0
1485;0.0;0.0;0.0;0.725167989730835;-0.24887999892234802;1.1526559591293335;0.0;0.0;0.0
1487;0.5770599842071533;-0.1134599968791008;1.0311440229415894;0.6861279606819153;-0.2566879987716675;1.132159948348999;-1.1243749856948853;2.095625162124634;-8.181249618530273
1489;0.0;0.0;0.0;0.6939359903335571;-0.2879199981689453;1.1116639375686646;0.0;0.0;0.0
1491;0.0;0.0;0.0;0.7173599600791931;-0.260591983795166;1.115567922592163;0.0;0.0;0.0
1493;0.0;0.0;0.0;0.6978399753570557;-0.27620798349380493;1.1116639375686646;0.0;0.0;0.0
1495;0.5914559960365295;-0.1332239955663681;0.9933239817619324;0.7056480050086975;-0.26449599862098694;1.107759952545166;4.125625133514404;1.4656249284744263;-8.601249694824219
1498;0.0;0.0;0.0;0.7017439603805542;-0.25571200251579285;1.1116639375686646;0.0;0.0;0.0
1500;0.0;0.0;0.0;0.6783199906349182;-0.2752319872379303;1.132159948348999;0.0;0.0;0.0
1502;0.0;0.0;0.0;0.6783199906349182;-0.236191987991333;1.132159948348999;0.0;0.0;0.0
1504;0.5690079927444458;-0.11150799691677094;1.0062559843063354;0.6978399753570557;-0.22448000311851501;1.1438720226287842;10.005624771118164;1.325624942779541;-8.951250076293945
1506;0.0;0.0;0.0;0.6588000059127808;-0.20105600357055664;1.180959939956665;0.0;0.0;0.0
1508;0.0;0.0;0.0;0.6314719915390015;-0.21276798844337463;1.1848639249801636;0.0;0.0;0.0
1510;0.0;0.0;0.0;0.6392799615859985;-0.2088640034198761;1.205359935760498;0.0;0.0;0.0
1512;0.5238679647445679;-0.07515199482440948;1.0606679916381836;0.6314719915390015;-0.2205759882926941;1.229759931564331;11.335624694824219;-0.7043750286102295;-9.44124984741211
1515;0.0;0.0;0.0;0.6314719915390015;-0.20495998859405518;1.2092639207839966;0.0;0.0;0.0
1517;0.0;0.0;0.0;0.6197599768638611;-0.18934398889541626;1.197551965713501;0.0;0.0;0.0
1519;0.0;0.0;0.0;0.6080479621887207;-0.20105600357055664;1.2131680250167847;0.0;0.0;0.0
1521;0.4926359951496124;-0.06929600238800049;1.0904359817504883;0.5856000185012817;-0.22448000311851501;1.2258559465408325;8.465624809265137;-5.394375324249268;-9.581250190734863
1523;0.0;0.0;0.0;0.6236639618873596;-0.21667200326919556;1.2092639207839966;0.0;0.0;0.0
1525;0.0;0.0;0.0;0.6051200032234192;-0.2205759882926941;1.2014559507369995;0.0;0.0;0.0
1527;0.0;0.0;0.0;0.5856000185012817;-0.2088640034198761;1.2014559507369995;0.0;0.0;0.0
1529;0.4823879897594452;-0.09125600010156631;1.0821399688720703;0.5973119735717773;-0.23228800296783447;1.197551965713501;5.105625152587891;-9.944375038146973;-9.091249465942383
1532;0.0;0.0;0.0;0.5973119735717773;-0.23716799914836884;1.1926720142364502;0.0;0.0;0.0
1534;0.0;0.0;0.0;0.5924319624900818;-0.2449759989976883;1.1887680292129517;0.0;0.0;0.0
1536;0.0;0.0;0.0;0.5973119735717773;-0.2879199981689453;1.1682720184326172;0.0;0.0;0.0
1538;0.4770199954509735;-0.12370799481868744;1.0684759616851807;0.5973119735717773;-0.29572799801826477;1.2014559507369995;2.2356250286102295;-12.0443754196167;-8.671249389648438
1540;0.0;0.0;0.0;0.5973119735717773;-0.2723039984703064;1.180959939956665;0.0;0.0;0.0
1542;0.0;0.0;0.0;0.5348479747772217;-0.29182398319244385;1.1887680292129517;0.0;0.0;0.0
1544;0.0;0.0;0.0;0.5582720041275024;-0.27620798349380493;1.1936479806900024;0.0;0.0;0.0
1546;0.4492039978504181;-0.1495719999074936;1.071403980255127;0.5816959738731384;-0.29182398319244385;1.1887680292129517;0.4856249988079071;-13.864375114440918;-9.021249771118164
1549;0.0;0.0;0.0;0.5543680191040039;-0.3142719864845276;1.205359935760498;0.0;0.0;0.0
1551;0.0;0.0;0.0;0.5465599894523621;-0.3298879861831665;1.1848639249801636;0.0;0.0;0.0
1553;0.0;0.0;0.0;0.5309439897537231;-0.32207998633384705;1.197551965713501;0.0;0.0;0.0
1555;0.43261200189590454;-0.1756799966096878;1.0743319988250732;0.5426560044288635;-0.31036800146102905;1.2092639207839966;-0.7043749690055847;-16.244375228881836;-9.511249542236328
1557;0.0;0.0;0.0;0.5270400047302246;-0.32598400115966797;1.197551965713501;0.0;0.0;0.0
1559;0.0;0.0;0.0;0.5348479747772217;-0.32598400115966797;1.1887680292129517;0.0;0.0;0.0
1561;0.0;0.0;0.0;0.5036159753799438;-0.32598400115966797;1.1887680292129517;0.0;0.0;0.0
1563;0.4143120050430298;-0.19812799990177155;1.0706720352172852;0.5348479747772217;-0.32207998633384705;1.180959939956665;-1.6143749952316284;-18.974374771118164;-9.651249885559082
1566;0.0;0.0;0.0;0.5114240050315857;-0.34940800070762634;1.205359935760498;0.0;0.0;0.0
1568;0.0;0.0;0.0;0.5270400047302246;-0.36502400040626526;1.1770559549331665;0.0;0.0;0.0
1570;0.0;0.0;0.0;0.4997119903564453;-0.32207998633384705;1.1692479848861694;0.0;0.0;0.0
1572;0.38600799441337585;-0.20349599421024323;1.0670119524002075;0.4958080053329468;-0.3337920010089874;1.197551965713501;-2.804374933242798;-21.91437530517578;-10.071249961853027
1574;0.0;0.0;0.0;0.48799997568130493;-0.36111998558044434;1.197551965713501;0.0;0.0;0.0
1576;0.0;0.0;0.0;0.4997119903564453;-0.3533119857311249;1.1887680292129517;0.0;0.0;0.0
1578;0.0;0.0;0.0;0.4684799909591675;-0.36111998558044434;1.197551965713501;0.0;0.0;0.0
1580;0.3555079996585846;-0.21374399960041046;1.0775039196014404;0.460671991109848;-0.3728320002555847;1.2092639207839966;-5.324375152587891;-25.834375381469727;-10.491250038146973
1583;0.0;0.0;0.0;0.4567679762840271;-0.3689279854297638;1.197551965713501;0.0;0.0;0.0
1585;0.0;0.0;0.0;0.46457600593566895;-0.34940800070762634;1.1926720142364502;0.0;0.0;0.0
1587;0.0;0.0;0.0;0.4450559914112091;-0.3572160005569458;1.2014559507369995;0.0;0.0;0.0
1589;0.33183997869491577;-0.23131199181079865;1.0779919624328613;0.45286399126052856;-0.37673598527908325;1.197551965713501;-8.124375343322754;-31.084375381469727;-11.751249313354492
1591;0.0;0.0;0.0;0.44896000623703003;-0.3572160005569458;1.1887680292129517;0.0;0.0;0.0
1593;0.0;0.0;0.0;0.42553597688674927;-0.3845439851284027;1.173151969909668;0.0;0.0;0.0
1595;0.0;0.0;0.0;0.45286399126052856;-0.411871999502182;1.1526559591293335;0.0;0.0;0.0
1597;0.32915598154067993;-0.25034400820732117;1.052616000175476;0.47628799080848694;-0.41967999935150146;1.1526559591293335;-10.504375457763672;-36.4743766784668;-14.201250076293945
1600;0.0;0.0;0.0;0.472383975982666;-0.39235198497772217;1.132159948348999;0.0;0.0;0.0
1602;0.0;0.0;0.0;0.4684799909591675;-0.4274879992008209;1.124351978302002;0.0;0.0;0.0
1604;0.0;0.0;0.0;0.472383975982666;-0.411871999502182;1.1194720268249512;0.0;0.0;0.0
1606;0.34404000639915466;-0.2735239863395691;1.00381600856781;0.4567679762840271;-0.41577598452568054;1.099951982498169;-11.13437557220459;-39.134376525878906;-17.49125099182129
1608;0.0;0.0;0.0;0.47628799080848694;-0.423583984375;1.0794559717178345;0.0;0.0;0.0
1610;0.0;0.0;0.0;0.460671991109848;-0.43139198422431946;1.09116792678833;0.0;0.0;0.0
1612;0.0;0.0;0.0;0.4684799909591675;-0.41577598452568054;1.0960479974746704;0.0;0.0;0.0
1615;0.3437959849834442;-0.28352800011634827;0.9669719934463501;0.4450559914112091;-0.4274879992008209;1.075551986694336;-9.454375267028809;-39.06437683105469;-21.341251373291016
1617;0.0;0.0;0.0;0.43724799156188965;-0.41577598452568054;1.0706720352172852;0.0;0.0;0.0
1619;0.0;0.0;0.0;0.43724799156188965;-0.4079679846763611;1.0550559759140015;0.0;0.0;0.0
1621;0.0;0.0;0.0;0.39820799231529236;-0.40406399965286255;1.051151990890503;0.0;0.0;0.0
1623;0.30695199966430664;-0.2701079845428467;0.9354959726333618;0.39820799231529236;-0.4079679846763611;1.051151990890503;-6.094375133514404;-37.66437530517578;-25.681251525878906
1625;0.0;0.0;0.0;0.39430397748947144;-0.3845439851284027;1.0501760244369507;0.0;0.0;0.0
1627;0.0;0.0;0.0;0.3786879777908325;-0.3728320002555847;1.0462720394134521;0.0;0.0;0.0
1629;0.0;0.0;0.0;0.3786879777908325;-0.36502400040626526;1.042367935180664;0.0;0.0;0.0
1632;0.2559559941291809;-0.2349720001220703;0.9169519543647766;0.3328160047531128;-0.3455039858818054;1.034559965133667;-2.3843750953674316;-35.704376220703125;-29.46125030517578
1634;0.0;0.0;0.0;0.3445279896259308;-0.33769598603248596;1.042367935180664;0.0;0.0;0.0
1636;0.0;0.0;0.0;0.35233598947525024;-0.31036800146102905;1.034559965133667;0.0;0.0;0.0
1638;0.0;0.0;0.0;0.3054879903793335;-0.30646398663520813;1.034559965133667;0.0;0.0;0.0
1640;0.2088640034198761;-0.18373200297355652;0.9115839600563049;0.32891198992729187;-0.26742398738861084;1.0550559759140015;0.27562499046325684;-33.74437713623047;-31.911251068115234
1642;0.0;0.0;0.0;0.2937760055065155;-0.27132800221443176;1.0140639543533325;0.0;0.0;0.0
1644;0.0;0.0;0.0;0.2820639908313751;-0.236191987991333;1.0257760286331177;0.0;0.0;0.0
1646;0.0;0.0;0.0;0.27035200595855713;-0.23228800296783447;1.034559965133667;0.0;0.0;0.0
1649;0.158843994140625;-0.12029200047254562;0.9157319664955139;0.2547360062599182;-0.2088640034198761;1.017967939376831;0.5556250214576721;-32.204376220703125;-32.68124771118164
1651;0.0;0.0;0.0;0.2391199916601181;-0.2518079876899719;1.0462720394134521;0.0;0.0;0.0
1653;0.0;0.0;0.0;0.23131199181079865;-0.21667200326919556;1.042367935180664;0.0;0.0;0.0
1655;0.0;0.0;0.0;0.21959999203681946;-0.17763200402259827;1.0306559801101685;0.0;0.0;0.0
1657;0.10174799710512161;-0.06831999868154526;0.9201239943504333;0.1844639927148819;-0.20105600357055664;1.042367935180664;-1.2643749713897705;-31.434375762939453;-32.05125045776367
1659;0.0;0.0;0.0;0.20788799226284027;-0.18934398889541626;1.0257760286331177;0.0;0.0;0.0
1661;0.0;0.0;0.0;0.1844639927148819;-0.14640000462532043;1.034559965133667;0.0;0.0;0.0
1663;0.0;0.0;0.0;0.19617599248886108;-0.1424959897994995;1.0589599609375;0.0;0.0;0.0
1666;0.05831599980592728;-0.02903600037097931;0.920367956161499;0.16103999316692352;-0.16591998934745789;1.0462720394134521;-4.76437520980835;-31.294374465942383;-29.881250381469727
1668;0.0;0.0;0.0;0.16103999316692352;-0.1512800008058548;1.034559965133667;0.0;0.0;0.0
1670;0.0;0.0;0.0;0.12590399384498596;-0.14347200095653534;1.0433440208435059;0.0;0.0;0.0
1672;0.0;0.0;0.0;0.13371199369430542;-0.13566400110721588;1.0433440208435059;0.0;0.0;0.0
1674;0.019763998687267303;-0.003659999929368496;0.9147560000419617;0.13761599361896515;-0.14347200095653534;1.034559965133667;-8.684375762939453;-31.084375381469727;-26.311250686645508
1676;0.0;0.0;0.0;0.115167997777462;-0.13176000118255615;1.0550559759140015;0.0;0.0;0.0
1678;0.0;0.0;0.0;0.09564799815416336;-0.12785600125789642;1.0140639543533325;0.0;0.0;0.0
1680;0.0;0.0;0.0;0.0878399983048439;-0.14347200095653534;1.0306559801101685;0.0;0.0;0.0
1683;-0.025619998574256897;0.006099999882280827;0.9149999618530273;0.09174399822950363;-0.11224000155925751;1.0472480058670044;-12.534375190734863;-30.1043758392334;-21.061250686645508
1685;0.0;0.0;0.0;0.0878399983048439;-0.1424959897994995;1.042367935180664;0.0;0.0;0.0
1687;0.0;0.0;0.0;0.04879999905824661;-0.1424959897994995;1.0462720394134521;0.0;0.0;0.0
1689;0.0;0.0;0.0;0.05660799890756607;-0.13078400492668152;1.0384639501571655;0.0;0.0;0.0
1691;-0.06319599598646164;-0.004391999915242195;0.9179279804229736;0.040991999208927155;-0.15030398964881897;1.034559965133667;-16.03437614440918;-28.28437614440918;-14.411250114440918
1693;0.0;0.0;0.0;0.01756799966096878;-0.15811198949813843;1.042367935180664;0.0;0.0;0.0
1695;0.0;0.0;0.0;0.05270399898290634;-0.16591998934745789;1.0628639459609985;0.0;0.0;0.0
1697;0.0;0.0;0.0;0.01756799966096878;-0.19715198874473572;1.0462720394134521;0.0;0.0;0.0
1700;-0.09003599733114243;-0.03879600018262863;0.9240279793739319;0.01756799966096878;-0.20495998859405518;1.0706720352172852;-18.344375610351562;-24.994375228881836;-7.90125036239624
1702;0.0;0.0;0.0;0.029279999434947968;-0.20495998859405518;1.042367935180664;0.0;0.0;0.0
1704;0.0;0.0;0.0;0.029279999434947968;-0.21667200326919556;1.0589599609375;0.0;0.0;0.0
1706;0.0;0.0;0.0;0.009759999811649323;-0.20105600357055664;1.0628639459609985;0.0;0.0;0.0
1708;-0.11297199875116348;-0.07173600047826767;0.937936007976532;-0.01756799966096878;-0.21667200326919556;1.09116792678833;-19.044376373291016;-21.3543758392334;-3.0712499618530273
1710;0.0;0.0;0.0;-0.040991999208927155;-0.2088640034198761;1.0794559717178345;0.0;0.0;0.0
1712;0.0;0.0;0.0;-0.05660799890756607;-0.236191987991333;1.099951982498169;0.0;0.0;0.0
1714;0.0;0.0;0.0;-0.09955199807882309;-0.2518079876899719;1.0960479974746704;0.0;0.0;0.0
1717;-0.18177999556064606;-0.10077200084924698;0.9606279730796814;-0.10345599800348282;-0.25571200251579285;1.0872639417648315;-18.834375381469727;-18.064374923706055;0.42875000834465027
1719;0.0;0.0;0.0;-0.13468798995018005;-0.2635200023651123;1.0960479974746704;0.0;0.0;0.0
1721;0.0;0.0;0.0;-0.14932799339294434;-0.2635200023651123;1.0950720310211182;0.0;0.0;0.0
1723;0.0;0.0;0.0;-0.1571359932422638;-0.27132800221443176;1.083359956741333;0.0;0.0;0.0
1725;-0.26791200041770935;-0.12785600125789642;0.9698999524116516;-0.13859200477600098;-0.2596159875392914;1.099951982498169;-17.364376068115234;-17.434375762939453;1.3387500047683716
1727;0.0;0.0;0.0;-0.1571359932422638;-0.2752319872379303;1.09116792678833;0.0;0.0;0.0
1729;0.0;0.0;0.0;-0.1268799901008606;-0.28303998708724976;1.1282559633255005;0.0;0.0;0.0
1731;0.0;0.0;0.0;-0.21569599211215973;-0.2791360020637512;1.115567922592163;0.0;0.0;0.0
1734;-0.3113439977169037;-0.14932799339294434;0.9852719902992249;-0.24692799150943756;-0.28303998708724976;1.107759952545166;-16.1043758392334;-15.754375457763672;0.21875
1736;0.0;0.0;0.0;-0.23131199181079865;-0.2791360020637512;1.0706720352172852;0.0;0.0;0.0
1738;0.0;0.0;0.0;-0.25863999128341675;-0.26742398738861084;1.0960479974746704;0.0;0.0;0.0
1740;0.0;0.0;0.0;-0.21959999203681946;-0.2908479869365692;1.0872639417648315;0.0;0.0;0.0
1742;-0.35575199127197266;-0.13834799826145172;0.9769759774208069;-0.23131199181079865;-0.28303998708724976;1.0872639417648315;-15.054375648498535;-14.914375305175781;-1.9512499570846558
1744;0.0;0.0;0.0;-0.24302399158477783;-0.2635200023651123;1.107759952545166;0.0;0.0;0.0
1746;0.0;0.0;0.0;-0.24692799150943756;-0.2479040026664734;1.0794559717178345;0.0;0.0;0.0
1748;0.0;0.0;0.0;-0.2781600058078766;-0.27132800221443176;1.107759952545166;0.0;0.0;0.0
1751;-0.38381198048591614;-0.13078400492668152;0.9769759774208069;-0.26254400610923767;-0.2635200023651123;1.107759952545166;-13.094375610351562;-13.444375038146973;-4.331250190734863
1753;0.0;0.0;0.0;-0.2781600058078766;-0.2752319872379303;1.1165440082550049;0.0;0.0;0.0
1755;0.0;0.0;0.0;-0.28596800565719604;-0.2635200023651123;1.1116639375686646;0.0;0.0;0.0
1757;0.0;0.0;0.0;-0.27425599098205566;-0.25571200251579285;1.1282559633255005;0.0;0.0;0.0
1759;-0.4060159921646118;-0.10662800073623657;0.9823439717292786;-0.2664479911327362;-0.21667200326919556;1.1194720268249512;-9.804375648498535;-11.834375381469727;-7.271250247955322
1761;0.0;0.0;0.0;-0.2547360062599182;-0.21667200326919556;1.124351978302002;0.0;0.0;0.0
1763;0.0;0.0;0.0;-0.2664479911327362;-0.2088640034198761;1.156559944152832;0.0;0.0;0.0
1765;0.0;0.0;0.0;-0.25863999128341675;-0.2205759882926941;1.156559944152832;0.0;0.0;0.0
1768;-0.4050399959087372;-0.07515199482440948;1.016260027885437;-0.2820639908313751;-0.19715198874473572;1.1643680334091187;-8.404375076293945;-10.084375381469727;-7.551250457763672
1770;0.0;0.0;0.0;-0.3093920052051544;-0.1698240041732788;1.1770559549331665;0.0;0.0;0.0
1772;0.0;0.0;0.0;-0.3328160047531128;-0.19324800372123718;1.1682720184326172;0.0;0.0;0.0
1774;0.0;0.0;0.0;-0.2898719906806946;-0.18544000387191772;1.197551965713501;0.0;0.0;0.0
1776;-0.4135800004005432;-0.05441199988126755;1.0545679330825806;-0.3054879903793335;-0.16591998934745789;1.180959939956665;-10.714375495910645;-8.264374732971191;-5.381250381469727
1778;0.0;0.0;0.0;-0.32891198992729187;-0.17763200402259827;1.205359935760498;0.0;0.0;0.0
1780;0.0;0.0;0.0;-0.32891198992729187;-0.1698240041732788;1.197551965713501;0.0;0.0;0.0
1782;0.0;0.0;0.0;-0.3328160047531128;-0.2088640034198761;1.246351957321167;0.0;0.0;0.0
1785;-0.4387120008468628;-0.04928799718618393;1.0860439538955688;-0.32891198992729187;-0.17372798919677734;1.2131680250167847;-14.214375495910645;-8.404375076293945;-3.211250066757202
1787;0.0;0.0;0.0;-0.3054879903793335;-0.19715198874473572;1.2170720100402832;0.0;0.0;0.0
1789;0.0;0.0;0.0;-0.3211039900779724;-0.18544000387191772;1.2258559465408325;0.0;0.0;0.0
1791;0.0;0.0;0.0;-0.31329599022865295;-0.18934398889541626;1.229759931564331;0.0;0.0;0.0
1793;-0.44529998302459717;-0.05270399898290634;1.1011719703674316;-0.3211039900779724;-0.1815359890460968;1.2131680250167847;-17.504375457763672;-10.154375076293945;-0.4112499952316284
1795;0.0;0.0;0.0;-0.3211039900779724;-0.2205759882926941;1.221951961517334;0.0;0.0;0.0
1797;0.0;0.0;0.0;-0.33671998977661133;-0.22838398814201355;1.229759931564331;0.0;0.0;0.0
1800;0.0;0.0;0.0;-0.32500800490379333;-0.2088640034198761;1.221951961517334;0.0;0.0;0.0
1802;-0.43773600459098816;-0.07441999763250351;1.0989760160446167;-0.2937760055065155;-0.2088640034198761;1.2336640357971191;-19.814374923706055;-10.64437484741211;1.8287500143051147
1804;0.0;0.0;0.0;-0.30158400535583496;-0.24399998784065247;1.229759931564331;0.0;0.0;0.0
1806;0.0;0.0;0.0;-0.29767999053001404;-0.2596159875392914;1.221951961517334;0.0;0.0;0.0
1808;0.0;0.0;0.0;-0.3172000050544739;-0.2479040026664734;1.229759931564331;0.0;0.0;0.0
1810;-0.42968398332595825;-0.11370399594306946;1.0931199789047241;-0.3172000050544739;-0.26742398738861084;1.221951961517334;-20.234375;-9.944375038146973;2.598750114440918
1812;0.0;0.0;0.0;-0.3093920052051544;-0.2752319872379303;1.2170720100402832;0.0;0.0;0.0
1814;0.0;0.0;0.0;-0.2898719906806946;-0.28303998708724976;1.2014559507369995;0.0;0.0;0.0
1817;0.0;0.0;0.0;-0.3093920052051544;-0.27132800221443176;1.2170720100402832;0.0;0.0;0.0
1819;-0.4335879981517792;-0.1395680010318756;1.0865319967269897;-0.3093920052051544;-0.29475200176239014;1.2092639207839966;-18.134374618530273;-9.244375228881836;1.408750057220459
1821;0.0;0.0;0.0;-0.3172000050544739;-0.25571200251579285;1.2258559465408325;0.0;0.0;0.0
1823;0.0;0.0;0.0;-0.2937760055065155;-0.2518079876899719;1.1926720142364502;0.0;0.0;0.0
1825;0.0;0.0;0.0;-0.3172000050544739;-0.2518079876899719;1.2092639207839966;0.0;0.0;0.0
1827;-0.42919600009918213;-0.12956400215625763;1.087996006011963;-0.29767999053001404;-0.2479040026664734;1.2131680250167847;-14.284375190734863;-9.734375;-1.0412499904632568
1829;0.0;0.0;0.0;-0.29767999053001404;-0.24009600281715393;1.2092639207839966;0.0;0.0;0.0
1831;0.0;0.0;0.0;-0.30158400535583496;-0.236191987991333;1.1848639249801636;0.0;0.0;0.0
1834;0.0;0.0;0.0;-0.27425599098205566;-0.23228800296783447;1.173151969909668;0.0;0.0;0.0
1836;-0.39991599321365356;-0.10589599609375;1.0699399709701538;-0.2508319914340973;-0.22838398814201355;1.180959939956665;-9.944375038146973;-10.154375076293945;-4.191250324249268
1838;0.0;0.0;0.0;-0.26254400610923767;-0.21276798844337463;1.1526559591293335;0.0;0.0;0.0
1840;0.0;0.0;0.0;-0.22740799188613892;-0.2205759882926941;1.180959939956665;0.0;0.0;0.0
1842;0.0;0.0;0.0;-0.21959999203681946;-0.18544000387191772;1.156559944152832;0.0;0.0;0.0
1844;-0.3596560060977936;-0.07685999572277069;1.0462720394134521;-0.21959999203681946;-0.19715198874473572;1.156559944152832;-5.114375114440918;-9.874375343322754;-6.431250095367432
1846;0.0;0.0;0.0;-0.20398399233818054;-0.16591998934745789;1.1604639291763306;0.0;0.0;0.0
1848;0.0;0.0;0.0;-0.20788799226284027;-0.1698240041732788;1.1282559633255005;0.0;0.0;0.0
1851;0.0;0.0;0.0;-0.19617599248886108;-0.13078400492668152;1.124351978302002;0.0;0.0;0.0
1853;-0.31744399666786194;-0.034648001194000244;1.0313879251480103;-0.16103999316692352;-0.1542080044746399;1.148751974105835;-1.0543749332427979;-9.594375610351562;-6.501250267028809
1855;0.0;0.0;0.0;-0.15323199331760406;-0.15030398964881897;1.1360639333724976;0.0;0.0;0.0
1857;0.0;0.0;0.0;-0.1268799901008606;-0.12297599762678146;1.132159948348999;0.0;0.0;0.0
1859;0.0;0.0;0.0;-0.13078400492668152;-0.1424959897994995;1.1643680334091187;0.0;0.0;0.0
1861;-0.2622999846935272;-0.005123999901115894;1.0247999429702759;-0.11126399785280228;-0.11907199770212173;1.139967918395996;0.9756250381469727;-8.334375381469727;-3.421250104904175
1863;0.0;0.0;0.0;-0.05270399898290634;-0.13859200477600098;1.124351978302002;0.0;0.0;0.0
1865;0.0;0.0;0.0;-0.06441599875688553;-0.13078400492668152;1.1116639375686646;0.0;0.0;0.0
1868;0.0;0.0;0.0;-0.05270399898290634;-0.1268799901008606;1.1282559633255005;0.0;0.0;0.0
1870;-0.19568799436092377;-0.0007319999858736992;1.0160160064697266;-0.013663999736309052;-0.13859200477600098;1.1282559633255005;1.8856250047683716;-6.724375247955322;2.668750047683716
1872;0.0;0.0;0.0;-0.029279999434947968;-0.1424959897994995;1.099951982498169;0.0;0.0;0.0
1874;0.0;0.0;0.0;-0.0058559998869895935;-0.17372798919677734;1.1204479932785034;0.0;0.0;0.0
1876;0.0;0.0;0.0;0.0058559998869895935;-0.15030398964881897;1.124351978302002;0.0;0.0;0.0
1878;-0.12883199751377106;-0.01903199963271618;1.0040600299835205;0.04879999905824661;-0.16591998934745789;1.1282559633255005;2.7956249713897705;-4.904375076293945;9.948750495910645
1880;0.0;0.0;0.0;0.040991999208927155;-0.15030398964881897;1.1204479932785034;0.0;0.0;0.0
1882;0.0;0.0;0.0;0.02147199958562851;-0.1815359890460968;1.099951982498169;0.0;0.0;0.0
1885;0.0;0.0;0.0;0.044895999133586884;-0.17763200402259827;1.1116639375686646;0.0;0.0;0.0
1887;-0.07978799939155579;-0.044895999133586884;0.9918599724769592;0.08003199845552444;-0.19715198874473572;1.124351978302002;4.195624828338623;-3.5043749809265137;16.458749771118164
1889;0.0;0.0;0.0;0.07612799853086472;-0.1815359890460968;1.0960479974746704;0.0;0.0;0.0
1891;0.0;0.0;0.0;0.08393599838018417;-0.19324800372123718;1.09116792678833;0.0;0.0;0.0
1893;0.0;0.0;0.0;0.08393599838018417;-0.20495998859405518;1.0872639417648315;0.0;0.0;0.0
1895;-0.04440800100564957;-0.07075999677181244;0.9772199988365173;0.11028799414634705;-0.19324800372123718;1.099951982498169;6.365624904632568;-1.6143749952316284;20.448749542236328
1897;0.0;0.0;0.0;0.09857599437236786;-0.236191987991333;1.107759952545166;0.0;0.0;0.0
1899;0.0;0.0;0.0;0.1298079937696457;-0.20495998859405518;1.099951982498169;0.0;0.0;0.0
1902;0.0;0.0;0.0;0.13761599361896515;-0.22448000311851501;1.09116792678833;0.0;0.0;0.0
1904;-0.015371999703347683;-0.08100800216197968;0.9764879941940308;0.1180959939956665;-0.20105600357055664;1.099951982498169;7.765625;0.27562499046325684;22.89875030517578
1906;0.0;0.0;0.0;0.13371199369430542;-0.24009600281715393;1.124351978302002;0.0;0.0;0.0
1908;0.0;0.0;0.0;0.1180959939956665;-0.20495998859405518;1.1038559675216675;0.0;0.0;0.0
1910;0.0;0.0;0.0;0.10345599800348282;-0.2205759882926941;1.0872639417648315;0.0;0.0;0.0
1912;-0.005123999901115894;-0.08393599838018417;0.9781959652900696;0.11419199407100677;-0.20105600357055664;1.099951982498169;7.415625095367432;1.675624966621399;23.80875015258789
1914;0.0;0.0;0.0;0.15323199331760406;-0.19715198874473572;1.0872639417648315;0.0;0.0;0.0
1916;0.0;0.0;0.0;0.13371199369430542;-0.20105600357055664;1.1116639375686646;0.0;0.0;0.0
1919;0.0;0.0;0.0;0.1727519929409027;-0.2088640034198761;1.139967918395996;0.0;0.0;0.0
1921;0.023423999547958374;-0.08393599838018417;0.9830759763717651;0.1727519929409027;-0.20495998859405518;1.0960479974746704;6.015625;2.025624990463257;23.528749465942383
1923;0.0;0.0;0.0;0.17665599286556244;-0.21276798844337463;1.1116639375686646;0.0;0.0;0.0
1925;0.0;0.0;0.0;0.1727519929409027;-0.21667200326919556;1.099951982498169;0.0;0.0;0.0
1927;0.0;0.0;0.0;0.20398399233818054;-0.2088640034198761;1.1282559633255005;0.0;0.0;0.0
1929;0.06539200246334076;-0.07881199568510056;0.9979599714279175;0.2000799924135208;-0.2088640034198761;1.124351978302002;3.215625047683716;0.9056249856948853;24.71875
1931;0.0;0.0;0.0;0.23521599173545837;-0.22448000311851501;1.107759952545166;0.0;0.0;0.0
1933;0.0;0.0;0.0;0.23131199181079865;-0.19715198874473572;1.107759952545166;0.0;0.0;0.0
1936;0.0;0.0;0.0;0.23131199181079865;-0.21667200326919556;1.09116792678833;0.0;0.0;0.0
1938;0.11858399957418442;-0.07881199568510056;0.9933239817619324;0.2898719906806946;-0.2088640034198761;1.09116792678833;-0.5643749833106995;-1.0543750524520874;27.16874885559082
1940;0.0;0.0;0.0;0.30158400535583496;-0.21276798844337463;1.124351978302002;0.0;0.0;0.0
1942;0.0;0.0;0.0;0.2937760055065155;-0.22838398814201355;1.1038559675216675;0.0;0.0;0.0
1944;0.0;0.0;0.0;0.3172000050544739;-0.2479040026664734;1.1038559675216675;0.0;0.0;0.0
1946;0.18812400102615356;-0.09223199635744095;0.9850279688835144;0.34062400460243225;-0.23228800296783447;1.107759952545166;-4.694375038146973;-2.5243749618530273;30.248748779296875
1948;0.0;0.0;0.0;0.3484320044517517;-0.25571200251579285;1.09116792678833;0.0;0.0;0.0
1950;0.0;0.0;0.0;0.35916799306869507;-0.28303998708724976;1.0872639417648315;0.0;0.0;0.0
1953;0.0;0.0;0.0;0.35624000430107117;-0.25571200251579285;1.0950720310211182;0.0;0.0;0.0
1955;0.24277999997138977;-0.12541599571704865;0.9711199998855591;0.38259199261665344;-0.28303998708724976;1.0872639417648315;-8.894375801086426;-2.3143749237060547;33.88875198364258
1957;0.0;0.0;0.0;0.38259199261665344;-0.29865598678588867;1.075551986694336;0.0;0.0;0.0
1959;0.0;0.0;0.0;0.39430397748947144;-0.2908479869365692;1.0872639417648315;0.0;0.0;0.0
1961;0.0;0.0;0.0;0.37088000774383545;-0.33769598603248596;1.09116792678833;0.0;0.0;0.0
1963;0.2705959975719452;-0.17031200230121613;0.9608719944953918;0.4177280068397522;-0.3142719864845276;1.0794559717178345;-12.114375114440918;-1.334375023841858;36.26875305175781
1966;0.0;0.0;0.0;0.42163199186325073;-0.34940800070762634;1.083359956741333;0.0;0.0;0.0
1967;0.0;0.0;0.0;0.4138239920139313;-0.3572160005569458;1.0589599609375;0.0;0.0;0.0
1970;0.0;0.0;0.0;0.42553597688674927;-0.3572160005569458;1.083359956741333;0.0;0.0;0.0
1972;0.2898719906806946;-0.2152079939842224;0.9635559916496277;0.40991997718811035;-0.411871999502182;1.0794559717178345;-14.63437557220459;-0.21437500417232513;36.758750915527344
1974;0.0;0.0;0.0;0.44896000623703003;-0.38844799995422363;1.0794559717178345;0.0;0.0;0.0
1976;0.0;0.0;0.0;0.4333440065383911;-0.40406399965286255;1.09116792678833;0.0;0.0;0.0
1978;0.0;0.0;0.0;0.42553597688674927;-0.411871999502182;1.0960479974746704;0.0;0.0;0.0
1980;0.2984119951725006;-0.26156800985336304;0.9691680073738098;0.4177280068397522;-0.38844799995422363;1.115567922592163;-16.454376220703125;2.025624990463257;35.28874969482422
1982;0.0;0.0;0.0;0.39820799231529236;-0.45871999859809875;1.1038559675216675;0.0;0.0;0.0
1984;0.0;0.0;0.0;0.39820799231529236;-0.4509119987487793;1.107759952545166;0.0;0.0;0.0
1987;0.0;0.0;0.0;0.4060159921646118;-0.4470079839229584;1.1204479932785034;0.0;0.0;0.0
1989;0.2862119972705841;-0.313539981842041;0.9891759753227234;0.40991997718811035;-0.48604798316955566;1.1204479932785034;-16.384374618530273;3.635625123977661;32.06875228881836
1991;0.0;0.0;0.0;0.39820799231529236;-0.4753119945526123;1.1204479932785034;0.0;0.0;0.0
1993;0.0;0.0;0.0;0.4021120071411133;-0.49483197927474976;1.1116639375686646;0.0;0.0;0.0
1995;0.0;0.0;0.0;0.3903999924659729;-0.4909279942512512;1.1116639375686646;0.0;0.0;0.0
1997;0.2764520049095154;-0.35282400250434875;0.9952759742736816;0.3903999924659729;-0.48311999440193176;1.1282559633255005;-13.444375991821289;3.845625162124634;26.888750076293945
2000;0.0;0.0;0.0;0.39820799231529236;-0.5143519639968872;1.0921440124511719;0.0;0.0;0.0
2001;0.0;0.0;0.0;0.3903999924659729;-0.5182560086250305;1.1204479932785034;0.0;0.0;0.0
2004;0.0;0.0;0.0;0.37088000774383545;-0.5065439939498901;1.083359956741333;0.0;0.0;0.0
2006;0.27303600311279297;-0.3760039806365967;0.9769759774208069;0.3903999924659729;-0.5182560086250305;1.0921440124511719;-6.724375247955322;2.7956252098083496;21.00874900817871
2008;0.0;0.0;0.0;0.38649600744247437;-0.5407040119171143;1.0794559717178345;0.0;0.0;0.0
2010;0.0;0.0;0.0;0.40991997718811035;-0.5407040119171143;1.0794559717178345;0.0;0.0;0.0
2012;0.0;0.0;0.0;0.39430397748947144;-0.521183967590332;1.075551986694336;0.0;0.0;0.0
2014;0.28426000475883484;-0.37502798438072205;0.9611159563064575;0.43724799156188965;-0.4899519979953766;1.0872639417648315;2.445625066757202;2.025624990463257;16.73874855041504
2017;0.0;0.0;0.0;0.4138239920139313;-0.49775999784469604;1.0589599609375;0.0;0.0;0.0
2019;0.0;0.0;0.0;0.42163199186325073;-0.48214399814605713;1.051151990890503;0.0;0.0;0.0
2021;0.0;0.0;0.0;0.48799997568130493;-0.4509119987487793;1.0384639501571655;0.0;0.0;0.0
2023;0.3240320086479187;-0.3437959849834442;0.9393999576568604;0.460671991109848;-0.4470079839229584;1.0462720394134521;11.545624732971191;1.675624966621399;14.70875072479248
2025;0.0;0.0;0.0;0.4840959906578064;-0.43139198422431946;1.034559965133667;0.0;0.0;0.0
2027;0.0;0.0;0.0;0.4958080053329468;-0.40406399965286255;1.02675199508667;0.0;0.0;0.0
2029;0.0;0.0;0.0;0.5036159753799438;-0.41577598452568054;1.0257760286331177;0.0;0.0;0.0
2031;0.3769800066947937;-0.2908479869365692;0.9164639711380005;0.5036159753799438;-0.41967999935150146;1.0257760286331177;19.10562515258789;2.8656251430511475;14.288750648498535
2034;0.0;0.0;0.0;0.5348479747772217;-0.40406399965286255;1.0306559801101685;0.0;0.0;0.0
2036;0.0;0.0;0.0;0.5153279900550842;-0.3689279854297638;1.0384639501571655;0.0;0.0;0.0
2038;0.0;0.0;0.0;0.5387519598007202;-0.3845439851284027;1.0218719244003296;0.0;0.0;0.0
2040;0.40699198842048645;-0.24887999892234802;0.9115839600563049;0.5309439897537231;-0.38844799995422363;1.0218719244003296;23.025625228881836;5.315624713897705;14.568750381469727
2042;0.0;0.0;0.0;0.5416799783706665;-0.3455039858818054;1.0482239723205566;0.0;0.0;0.0
2044;0.0;0.0;0.0;0.537775993347168;-0.32598400115966797;1.0238239765167236;0.0;0.0;0.0
2046;0.0;0.0;0.0;0.545583963394165;-0.33769598603248596;1.0277279615402222;0.0;0.0;0.0
2048;0.41235998272895813;-0.21227999031543732;0.9106079936027527;0.5026400089263916;-0.3533119857311249;1.0404160022735596;23.725624084472656;7.275624752044678;14.428750038146973
2051;0.0;0.0;0.0;0.537775993347168;-0.32207998633384705;1.044319987297058;0.0;0.0;0.0
2053;0.0;0.0;0.0;0.537775993347168;-0.3181760013103485;1.0355359315872192;0.0;0.0;0.0
2055;0.0;0.0;0.0;0.5651040077209473;-0.33769598603248596;1.0394400358200073;0.0;0.0;0.0
2057;0.4184599816799164;-0.20032399892807007;0.9176839590072632;0.5338720083236694;-0.3455039858818054;1.0433440208435059;21.905624389648438;7.905624866485596;13.938750267028809
2059;0.0;0.0;0.0;0.5543680191040039;-0.32598400115966797;1.0462720394134521;0.0;0.0;0.0
2061;0.0;0.0;0.0;0.562175989151001;-0.3455039858818054;1.0550559759140015;0.0;0.0;0.0
2063;0.0;0.0;0.0;0.5856000185012817;-0.3181760013103485;1.034559965133667;0.0;0.0;0.0
2065;0.4396879971027374;-0.18299999833106995;0.9184159636497498;0.5660799741744995;-0.3298879861831665;1.034559965133667;18.475624084472656;8.255624771118164;12.538750648498535
2068;0.0;0.0;0.0;0.6041439771652222;-0.3142719864845276;1.0257760286331177;0.0;0.0;0.0
2070;0.0;0.0;0.0;0.5963360071182251;-0.28303998708724976;1.0384639501571655;0.0;0.0;0.0
2072;0.0;0.0;0.0;0.6197599768638611;-0.3025600016117096;1.0218719244003296;0.0;0.0;0.0
2074;0.4728719890117645;-0.16421200335025787;0.9032880067825317;0.6197599768638611;-0.2869440019130707;1.0013760328292847;14.065624237060547;7.135624885559082;9.5287504196167
2076;0.0;0.0;0.0;0.6431840062141418;-0.2791360020637512;1.0013760328292847;0.0;0.0;0.0
2078;0.0;0.0;0.0;0.6548959612846375;-0.3181760013103485;0.9935680031776428;0.0;0.0;0.0
2080;0.0;0.0;0.0;0.6705119609832764;-0.2908479869365692;0.9769759774208069;0.0;0.0;0.0
2082;0.5375319719314575;-0.16079600155353546;0.8754720091819763;0.709551990032196;-0.29865598678588867;0.985759973526001;10.565624237060547;6.925624847412109;5.048749923706055
2085;0.0;0.0;0.0;0.725167989730835;-0.26742398738861084;0.9769759774208069;0.0;0.0;0.0
2087;0.0;0.0;0.0;0.7407839894294739;-0.2791360020637512;0.9769759774208069;0.0;0.0;0.0
2089;0.0;0.0;0.0;0.725167989730835;-0.2908479869365692;0.9769759774208069;0.0;0.0;0.0
2091;0.5990200042724609;-0.15323199331760406;0.8549759984016418;0.7290719747543335;-0.26742398738861084;0.9691680073738098;8.67562484741211;9.305624961853027;1.058750033378601
2093;0.0;0.0;0.0;0.7368800044059753;-0.28303998708724976;0.985759973526001;0.0;0.0;0.0
2095;0.0;0.0;0.0;0.7642079591751099;-0.2869440019130707;0.9808799624443054;0.0;0.0;0.0
2097;0.0;0.0;0.0;0.7720159888267517;-0.2752319872379303;0.9691680073738098;0.0;0.0;0.0
2099;0.6434279680252075;-0.13590799272060394;0.8654679656028748;0.8071519732475281;-0.2635200023651123;1.0218719244003296;8.395624160766602;11.335624694824219;-0.7612500190734863
2101;0.0;0.0;0.0;0.8071519732475281;-0.2518079876899719;0.9935680031776428;0.0;0.0;0.0
2104;0.0;0.0;0.0;0.7798239588737488;-0.2479040026664734;0.9896639585494995;0.0;0.0;0.0
2106;0.0;0.0;0.0;0.8149600028991699;-0.25571200251579285;0.9974719882011414;0.0;0.0;0.0
2108;0.6824679970741272;-0.12370799481868744;0.8818159699440002;0.8071519732475281;-0.25571200251579285;1.010159969329834;8.535624504089355;12.875624656677246;-1.0412499904632568
2110;0.0;0.0;0.0;0.822767972946167;-0.26742398738861084;1.010159969329834;0.0;0.0;0.0
2112;0.0;0.0;0.0;0.822767972946167;-0.24399998784065247;1.017967939376831;0.0;0.0;0.0
2114;0.0;0.0;0.0;0.8266719579696655;-0.2479040026664734;1.0218719244003296;0.0;0.0;0.0
2116;0.6997919678688049;-0.12151199579238892;0.8884040117263794;0.8305760025978088;-0.2635200023651123;0.9896639585494995;8.885624885559082;14.065625190734863;-1.0412499904632568
2118;0.0;0.0;0.0;0.8149600028991699;-0.2479040026664734;1.0218719244003296;0.0;0.0;0.0
2121;0.0;0.0;0.0;0.8383839726448059;-0.2518079876899719;1.010159969329834;0.0;0.0;0.0
2123;0.0;0.0;0.0;0.8188639879226685;-0.25571200251579285;1.0062559843063354;0.0;0.0;0.0
2125;0.7041839957237244;-0.11565599590539932;0.8813279867172241;0.8383839726448059;-0.2635200023651123;1.0013760328292847;9.655624389648438;14.065625190734863;-2.021250009536743
2127;0.0;0.0;0.0;0.8383839726448059;-0.24009600281715393;0.9935680031776428;0.0;0.0;0.0
2129;0.0;0.0;0.0;0.8461920022964478;-0.236191987991333;0.9818559885025024;0.0;0.0;0.0
2131;0.0;0.0;0.0;0.8344799876213074;-0.236191987991333;0.9896639585494995;0.0;0.0;0.0
2133;0.7224839925765991;-0.11272799968719482;0.8627839684486389;0.8461920022964478;-0.23228800296783447;0.9486719965934753;10.565624237060547;14.975625038146973;-4.051249980926514
2136;0.0;0.0;0.0;0.8383839726448059;-0.2596159875392914;0.9730719923973083;0.0;0.0;0.0
2138;0.0;0.0;0.0;0.8539999723434448;-0.2479040026664734;0.9769759774208069;0.0;0.0;0.0
2140;0.0;0.0;0.0;0.8696159720420837;-0.2479040026664734;0.9974719882011414;0.0;0.0;0.0
2142;0.7302919626235962;-0.10540799796581268;0.8613199591636658;0.8657119870185852;-0.2205759882926941;1.0062559843063354;11.335624694824219;17.285625457763672;-5.241250038146973
2144;0.0;0.0;0.0;0.8579039573669434;-0.23228800296783447;0.9974719882011414;0.0;0.0;0.0
2146;0.0;0.0;0.0;0.8579039573669434;-0.2205759882926941;0.9974719882011414;0.0;0.0;0.0
2148;0.0;0.0;0.0;0.8461920022964478;-0.20105600357055664;1.0384639501571655;0.0;0.0;0.0
2150;0.7324879765510559;-0.09003599733114243;0.8820599913597107;0.8618080019950867;-0.21667200326919556;1.0140639543533325;11.125624656677246;19.10562515258789;-4.611250400543213
2153;0.0;0.0;0.0;0.8383839726448059;-0.2205759882926941;1.017967939376831;0.0;0.0;0.0
2155;0.0;0.0;0.0;0.8422879576683044;-0.2088640034198761;1.010159969329834;0.0;0.0;0.0
2157;0.0;0.0;0.0;0.8188639879226685;-0.20105600357055664;1.0218719244003296;0.0;0.0;0.0
2159;0.7107719779014587;-0.08271599560976028;0.9035319685935974;0.8188639879226685;-0.236191987991333;1.0257760286331177;10.075624465942383;19.455625534057617;-2.581249952316284
2161;0.0;0.0;0.0;0.8071519732475281;-0.236191987991333;1.042367935180664;0.0;0.0;0.0
2163;0.0;0.0;0.0;0.7720159888267517;-0.236191987991333;1.034559965133667;0.0;0.0;0.0
2165;0.0;0.0;0.0;0.7681120038032532;-0.236191987991333;1.0550559759140015;0.0;0.0;0.0
2167;0.6575799584388733;-0.08466799557209015;0.9284200072288513;0.7173599600791931;-0.22448000311851501;1.066767930984497;7.905624866485596;17.915624618530273;-0.4112499952316284
2170;0.0;0.0;0.0;0.7290719747543335;-0.2205759882926941;1.0872639417648315;0.0;0.0;0.0
2172;0.0;0.0;0.0;0.7368800044059753;-0.2518079876899719;1.0960479974746704;0.0;0.0;0.0
2174;0.0;0.0;0.0;0.6978399753570557;-0.24399998784065247;1.0872639417648315;0.0;0.0;0.0
2176;0.594871997833252;-0.09418399631977081;0.9679479598999023;0.6900320053100586;-0.2518079876899719;1.1038559675216675;3.3556251525878906;14.905625343322754;0.9187500476837158
2178;0.0;0.0;0.0;0.6627039909362793;-0.2479040026664734;1.132159948348999;0.0;0.0;0.0
2180;0.0;0.0;0.0;0.6822239756584167;-0.2635200023651123;1.1282559633255005;0.0;0.0;0.0
2182;0.0;0.0;0.0;0.6470879912376404;-0.23228800296783447;1.148751974105835;0.0;0.0;0.0
2184;0.5402159690856934;-0.115167997777462;1.0082080364227295;0.6431840062141418;-0.29475200176239014;1.1526559591293335;-3.5743749141693115;10.145625114440918;1.96875
2187;0.0;0.0;0.0;0.6275680065155029;-0.2635200023651123;1.1604639291763306;0.0;0.0;0.0
2189;0.0;0.0;0.0;0.611952006816864;-0.30646398663520813;1.1643680334091187;0.0;0.0;0.0
2191;0.0;0.0;0.0;0.6158559918403625;-0.2869440019130707;1.1604639291763306;0.0;0.0;0.0
2193;0.5014199614524841;-0.15908800065517426;1.0338280200958252;0.6041439771652222;-0.33769598603248596;1.173151969909668;-11.064375877380371;3.9156250953674316;2.8787500858306885
2195;0.0;0.0;0.0;0.6041439771652222;-0.34940800070762634;1.1360639333724976;0.0;0.0;0.0
2197;0.0;0.0;0.0;0.5777919888496399;-0.3298879861831665;1.1526559591293335;0.0;0.0;0.0
2199;0.0;0.0;0.0;0.6051200032234192;-0.37673598527908325;1.156559944152832;0.0;0.0;0.0
2201;0.4714079797267914;-0.2205759882926941;1.0374879837036133;0.5777919888496399;-0.41577598452568054;1.1682720184326172;-16.87437629699707;-2.9443750381469727;2.3187501430511475
2204;0.0;0.0;0.0;0.5934079885482788;-0.39235198497772217;1.156559944152832;0.0;0.0;0.0
2206;0.0;0.0;0.0;0.5934079885482788;-0.4509119987487793;1.124351978302002;0.0;0.0;0.0
2208;0.0;0.0;0.0;0.6090239882469177;-0.4274879992008209;1.1204479932785034;0.0;0.0;0.0
2210;0.46237999200820923;-0.28133198618888855;1.0113799571990967;0.562175989151001;-0.44310399889945984;1.124351978302002;-19.39437484741211;-9.454375267028809;0.14875000715255737
2212;0.0;0.0;0.0;0.6080479621887207;-0.4626239836215973;1.1116639375686646;0.0;0.0;0.0
2214;0.0;0.0;0.0;0.5816959738731384;-0.4626239836215973;1.09116792678833;0.0;0.0;0.0
2216;0.0;0.0;0.0;0.5934079885482788;-0.4938559830188751;1.083359956741333;0.0;0.0;0.0
2218;0.4731159806251526;-0.3228119909763336;0.9735599756240845;0.6051200032234192;-0.48214399814605713;1.083359956741333;-18.484375;-13.164375305175781;-3.7012500762939453
2221;0.0;0.0;0.0;0.6051200032234192;-0.47043198347091675;1.083359956741333;0.0;0.0;0.0
2223;0.0;0.0;0.0;0.6314719915390015;-0.47043198347091675;1.0794559717178345;0.0;0.0;0.0
2225;0.0;0.0;0.0;0.5895040035247803;-0.47043198347091675;1.0589599609375;0.0;0.0;0.0
2227;0.48311999440193176;-0.33305999636650085;0.9535520076751709;0.6002399921417236;-0.4782399833202362;1.066767930984497;-15.5443754196167;-13.864375114440918;-7.971250057220459
2229;0.0;0.0;0.0;0.5895040035247803;-0.4665279984474182;1.0589599609375;0.0;0.0;0.0
2231;0.0;0.0;0.0;0.5816959738731384;-0.45481598377227783;1.0589599609375;0.0;0.0;0.0
2233;0.0;0.0;0.0;0.5582720041275024;-0.4665279984474182;1.0550559759140015;0.0;0.0;0.0
2236;0.4472520053386688;-0.3230559825897217;0.9440360069274902;0.5348479747772217;-0.45871999859809875;1.066767930984497;-11.554375648498535;-13.514375686645508;-12.311249732971191
2238;0.0;0.0;0.0;0.5387519598007202;-0.4470079839229584;1.075551986694336;0.0;0.0;0.0
2240;0.0;0.0;0.0;0.5114240050315857;-0.4509119987487793;1.066767930984497;0.0;0.0;0.0
2242;0.0;0.0;0.0;0.5075199604034424;-0.43139198422431946;1.066767930984497;0.0;0.0;0.0
2244;0.3938159942626953;-0.2996319830417633;0.9425719976425171;0.4840959906578064;-0.4274879992008209;1.0628639459609985;-8.47437572479248;-13.024374961853027;-17.001251220703125
2246;0.0;0.0;0.0;0.4684799909591675;-0.43139198422431946;1.0550559759140015;0.0;0.0;0.0
2248;0.0;0.0;0.0;0.460671991109848;-0.4391999840736389;1.0550559759140015;0.0;0.0;0.0
2250;0.0;0.0;0.0;0.4450559914112091;-0.4274879992008209;1.0872639417648315;0.0;0.0;0.0
2252;0.3247639834880829;-0.27718400955200195;0.9467200040817261;0.4411519765853882;-0.4001599848270416;1.0794559717178345;-5.534375190734863;-13.164375305175781;-19.94124984741211
2255;0.0;0.0;0.0;0.3903999924659729;-0.3806400001049042;1.0628639459609985;0.0;0.0;0.0
2257;0.0;0.0;0.0;0.35526400804519653;-0.3689279854297638;1.0794559717178345;0.0;0.0;0.0
2259;0.0;0.0;0.0;0.35624000430107117;-0.3806400001049042;1.0794559717178345;0.0;0.0;0.0
2261;0.25058799982070923;-0.2378999888896942;0.9547719955444336;0.34062400460243225;-0.3806400001049042;1.0794559717178345;-2.174375057220459;-14.914375305175781;-21.201250076293945
2263;0.0;0.0;0.0;0.32500800490379333;-0.3455039858818054;1.075551986694336;0.0;0.0;0.0
2265;0.0;0.0;0.0;0.29767999053001404;-0.32207998633384705;1.075551986694336;0.0;0.0;0.0
2267;0.0;0.0;0.0;0.30158400535583496;-0.32598400115966797;1.09116792678833;0.0;0.0;0.0
2269;0.19349199533462524;-0.19885998964309692;0.9557479619979858;0.2898719906806946;-0.3181760013103485;1.066767930984497;0.06562499701976776;-18.064374923706055;-20.85125160217285
2272;0.0;0.0;0.0;0.3093920052051544;-0.31036800146102905;1.0628639459609985;0.0;0.0;0.0
2274;0.0;0.0;0.0;0.30158400535583496;-0.3025600016117096;1.0462720394134521;0.0;0.0;0.0
2276;0.0;0.0;0.0;0.3054879903793335;-0.3337920010089874;1.034559965133667;0.0;0.0;0.0
2278;0.16860400140285492;-0.1705559939146042;0.929639995098114;0.27035200595855713;-0.28303998708724976;1.0462720394134521;1.6756250858306885;-20.794374465942383;-20.08125114440918
2280;0.0;0.0;0.0;0.27035200595855713;-0.2791360020637512;1.0462720394134521;0.0;0.0;0.0
2282;0.0;0.0;0.0;0.3093920052051544;-0.2791360020637512;1.0257760286331177;0.0;0.0;0.0
2284;0.0;0.0;0.0;0.2781600058078766;-0.26742398738861084;1.0462720394134521;0.0;0.0;0.0
2286;0.16201600432395935;-0.1361519992351532;0.9164639711380005;0.27425599098205566;-0.236191987991333;1.051151990890503;1.8156250715255737;-21.07437515258789;-18.611249923706055
2289;0.0;0.0;0.0;0.25863999128341675;-0.2205759882926941;1.034559965133667;0.0;0.0;0.0
2291;0.0;0.0;0.0;0.2508319914340973;-0.24009600281715393;1.034559965133667;0.0;0.0;0.0
2293;0.0;0.0;0.0;0.24302399158477783;-0.236191987991333;1.066767930984497;0.0;0.0;0.0
2295;0.11492399871349335;-0.1041879951953888;0.929639995098114;0.21569599211215973;-0.236191987991333;1.0589599609375;-0.5643749833106995;-19.884374618530273;-13.78125
2297;0.0;0.0;0.0;0.2030079960823059;-0.19715198874473572;1.0726239681243896;0.0;0.0;0.0
2299;0.0;0.0;0.0;0.14444799721240997;-0.22838398814201355;1.0765279531478882;0.0;0.0;0.0
2301;0.0;0.0;0.0;0.12492799758911133;-0.2205759882926941;1.0482239723205566;0.0;0.0;0.0
2303;0.0302559994161129;-0.09491600096225739;0.9352520108222961;0.1210239976644516;-0.22448000311851501;1.0599359273910522;-3.854374885559082;-20.794374465942383;-6.991250038146973
2306;0.0;0.0;0.0;0.09857599437236786;-0.23228800296783447;1.0648159980773926;0.0;0.0;0.0
2308;0.0;0.0;0.0;0.10247999429702759;-0.22838398814201355;1.0599359273910522;0.0;0.0;0.0
2310;0.0;0.0;0.0;0.08686399459838867;-0.2635200023651123;1.0765279531478882;0.0;0.0;0.0
2312;-0.03294000029563904;-0.09955199807882309;0.945743978023529;0.07515199482440948;-0.24399998784065247;1.0726239681243896;-7.074375152587891;-22.544374465942383;-0.971250057220459
2314;0.0;0.0;0.0;0.06831999868154526;-0.27132800221443176;1.0960479974746704;0.0;0.0;0.0
2316;0.0;0.0;0.0;0.05660799890756607;-0.25571200251579285;1.075551986694336;0.0;0.0;0.0
2318;0.0;0.0;0.0;0.0605119988322258;-0.25571200251579285;1.0794559717178345;0.0;0.0;0.0
2320;-0.06539200246334076;-0.11126399785280228;0.9611159563064575;0.05270399898290634;-0.2596159875392914;1.09116792678833;-12.954375267028809;-24.154375076293945;3.9987499713897705
2323;0.0;0.0;0.0;0.0331839993596077;-0.27132800221443176;1.066767930984497;0.0;0.0;0.0
2325;0.0;0.0;0.0;0.0331839993596077;-0.27132800221443176;1.0872639417648315;0.0;0.0;0.0
2327;0.0;0.0;0.0;0.029279999434947968;-0.25571200251579285;1.0589599609375;0.0;0.0;0.0
2329;-0.09027999639511108;-0.13078400492668152;0.9647759795188904;0.06441599875688553;-0.27132800221443176;1.1038559675216675;-20.37437629699707;-24.504375457763672;6.378749847412109
2331;0.0;0.0;0.0;0.037087999284267426;-0.3025600016117096;1.0872639417648315;0.0;0.0;0.0
2333;0.0;0.0;0.0;0.02147199958562851;-0.30646398663520813;1.0794559717178345;0.0;0.0;0.0
2335;0.0;0.0;0.0;0.02147199958562851;-0.32207998633384705;1.0872639417648315;0.0;0.0;0.0
2337;-0.09955199807882309;-0.17763200402259827;0.9738039970397949;0.02537599951028824;-0.3689279854297638;1.1116639375686646;-27.024375915527344;-24.57437515258789;6.93874979019165
2340;0.0;0.0;0.0;-0.009759999811649323;-0.3728320002555847;1.107759952545166;0.0;0.0;0.0
2342;0.0;0.0;0.0;0.0058559998869895935;-0.3572160005569458;1.0872639417648315;0.0;0.0;0.0
2344;0.0;0.0;0.0;-0.04879999905824661;-0.4001599848270416;1.0950720310211182;0.0;0.0;0.0
2346;-0.13712799549102783;-0.23106800019741058;0.9740479588508606;-0.05660799890756607;-0.3806400001049042;1.09116792678833;-31.78437614440918;-24.294374465942383;5.818749904632568
2348;0.0;0.0;0.0;-0.045871999114751816;-0.38844799995422363;1.0804319381713867;0.0;0.0;0.0
2350;0.0;0.0;0.0;-0.07320000231266022;-0.41967999935150146;1.0687199831008911;0.0;0.0;0.0
2352;0.0;0.0;0.0;-0.08100800216197968;-0.4079679846763611;1.0892159938812256;0.0;0.0;0.0
2354;-0.1878799945116043;-0.27620798349380493;0.9633119702339172;-0.06148799881339073;-0.4470079839229584;1.0892159938812256;-33.18437576293945;-23.594375610351562;2.3187501430511475
2357;0.0;0.0;0.0;-0.06148799881339073;-0.44310399889945984;1.0726239681243896;0.0;0.0;0.0
2359;0.0;0.0;0.0;-0.07320000231266022;-0.4665279984474182;1.0648159980773926;0.0;0.0;0.0
2361;0.0;0.0;0.0;-0.09272000193595886;-0.4509119987487793;1.0726239681243896;0.0;0.0;0.0
2363;-0.20959599316120148;-0.31549200415611267;0.9528200030326843;-0.09662400186061859;-0.48214399814605713;1.0687199831008911;-31.504375457763672;-20.934375762939453;-2.5112500190734863
2365;0.0;0.0;0.0;-0.10345599800348282;-0.47433599829673767;1.0794559717178345;0.0;0.0;0.0
2367;0.0;0.0;0.0;-0.09174399822950363;-0.4626239836215973;1.075551986694336;0.0;0.0;0.0
2369;0.0;0.0;0.0;-0.10735999792814255;-0.47043198347091675;1.0706720352172852;0.0;0.0;0.0
2372;-0.2315559983253479;-0.33842799067497253;0.9469639658927917;-0.1180959939956665;-0.4782399833202362;1.0589599609375;-26.744375228881836;-16.244375228881836;-6.851250171661377
2374;0.0;0.0;0.0;-0.1571359932422638;-0.48214399814605713;1.066767930984497;0.0;0.0;0.0
2376;0.0;0.0;0.0;-0.16494399309158325;-0.47043198347091675;1.0872639417648315;0.0;0.0;0.0
2378;0.0;0.0;0.0;-0.19617599248886108;-0.47433599829673767;1.0960479974746704;0.0;0.0;0.0
2380;-0.2869440019130707;-0.33183997869491577;0.9635559916496277;-0.20788799226284027;-0.45871999859809875;1.083359956741333;-19.39437484741211;-10.854374885559082;-9.651249885559082
2382;0.0;0.0;0.0;-0.21667200326919556;-0.4274879992008209;1.1087360382080078;0.0;0.0;0.0
2384;0.0;0.0;0.0;-0.23228800296783447;-0.423583984375;1.1292319297790527;0.0;0.0;0.0
2386;0.0;0.0;0.0;-0.25571200251579285;-0.4001599848270416;1.1380159854888916;0.0;0.0;0.0
2388;-0.35819199681282043;-0.29109200835227966;1.010159969329834;-0.28303998708724976;-0.411871999502182;1.1497279405593872;-12.814375877380371;-7.494375228881836;-11.331250190734863
2391;0.0;0.0;0.0;-0.27132800221443176;-0.3962559998035431;1.1907199621200562;0.0;0.0;0.0
