Timestamp(ms);LG-Accel x(g);LG-Accel y(g);LG-Accel z(g);HG-Accel x(g);HG-Accel y(g);HG-Accel z(g);Gyro x(dps);Gyro y(dps);Gyro z(dps)
71;0.0;0.0;0.0;0.14347200095653534;-0.1815359890460968;1.1302080154418945;0.0;0.0;0.0
74;0.0;0.0;0.0;0.14737600088119507;-0.1542080044746399;1.1428959369659424;0.0;0.0;0.0
76;0.0;0.0;0.0;0.14347200095653534;-0.16591998934745789;1.158511996269226;0.0;0.0;0.0
78;0.0;0.0;0.0;0.1698240041732788;-0.1815359890460968;1.1428959369659424;0.0;0.0;0.0
80;0.0;0.0;0.0;0.15908800065517426;-0.20495998859405518;1.146799921989441;0.0;0.0;0.0
82;0.0;0.0;0.0;0.18544000387191772;-0.2147199958562851;1.1370400190353394;0.0;0.0;0.0
84;0.0;0.0;0.0;0.15518400073051453;-0.230335995554924;1.140944004058838;0.0;0.0;0.0
86;0.0;0.0;0.0;0.16201600432395935;-0.24595199525356293;1.1604639291763306;0.0;0.0;0.0
88;0.04196799919009209;-0.10052800178527832;1.006011962890625;0.1395680010318756;-0.2810879945755005;1.1604639291763306;0.0;0.0;0.0
90;0.0;0.0;0.0;0.16591998934745789;-0.26156800985336304;1.1282559633255005;0.0;0.0;0.0
93;0.0;0.0;0.0;0.11614400148391724;-0.2810879945755005;1.1526559591293335;0.0;0.0;0.0
95;0.0;0.0;0.0;0.09272000193595886;-0.29280000925064087;1.156559944152832;0.0;0.0;0.0
97;0.0014639999717473984;-0.14908400177955627;1.0157719850540161;0.12004800140857697;-0.3084160089492798;1.189743995666504;0.0;0.0;0.0
99;0.0;0.0;0.0;0.09272000193595886;-0.2967039942741394;1.1848639249801636;0.0;0.0;0.0
101;0.0;0.0;0.0;0.06539200246334076;-0.31622397899627686;1.1936479806900024;0.0;0.0;0.0
103;0.0;0.0;0.0;0.053679998964071274;-0.32793599367141724;1.2092639207839966;0.0;0.0;0.0
105;-0.0558759979903698;-0.177387997508049;1.0535919666290283;0.03806399926543236;-0.32793599367141724;1.2092639207839966;0.0;0.0;0.0
108;0.0;0.0;0.0;0.010735999792814255;-0.3240320086479187;1.2092639207839966;0.0;0.0;0.0
110;0.0;0.0;0.0;0.010735999792814255;-0.37088000774383545;1.205359935760498;0.0;0.0;0.0
112;0.0;0.0;0.0;-0.0009759999811649323;-0.35916799306869507;1.205359935760498;0.0;0.0;0.0
114;-0.09979599714279175;-0.2222839891910553;1.0772600173950195;0.03806399926543236;-0.374783992767334;1.2258559465408325;0.0;0.0;0.0
116;0.0;0.0;0.0;0.006831999868154526;-0.39430397748947144;1.2092639207839966;0.0;0.0;0.0
118;0.0;0.0;0.0;-0.020495999604463577;-0.39820799231529236;1.1936479806900024;0.0;0.0;0.0
120;0.0;0.0;0.0;-0.032207999378442764;-0.39820799231529236;1.197551965713501;0.0;0.0;0.0
122;-0.14005599915981293;-0.2566879987716675;1.0718920230865479;-0.05953599885106087;-0.3903999924659729;1.197551965713501;0.0;0.0;0.0
125;0.0;0.0;0.0;-0.07417599856853485;-0.39430397748947144;1.221951961517334;0.0;0.0;0.0
127;0.0;0.0;0.0;-0.09759999811649323;-0.3630719780921936;1.2180479764938354;0.0;0.0;0.0
129;0.0;0.0;0.0;-0.07905599474906921;-0.4021120071411133;1.221951961517334;0.0;0.0;0.0
131;-0.19739599525928497;-0.24936799705028534;1.0826280117034912;-0.09759999811649323;-0.39430397748947144;1.221951961517334;15.465624809265137;11.423125267028809;22.986249923706055
133;0.0;0.0;0.0;-0.08979199826717377;-0.35526400804519653;1.221951961517334;0.0;0.0;0.0
135;0.0;0.0;0.0;-0.11711999773979187;-0.35916799306869507;1.2336640357971191;0.0;0.0;0.0
137;0.0;0.0;0.0;-0.14054399728775024;-0.3474559783935547;1.2424479722976685;0.0;0.0;0.0
139;-0.2508319914340973;-0.2176479995250702;1.1070280075073242;-0.15615999698638916;-0.3201279938220978;1.2658720016479492;20.505624771118164;12.753125190734863;21.72624969482422
142;0.0;0.0;0.0;-0.14054399728775024;-0.3123199939727783;1.2336640357971191;0.0;0.0;0.0
144;0.0;0.0;0.0;-0.1600639969110489;-0.30060797929763794;1.2414720058441162;0.0;0.0;0.0
146;0.0;0.0;0.0;-0.19910399615764618;-0.28889599442481995;1.2502559423446655;0.0;0.0;0.0
148;-0.28255200386047363;-0.1751919984817505;1.1148359775543213;-0.187391996383667;-0.31622397899627686;1.2619680166244507;20.85562515258789;13.663125038146973;19.556249618530273
150;0.0;0.0;0.0;-0.16787199676036835;-0.2547360062599182;1.2648959159851074;0.0;0.0;0.0
152;0.0;0.0;0.0;-0.21081599593162537;-0.24302399158477783;1.2531839609146118;0.0;0.0;0.0
154;0.0;0.0;0.0;-0.2030079960823059;-0.2391199916601181;1.285391926765442;0.0;0.0;0.0
156;-0.333547979593277;-0.12297599762678146;1.1316720247268677;-0.24985599517822266;-0.24302399158477783;1.2697759866714478;17.42562484741211;14.783124923706055;16.896249771118164
159;0.0;0.0;0.0;-0.2654719948768616;-0.2235039919614792;1.285391926765442;0.0;0.0;0.0
161;0.0;0.0;0.0;-0.284991979598999;-0.2235039919614792;1.2697759866714478;0.0;0.0;0.0
163;0.0;0.0;0.0;-0.28889599442481995;-0.20788799226284027;1.2814879417419434;0.0;0.0;0.0
165;-0.399183988571167;-0.09223199635744095;1.1589999198913574;-0.30451199412345886;-0.21569599211215973;1.2980799674987793;9.725625038146973;14.013124465942383;13.326250076293945
167;0.0;0.0;0.0;-0.3201279938220978;-0.2147199958562851;1.3312640190124512;0.0;0.0;0.0
169;0.0;0.0;0.0;-0.33086398243904114;-0.21862399578094482;1.327359914779663;0.0;0.0;0.0
171;0.0;0.0;0.0;-0.35819199681282043;-0.21862399578094482;1.3312640190124512;0.0;0.0;0.0
173;-0.4592079818248749;-0.08588799834251404;1.191208004951477;-0.36209598183631897;-0.22252799570560455;1.3351680040359497;-1.0543750524520874;11.213125228881836;9.826249122619629
176;0.0;0.0;0.0;-0.3699039816856384;-0.20691199600696564;1.343951940536499;0.0;0.0;0.0
178;0.0;0.0;0.0;-0.350383996963501;-0.23814399540424347;1.3312640190124512;0.0;0.0;0.0
180;0.0;0.0;0.0;-0.3542879819869995;-0.2537599802017212;1.3517600297927856;0.0;0.0;0.0
182;-0.4836079776287079;-0.10735999792814255;1.2080439329147339;-0.36209598183631897;-0.27327999472618103;1.3234559297561646;-11.204375267028809;6.663125038146973;8.146249771118164
184;0.0;0.0;0.0;-0.37380799651145935;-0.2654719948768616;1.3146719932556152;0.0;0.0;0.0
186;0.0;0.0;0.0;-0.3659999966621399;-0.27327999472618103;1.343951940536499;0.0;0.0;0.0
188;0.0;0.0;0.0;-0.3777119815349579;-0.2693759799003601;1.3234559297561646;0.0;0.0;0.0
190;-0.49019598960876465;-0.14566799998283386;1.1977959871292114;-0.38551998138427734;-0.28889599442481995;1.3146719932556152;-17.014375686645508;2.6731250286102295;7.866250038146973
193;0.0;0.0;0.0;-0.36209598183631897;-0.30060797929763794;1.3146719932556152;0.0;0.0;0.0
195;0.0;0.0;0.0;-0.35819199681282043;-0.3201279938220978;1.2990559339523315;0.0;0.0;0.0
197;0.0;0.0;0.0;-0.38942399621009827;-0.31622397899627686;1.3068640232086182;0.0;0.0;0.0
199;-0.49775999784469604;-0.18251200020313263;1.1816920042037964;-0.3816159963607788;-0.32793599367141724;1.30295991897583;-18.974374771118164;-0.6168749928474426;7.306250095367432
201;0.0;0.0;0.0;-0.3816159963607788;-0.35526400804519653;1.30295991897583;0.0;0.0;0.0
203;0.0;0.0;0.0;-0.34647998213768005;-0.37088000774383545;1.2824640274047852;0.0;0.0;0.0
205;0.0;0.0;0.0;-0.3425759971141815;-0.35916799306869507;1.2863680124282837;0.0;0.0;0.0
207;-0.47262799739837646;-0.22765199840068817;1.1553399562835693;-0.3357439935207367;-0.38649600744247437;1.2746559381484985;-17.434375762939453;-3.2068750858306885;5.836249828338623
210;0.0;0.0;0.0;-0.3240320086479187;-0.38649600744247437;1.2746559381484985;0.0;0.0;0.0
212;0.0;0.0;0.0;-0.3123199939727783;-0.3903999924659729;1.270751953125;0.0;0.0;0.0
214;0.0;0.0;0.0;-0.3084160089492798;-0.4021120071411133;1.246351957321167;0.0;0.0;0.0
216;-0.42504799365997314;-0.26498398184776306;1.1294759511947632;-0.2810879945755005;-0.4138239920139313;1.229759931564331;-11.484375;-3.6268749237060547;5.066249847412109
218;0.0;0.0;0.0;-0.284991979598999;-0.42163199186325073;1.2180479764938354;0.0;0.0;0.0
220;0.0;0.0;0.0;-0.2810879945755005;-0.42163199186325073;1.221951961517334;0.0;0.0;0.0
222;0.0;0.0;0.0;-0.284991979598999;-0.43724799156188965;1.2092639207839966;0.0;0.0;0.0
224;-0.4001599848270416;-0.297435998916626;1.0862879753112793;-0.24595199525356293;-0.43724799156188965;1.2131680250167847;-1.7543751001358032;-1.5968749523162842;3.7362499237060547
227;0.0;0.0;0.0;-0.30060797929763794;-0.4450559914112091;1.205359935760498;0.0;0.0;0.0
229;0.0;0.0;0.0;-0.27718400955200195;-0.44896000623703003;1.2014559507369995;0.0;0.0;0.0
231;0.0;0.0;0.0;-0.2967039942741394;-0.4333440065383911;1.1936479806900024;0.0;0.0;0.0
233;-0.40235599875450134;-0.28255200386047363;1.0633519887924194;-0.284991979598999;-0.37088000774383545;1.205359935760498;9.095624923706055;1.4131250381469727;-0.4637500047683716
235;0.0;0.0;0.0;-0.2820639908313751;-0.3786879777908325;1.173151969909668;0.0;0.0;0.0
237;0.0;0.0;0.0;-0.2664479911327362;-0.34355199337005615;1.189743995666504;0.0;0.0;0.0
239;0.0;0.0;0.0;-0.26254400610923767;-0.32793599367141724;1.156559944152832;0.0;0.0;0.0
241;-0.3974759876728058;-0.2198439985513687;1.0477359294891357;-0.2664479911327362;-0.3357439935207367;1.1604639291763306;16.165624618530273;3.1631250381469727;-6.973750114440918
244;0.0;0.0;0.0;-0.2508319914340973;-0.32793599367141724;1.173151969909668;0.0;0.0;0.0
246;0.0;0.0;0.0;-0.21959999203681946;-0.2967039942741394;1.1604639291763306;0.0;0.0;0.0
248;0.0;0.0;0.0;-0.21959999203681946;-0.30451199412345886;1.148751974105835;0.0;0.0;0.0
250;-0.3508719801902771;-0.16665199398994446;1.024067997932434;-0.20788799226284027;-0.2810879945755005;1.1282559633255005;18.615625381469727;4.073124885559082;-11.593750953674316
252;0.0;0.0;0.0;-0.1844639927148819;-0.27718400955200195;1.148751974105835;0.0;0.0;0.0
254;0.0;0.0;0.0;-0.18055999279022217;-0.26156800985336304;1.1165440082550049;0.0;0.0;0.0
256;0.0;0.0;0.0;-0.1727519929409027;-0.22643199563026428;1.1204479932785034;0.0;0.0;0.0
258;-0.3042680025100708;-0.12517200410366058;0.9845399856567383;-0.19227199256420135;-0.19910399615764618;1.075551986694336;17.705625534057617;5.963124752044678;-12.783750534057617
261;0.0;0.0;0.0;-0.1727519929409027;-0.21862399578094482;1.1087360382080078;0.0;0.0;0.0
263;0.0;0.0;0.0;-0.1454239934682846;-0.2030079960823059;1.107759952545166;0.0;0.0;0.0
265;0.0;0.0;0.0;-0.13761599361896515;-0.187391996383667;1.1038559675216675;0.0;0.0;0.0
267;-0.27303600311279297;-0.0802759975194931;0.9706319570541382;-0.11419199407100677;-0.20691199600696564;1.1116639375686646;14.135624885559082;8.763124465942383;-12.363750457763672
269;0.0;0.0;0.0;-0.13663999736309052;-0.18348799645900726;1.0960479974746704;0.0;0.0;0.0
271;0.0;0.0;0.0;-0.11321599781513214;-0.21862399578094482;1.1038559675216675;0.0;0.0;0.0
273;0.0;0.0;0.0;-0.10931199789047241;-0.22252799570560455;1.0960479974746704;0.0;0.0;0.0
276;-0.24131599068641663;-0.07197999954223633;0.9720959663391113;-0.09759999811649323;-0.2030079960823059;1.1126400232315063;7.48562479019165;9.883124351501465;-10.893750190734863
278;0.0;0.0;0.0;-0.06734399497509003;-0.2147199958562851;1.099951982498169;0.0;0.0;0.0
280;0.0;0.0;0.0;-0.07515199482440948;-0.23423999547958374;1.0921440124511719;0.0;0.0;0.0
282;0.0;0.0;0.0;-0.07124799489974976;-0.23423999547958374;1.0794559717178345;0.0;0.0;0.0
284;-0.19568799436092377;-0.1000399962067604;0.9557479619979858;-0.06734399497509003;-0.23423999547958374;1.0794559717178345;2.7256250381469727;9.953125;-8.723750114440918
286;0.0;0.0;0.0;-0.028303999453783035;-0.2420479953289032;1.083359956741333;0.0;0.0;0.0
288;0.0;0.0;0.0;-0.0009759999811649323;-0.29280000925064087;1.0599359273910522;0.0;0.0;0.0
290;0.0;0.0;0.0;-0.020495999604463577;-0.27327999472618103;1.0599359273910522;0.0;0.0;0.0
293;-0.14615599811077118;-0.13371199369430542;0.9345200061798096;-0.004879999905824661;-0.2693759799003601;1.0638400316238403;3.3556251525878906;10.513124465942383;-7.953750133514404
295;0.0;0.0;0.0;0.010735999792814255;-0.27327999472618103;1.0589599609375;0.0;0.0;0.0
297;0.0;0.0;0.0;0.022447999566793442;-0.2654719948768616;1.0394400358200073;0.0;0.0;0.0
299;0.0;0.0;0.0;0.053679998964071274;-0.2693759799003601;1.0189440250396729;0.0;0.0;0.0
301;-0.0954039990901947;-0.13346800208091736;0.9210999608039856;0.022447999566793442;-0.2537599802017212;1.0550559759140015;6.435625076293945;11.423125267028809;-9.073750495910645
303;0.0;0.0;0.0;0.07710400223731995;-0.26156800985336304;1.0306559801101685;0.0;0.0;0.0
305;0.0;0.0;0.0;0.08881600201129913;-0.23814399540424347;1.051151990890503;0.0;0.0;0.0
307;0.0;0.0;0.0;0.11224000155925751;-0.2654719948768616;1.02675199508667;0.0;0.0;0.0
310;-0.028060000389814377;-0.12151199579238892;0.9025560021400452;0.11224000155925751;-0.23423999547958374;0.9984479546546936;9.375624656677246;12.963125228881836;-9.843750953674316
312;0.0;0.0;0.0;0.12785600125789642;-0.19129599630832672;1.0189440250396729;0.0;0.0;0.0
314;0.0;0.0;0.0;0.1239520013332367;-0.20691199600696564;1.0111359357833862;0.0;0.0;0.0
316;0.0;0.0;0.0;0.1698240041732788;-0.23423999547958374;1.0150399208068848;0.0;0.0;0.0
318;0.032207999378442764;-0.09784399718046188;0.8786439895629883;0.22448000311851501;-0.24985599517822266;0.9906399846076965;11.965624809265137;15.063124656677246;-8.6537504196167
320;0.0;0.0;0.0;0.20398399233818054;-0.20691199600696564;0.9984479546546936;0.0;0.0;0.0
322;0.0;0.0;0.0;0.1727519929409027;-0.1756799966096878;1.0189440250396729;0.0;0.0;0.0
324;0.0;0.0;0.0;0.19227199256420135;-0.21862399578094482;0.9945439696311951;0.0;0.0;0.0
327;0.07173600047826767;-0.06392800062894821;0.8713240027427673;0.20398399233818054;-0.17958399653434753;0.9945439696311951;15.815625190734863;18.703125;-6.553750038146973
329;0.0;0.0;0.0;0.18055999279022217;-0.15225599706172943;1.002351999282837;0.0;0.0;0.0
331;0.0;0.0;0.0;0.16884799301624298;-0.1327359974384308;1.0189440250396729;0.0;0.0;0.0
333;0.0;0.0;0.0;0.19617599248886108;-0.1327359974384308;1.0355359315872192;0.0;0.0;0.0
335;0.07149200141429901;-0.012443999759852886;0.8793759942054749;0.1844639927148819;-0.12883199751377106;0.9828319549560547;15.745624542236328;20.173124313354492;-6.553750038146973
337;0.0;0.0;0.0;0.21569599211215973;-0.15615999698638916;1.0228480100631714;0.0;0.0;0.0
339;0.0;0.0;0.0;0.2547360062599182;-0.13663999736309052;1.0306559801101685;0.0;0.0;0.0
341;0.0;0.0;0.0;0.2391199916601181;-0.1756799966096878;1.0150399208068848;0.0;0.0;0.0
344;0.12370799481868744;-0.018055999651551247;0.8810839653015137;0.2781600058078766;-0.17958399653434753;1.0150399208068848;14.065625190734863;19.963125228881836;-10.263750076293945
346;0.0;0.0;0.0;0.2937760055065155;-0.16396799683570862;0.9984479546546936;0.0;0.0;0.0
348;0.0;0.0;0.0;0.2820639908313751;-0.1327359974384308;1.0306559801101685;0.0;0.0;0.0
350;0.0;0.0;0.0;0.2937760055065155;-0.1327359974384308;1.0355359315872192;0.0;0.0;0.0
352;0.15933199226856232;-0.014639999717473984;0.8823039531707764;0.28596800565719604;-0.11321599781513214;1.0228480100631714;14.135624885559082;20.803125381469727;-9.49375057220459
354;0.0;0.0;0.0;0.2869440019130707;-0.10931199789047241;1.0355359315872192;0.0;0.0;0.0
356;0.0;0.0;0.0;0.2908479869365692;-0.07807999849319458;1.02675199508667;0.0;0.0;0.0
358;0.0;0.0;0.0;0.29475200176239014;-0.09759999811649323;1.0355359315872192;0.0;0.0;0.0
361;0.1710439920425415;0.023667998611927032;0.8920639753341675;0.3025600016117096;-0.0663679987192154;1.0306559801101685;16.165624618530273;19.61312484741211;-7.463749885559082
363;0.0;0.0;0.0;0.32598400115966797;-0.08198399841785431;1.0433440208435059;0.0;0.0;0.0
365;0.0;0.0;0.0;0.32598400115966797;-0.0663679987192154;1.034559965133667;0.0;0.0;0.0
367;0.0;0.0;0.0;0.3337920010089874;-0.03513599932193756;1.0355359315872192;0.0;0.0;0.0
369;0.19690799713134766;0.07124799489974976;0.9071919918060303;0.3181760013103485;-0.04684799909591675;1.0394400358200073;15.745624542236328;16.813125610351562;-4.59375
371;0.0;0.0;0.0;0.3181760013103485;-0.04684799909591675;1.0472480058670044;0.0;0.0;0.0
373;0.0;0.0;0.0;0.32598400115966797;-0.027327999472618103;1.0472480058670044;0.0;0.0;0.0
375;0.0;0.0;0.0;0.3416000008583069;-0.007807999849319458;1.0638400316238403;0.0;0.0;0.0
378;0.2130119949579239;0.09784399718046188;0.9215880036354065;0.36502400040626526;-0.019519999623298645;1.051151990890503;11.335624694824219;12.333125114440918;-2.0037500858306885
380;0.0;0.0;0.0;0.37673598527908325;-0.058559998869895935;1.051151990890503;0.0;0.0;0.0
382;0.0;0.0;0.0;0.39235198497772217;-0.058559998869895935;1.0716480016708374;0.0;0.0;0.0
384;0.0;0.0;0.0;0.3806400001049042;-0.05075199902057648;1.0589599609375;0.0;0.0;0.0
386;0.25278398394584656;0.09491600096225739;0.9293959736824036;0.38844799995422363;-0.054655998945236206;1.0550559759140015;5.105624675750732;6.033124923706055;2.336250066757202
388;0.0;0.0;0.0;0.4108960032463074;-0.05075199902057648;1.0394400358200073;0.0;0.0;0.0
390;0.0;0.0;0.0;0.4265120029449463;-0.05075199902057648;1.0433440208435059;0.0;0.0;0.0
392;0.0;0.0;0.0;0.30646398663520813;-0.03903999924659729;1.0638400316238403;0.0;0.0;0.0
395;0.28303998708724976;0.09442799538373947;0.9186599850654602;0.4928799867630005;-0.03903999924659729;1.0550559759140015;0.6956249475479126;1.9731249809265137;5.766250133514404
397;0.0;0.0;0.0;0.4655520021915436;-0.04294399917125702;1.0599359273910522;0.0;0.0;0.0
399;0.0;0.0;0.0;0.4694559872150421;-0.0936959981918335;1.051151990890503;0.0;0.0;0.0
401;0.0;0.0;0.0;0.5241119861602783;-0.10150399804115295;1.0394400358200073;0.0;0.0;0.0
403;0.36746400594711304;0.050995998084545135;0.9223200082778931;0.5280159711837769;-0.07807999849319458;1.0677440166473389;-3.434375047683716;-2.996875047683716;6.466249942779541
405;0.0;0.0;0.0;0.4967840015888214;-0.07124799489974976;1.0579839944839478;0.0;0.0;0.0
407;0.0;0.0;0.0;0.5475360155105591;-0.13371199369430542;1.0579839944839478;0.0;0.0;0.0
409;0.0;0.0;0.0;0.5592479705810547;-0.12590399384498596;1.0462720394134521;0.0;0.0;0.0
412;0.4177280068397522;0.011223999783396721;0.9289079904556274;0.5163040161132812;-0.16103999316692352;1.0950720310211182;-7.984375;-6.426875114440918;9.686249732971191
414;0.0;0.0;0.0;0.5514400005340576;-0.12590399384498596;1.0462720394134521;0.0;0.0;0.0
416;0.0;0.0;0.0;0.5358240008354187;-0.1454239934682846;1.066767930984497;0.0;0.0;0.0
418;0.0;0.0;0.0;0.5670560002326965;-0.16494399309158325;1.0706720352172852;0.0;0.0;0.0
420;0.4333440065383911;-0.025863999500870705;0.9315919876098633;0.5592479705810547;-0.19227199256420135;1.0462720394134521;-11.624375343322754;-10.486875534057617;11.646249771118164
422;0.0;0.0;0.0;0.5904799699783325;-0.19910399615764618;1.0472480058670044;0.0;0.0;0.0
424;0.0;0.0;0.0;0.5787680149078369;-0.230335995554924;1.0433440208435059;0.0;0.0;0.0
426;0.0;0.0;0.0;0.6295199990272522;-0.21081599593162537;1.0306559801101685;0.0;0.0;0.0
429;0.48555999994277954;-0.07441999763250351;0.9137799739837646;0.6334239840507507;-0.22643199563026428;1.0472480058670044;-13.514375686645508;-14.19687557220459;10.31624984741211
431;0.0;0.0;0.0;0.6490399837493896;-0.23814399540424347;1.02675199508667;0.0;0.0;0.0
433;0.0;0.0;0.0;0.6792960166931152;-0.2420479953289032;1.0150399208068848;0.0;0.0;0.0
435;0.0;0.0;0.0;0.6675840020179749;-0.284991979598999;1.0111359357833862;0.0;0.0;0.0
437;0.5421679615974426;-0.11882799863815308;0.8942599892616272;0.6714879870414734;-0.2537599802017212;1.0111359357833862;-13.304375648498535;-15.03687572479248;7.726250171661377
439;0.0;0.0;0.0;0.709551990032196;-0.2576639950275421;1.0189440250396729;0.0;0.0;0.0
441;0.0;0.0;0.0;0.6822239756584167;-0.2967039942741394;1.0355359315872192;0.0;0.0;0.0
443;0.0;0.0;0.0;0.7212640047073364;-0.28889599442481995;1.0062559843063354;0.0;0.0;0.0
446;0.5860880017280579;-0.1471319943666458;0.8803519606590271;0.7134559750556946;-0.29280000925064087;0.9984479546546936;-11.274374961853027;-14.126874923706055;3.596250057220459
448;0.0;0.0;0.0;0.7212640047073364;-0.31622397899627686;1.002351999282837;0.0;0.0;0.0
450;0.0;0.0;0.0;0.732975959777832;-0.27718400955200195;0.9701439738273621;0.0;0.0;0.0
452;0.0;0.0;0.0;0.7681120038032532;-0.32793599367141724;1.0111359357833862;0.0;0.0;0.0
454;0.6385480165481567;-0.16543199121952057;0.8608319759368896;0.7954399585723877;-0.29280000925064087;0.9662399888038635;-7.564375400543213;-11.53687572479248;0.0962500050663948
456;0.0;0.0;0.0;0.8149600028991699;-0.3357439935207367;0.9340319633483887;0.0;0.0;0.0
458;0.0;0.0;0.0;0.822767972946167;-0.3084160089492798;0.9662399888038635;0.0;0.0;0.0
461;0.0;0.0;0.0;0.799344003200531;-0.28889599442481995;0.9701439738273621;0.0;0.0;0.0
463;0.6832000017166138;-0.18007199466228485;0.8391159772872925;0.8032479882240295;-0.30451199412345886;0.9662399888038635;-2.034374952316284;-6.146875381469727;-1.2337499856948853
465;0.0;0.0;0.0;0.8149600028991699;-0.29280000925064087;0.9828319549560547;0.0;0.0;0.0
467;0.0;0.0;0.0;0.799344003200531;-0.3240320086479187;0.9662399888038635;0.0;0.0;0.0
469;0.0;0.0;0.0;0.7603039741516113;-0.32793599367141724;0.9789279699325562;0.0;0.0;0.0
471;0.6771000027656555;-0.183243989944458;0.8378959894180298;0.7798239588737488;-0.2967039942741394;0.986735999584198;4.265625;0.3631250262260437;-1.7237499952316284
473;0.0;0.0;0.0;0.7603039741516113;-0.31622397899627686;0.9945439696311951;0.0;0.0;0.0
475;0.0;0.0;0.0;0.7720159888267517;-0.31622397899627686;0.9828319549560547;0.0;0.0;0.0
478;0.0;0.0;0.0;0.7368800044059753;-0.30060797929763794;0.9984479546546936;0.0;0.0;0.0
480;0.644648015499115;-0.17641200125217438;0.8488759994506836;0.732975959777832;-0.29280000925064087;0.9818559885025024;10.495624542236328;5.053124904632568;-2.913749933242798
482;0.0;0.0;0.0;0.725167989730835;-0.2810879945755005;0.9906399846076965;0.0;0.0;0.0
484;0.0;0.0;0.0;0.7290719747543335;-0.29280000925064087;0.9945439696311951;0.0;0.0;0.0
486;0.0;0.0;0.0;0.7173599600791931;-0.30451199412345886;0.9818559885025024;0.0;0.0;0.0
488;0.607804000377655;-0.1546960026025772;0.8622959852218628;0.6861279606819153;-0.28889599442481995;1.002351999282837;15.885624885559082;7.433125019073486;-3.893749952316284
490;0.0;0.0;0.0;0.6939359903335571;-0.2693759799003601;1.0111359357833862;0.0;0.0;0.0
492;0.0;0.0;0.0;0.6783199906349182;-0.2810879945755005;1.02675199508667;0.0;0.0;0.0
495;0.0;0.0;0.0;0.6480640172958374;-0.23814399540424347;1.0228480100631714;0.0;0.0;0.0
497;0.5712040066719055;-0.11589999496936798;0.8825479745864868;0.6705119609832764;-0.19910399615764618;1.0189440250396729;18.8956241607666;7.573124885559082;-3.6137499809265137
499;0.0;0.0;0.0;0.6480640172958374;-0.21862399578094482;1.0150399208068848;0.0;0.0;0.0
501;0.0;0.0;0.0;0.6627039909362793;-0.19910399615764618;0.9945439696311951;0.0;0.0;0.0
503;0.0;0.0;0.0;0.6509919762611389;-0.17958399653434753;1.0111359357833862;0.0;0.0;0.0
505;0.5394839644432068;-0.06758800148963928;0.8945040106773376;0.6470879912376404;-0.18348799645900726;1.0189440250396729;17.845624923706055;5.193124771118164;-3.2637500762939453
507;0.0;0.0;0.0;0.6509919762611389;-0.14054399728775024;1.0394400358200073;0.0;0.0;0.0
509;0.0;0.0;0.0;0.636352002620697;-0.17177599668502808;1.0394400358200073;0.0;0.0;0.0
512;0.0;0.0;0.0;0.6558719873428345;-0.13663999736309052;1.0394400358200073;0.0;0.0;0.0
514;0.5228919982910156;-0.03367199748754501;0.8979200124740601;0.6519680023193359;-0.14444799721240997;1.02675199508667;13.295624732971191;1.4831249713897705;-3.6837499141693115
516;0.0;0.0;0.0;0.6285439729690552;-0.17177599668502808;1.0111359357833862;0.0;0.0;0.0
518;0.0;0.0;0.0;0.6207360029220581;-0.1600639969110489;1.0355359315872192;0.0;0.0;0.0
520;0.0;0.0;0.0;0.6090239882469177;-0.1483519971370697;1.0189440250396729;0.0;0.0;0.0
522;0.5080080032348633;-0.023180000483989716;0.9025560021400452;0.6246399879455566;-0.15225599706172943;1.0550559759140015;6.225625038146973;-2.156874895095825;-4.033750057220459
524;0.0;0.0;0.0;0.6207360029220581;-0.14054399728775024;1.034559965133667;0.0;0.0;0.0
526;0.0;0.0;0.0;0.6129279732704163;-0.16396799683570862;1.0433440208435059;0.0;0.0;0.0
529;0.0;0.0;0.0;0.6207360029220581;-0.14444799721240997;1.0599359273910522;0.0;0.0;0.0
531;0.48385199904441833;-0.021959999576210976;0.9101200103759766;0.6051200032234192;-0.1600639969110489;1.0433440208435059;-1.4743750095367432;-5.306875228881836;-4.033750057220459
533;0.0;0.0;0.0;0.5816959738731384;-0.16787199676036835;1.0550559759140015;0.0;0.0;0.0
535;0.0;0.0;0.0;0.5934079885482788;-0.17958399653434753;1.051151990890503;0.0;0.0;0.0
537;0.0;0.0;0.0;0.5934079885482788;-0.19129599630832672;1.0677440166473389;0.0;0.0;0.0
539;0.48092398047447205;-0.04440800100564957;0.9208559989929199;0.6090239882469177;-0.20691199600696564;1.0638400316238403;-8.5443754196167;-8.38687515258789;-3.893749952316284
541;0.0;0.0;0.0;0.6012159585952759;-0.2147199958562851;1.0677440166473389;0.0;0.0;0.0
543;0.0;0.0;0.0;0.6012159585952759;-0.23423999547958374;1.0472480058670044;0.0;0.0;0.0
546;0.0;0.0;0.0;0.6207360029220581;-0.23423999547958374;1.0589599609375;0.0;0.0;0.0
548;0.4818999767303467;-0.09198799729347229;0.9362279772758484;0.5895040035247803;-0.24985599517822266;1.051151990890503;-13.654375076293945;-11.396875381469727;-4.103750228881836
550;0.0;0.0;0.0;0.6324479579925537;-0.2654719948768616;1.0716480016708374;0.0;0.0;0.0
552;0.0;0.0;0.0;0.5738880038261414;-0.27327999472618103;1.0921440124511719;0.0;0.0;0.0
554;0.0;0.0;0.0;0.6129279732704163;-0.3123199939727783;1.075551986694336;0.0;0.0;0.0
556;0.47336000204086304;-0.14883999526500702;0.9364719986915588;0.5856000185012817;-0.30451199412345886;1.0716480016708374;-15.124375343322754;-12.796875;-5.643750190734863
558;0.0;0.0;0.0;0.5592479705810547;-0.3240320086479187;1.075551986694336;0.0;0.0;0.0
560;0.0;0.0;0.0;0.5592479705810547;-0.31622397899627686;1.0638400316238403;0.0;0.0;0.0
563;0.0;0.0;0.0;0.5748639702796936;-0.3357439935207367;1.0589599609375;0.0;0.0;0.0
565;0.4428599774837494;-0.19007599353790283;0.9359839558601379;0.5475360155105591;-0.34355199337005615;1.0638400316238403;-12.814374923706055;-11.6068754196167;-8.863750457763672
567;0.0;0.0;0.0;0.5553439855575562;-0.3474559783935547;1.0794559717178345;0.0;0.0;0.0
569;0.0;0.0;0.0;0.5436319708824158;-0.34355199337005615;1.0716480016708374;0.0;0.0;0.0
571;0.0;0.0;0.0;0.5084959864616394;-0.33183997869491577;1.0716480016708374;0.0;0.0;0.0
573;0.4106519818305969;-0.20154400169849396;0.944767951965332;0.5475360155105591;-0.3201279938220978;1.0960479974746704;-8.614375114440918;-9.086874961853027;-13.83375072479248
575;0.0;0.0;0.0;0.5163040161132812;-0.3396480083465576;1.0843359231948853;0.0;0.0;0.0
577;0.0;0.0;0.0;0.4772639870643616;-0.2967039942741394;1.1165440082550049;0.0;0.0;0.0
580;0.0;0.0;0.0;0.4694559872150421;-0.31622397899627686;1.124351978302002;0.0;0.0;0.0
582;0.36038798093795776;-0.18470799922943115;0.9723399877548218;0.44603198766708374;-0.2967039942741394;1.132159948348999;-3.92437481880188;-6.426875114440918;-18.52375030517578
584;0.0;0.0;0.0;0.41870400309562683;-0.30060797929763794;1.140944004058838;0.0;0.0;0.0
586;0.0;0.0;0.0;0.3806400001049042;-0.284991979598999;1.132159948348999;0.0;0.0;0.0
588;0.0;0.0;0.0;0.3689279854297638;-0.2810879945755005;1.132159948348999;0.0;0.0;0.0
590;0.2744999825954437;-0.15664799511432648;1.0084519386291504;0.34940800070762634;-0.2537599802017212;1.1692479848861694;-0.5643750429153442;-6.286875247955322;-22.513750076293945
592;0.0;0.0;0.0;0.35624000430107117;-0.2810879945755005;1.156559944152832;0.0;0.0;0.0
594;0.0;0.0;0.0;0.3211039900779724;-0.23423999547958374;1.148751974105835;0.0;0.0;0.0
597;0.0;0.0;0.0;0.35624000430107117;-0.26156800985336304;1.1692479848861694;0.0;0.0;0.0
599;0.22618798911571503;-0.12029200047254562;1.0291919708251953;0.34062400460243225;-0.22252799570560455;1.1848639249801636;0.4156250059604645;-8.736875534057617;-24.68375015258789
601;0.0;0.0;0.0;0.3211039900779724;-0.2654719948768616;1.1936479806900024;0.0;0.0;0.0
603;0.0;0.0;0.0;0.34062400460243225;-0.38259199261665344;1.083359956741333;0.0;0.0;0.0
605;0.0;0.0;0.0;0.32500800490379333;-0.16787199676036835;1.148751974105835;0.0;0.0;0.0
607;0.20081199705600739;-0.10589599609375;1.026263952255249;0.1844639927148819;-0.08198399841785431;1.23854398727417;0.34562501311302185;-10.416874885559082;-22.863750457763672
610;0.0;0.0;0.0;0.26254400610923767;-0.1756799966096878;1.2375680208206177;0.0;0.0;0.0
612;0.0;0.0;0.0;0.29767999053001404;-0.19129599630832672;1.1614400148391724;0.0;0.0;0.0
614;0.0;0.0;0.0;0.29767999053001404;-0.1600639969110489;1.1692479848861694;0.0;0.0;0.0
616;0.16957999765872955;-0.03806399926543236;1.0531039237976074;0.3328160047531128;-0.1756799966096878;1.165343999862671;-6.094375133514404;-14.126874923706055;-22.513750076293945
618;0.0;0.0;0.0;0.27425599098205566;-0.2030079960823059;1.189743995666504;0.0;0.0;0.0
620;0.0;0.0;0.0;0.23521599173545837;-0.19129599630832672;1.156559944152832;0.0;0.0;0.0
622;0.0;0.0;0.0;0.24302399158477783;-0.187391996383667;1.1370400190353394;0.0;0.0;0.0
624;0.1390800029039383;-0.05831599980592728;1.0228480100631714;0.21569599211215973;-0.19519999623298645;1.1165440082550049;-11.414375305175781;-14.406875610351562;-14.393750190734863
626;0.0;0.0;0.0;0.2117919921875;-0.26156800985336304;1.0921440124511719;0.0;0.0;0.0
628;0.0;0.0;0.0;0.1844639927148819;-0.23423999547958374;1.124351978302002;0.0;0.0;0.0
631;0.0;0.0;0.0;0.19227199256420135;-0.284991979598999;1.1204479932785034;0.0;0.0;0.0
633;0.08466799557209015;-0.11663199961185455;0.9945439696311951;0.18836799263954163;-0.2654719948768616;1.1526559591293335;-9.734375;-13.216875076293945;-17.05375099182129
635;0.0;0.0;0.0;0.19227199256420135;-0.2810879945755005;1.1604639291763306;0.0;0.0;0.0
637;0.0;0.0;0.0;0.16884799301624298;-0.27327999472618103;1.1770559549331665;0.0;0.0;0.0
639;0.0;0.0;0.0;0.1844639927148819;-0.27718400955200195;1.2014559507369995;0.0;0.0;0.0
641;0.05538799986243248;-0.1471319943666458;1.0389519929885864;0.1424959897994995;-0.2810879945755005;1.180959939956665;-6.51437520980835;-11.466875076293945;-19.43375015258789
643;0.0;0.0;0.0;0.1268799901008606;-0.26156800985336304;1.205359935760498;0.0;0.0;0.0
646;0.0;0.0;0.0;0.08003199845552444;-0.2537599802017212;1.1936479806900024;0.0;0.0;0.0
648;0.0;0.0;0.0;0.07612799853086472;-0.230335995554924;1.2258559465408325;0.0;0.0;0.0
650;-0.032207999378442764;-0.12199999392032623;1.0814080238342285;0.06831999868154526;-0.28889599442481995;1.2014559507369995;-7.844375133514404;-12.44687557220459;-17.263750076293945
652;0.0;0.0;0.0;0.08393599838018417;-0.27327999472618103;1.214143991470337;0.0;0.0;0.0
654;0.0;0.0;0.0;0.04879999905824661;-0.27327999472618103;1.1770559549331665;0.0;0.0;0.0
656;0.0;0.0;0.0;0.04879999905824661;-0.27718400955200195;1.1936479806900024;0.0;0.0;0.0
658;-0.06465999782085419;-0.1424959897994995;1.0587159395217896;0.09564799815416336;-0.2967039942741394;1.156559944152832;-6.51437520980835;-15.596875190734863;-14.18375015258789
661;0.0;0.0;0.0;0.06441599875688553;-0.2967039942741394;1.1604639291763306;0.0;0.0;0.0
662;0.0;0.0;0.0;0.07612799853086472;-0.30060797929763794;1.1204479932785034;0.0;0.0;0.0
665;0.0;0.0;0.0;0.08003199845552444;-0.2654719948768616;1.1282559633255005;0.0;0.0;0.0
667;-0.05904799699783325;-0.15860000252723694;1.016503930091858;0.0331839993596077;-0.2810879945755005;1.1448479890823364;-0.8443750143051147;-13.916874885559082;-10.823750495910645
669;0.0;0.0;0.0;0.009759999811649323;-0.2537599802017212;1.140944004058838;0.0;0.0;0.0
671;0.0;0.0;0.0;0.01756799966096878;-0.24985599517822266;1.156559944152832;0.0;0.0;0.0
673;0.0;0.0;0.0;-0.02537599951028824;-0.2810879945755005;1.1604639291763306;0.0;0.0;0.0
675;-0.11687599867582321;-0.12712399661540985;1.0269960165023804;-0.05270399898290634;-0.22252799570560455;1.173151969909668;4.405624866485596;-9.8568754196167;-7.743750095367432
678;0.0;0.0;0.0;-0.0605119988322258;-0.20691199600696564;1.205359935760498;0.0;0.0;0.0
680;0.0;0.0;0.0;-0.0878399983048439;-0.2030079960823059;1.1848639249801636;0.0;0.0;0.0
682;0.0;0.0;0.0;-0.06831999868154526;-0.20691199600696564;1.205359935760498;0.0;0.0;0.0
684;-0.19910399615764618;-0.07539600133895874;1.0657919645309448;-0.09564799815416336;-0.17958399653434753;1.2180479764938354;5.455625057220459;-8.94687557220459;-4.663750171661377
686;0.0;0.0;0.0;-0.1180959939956665;-0.18348799645900726;1.2014559507369995;0.0;0.0;0.0
688;0.0;0.0;0.0;-0.10735999792814255;-0.19910399615764618;1.197551965713501;0.0;0.0;0.0
690;0.0;0.0;0.0;-0.11419199407100677;-0.187391996383667;1.2014559507369995;0.0;0.0;0.0
692;-0.2357039898633957;-0.05929199978709221;1.0687199831008911;-0.09857599437236786;-0.17177599668502808;1.180959939956665;2.445625066757202;-10.69687557220459;0.026249997317790985
695;0.0;0.0;0.0;-0.11028799414634705;-0.18348799645900726;1.197551965713501;0.0;0.0;0.0
697;0.0;0.0;0.0;-0.12199999392032623;-0.1600639969110489;1.205359935760498;0.0;0.0;0.0
699;0.0;0.0;0.0;-0.12590399384498596;-0.15615999698638916;1.2014559507369995;0.0;0.0;0.0
701;-0.25034400820732117;-0.03611199930310249;1.0701839923858643;-0.12590399384498596;-0.16396799683570862;1.205359935760498;-1.26437509059906;-12.306875228881836;6.536250114440918
703;0.0;0.0;0.0;-0.13761599361896515;-0.1483519971370697;1.2092639207839966;0.0;0.0;0.0
705;0.0;0.0;0.0;-0.1298079937696457;-0.15225599706172943;1.205359935760498;0.0;0.0;0.0
707;0.0;0.0;0.0;-0.1298079937696457;-0.1756799966096878;1.2014559507369995;0.0;0.0;0.0
709;-0.24985599517822266;-0.03147599846124649;1.0648159980773926;-0.12590399384498596;-0.17958399653434753;1.205359935760498;-5.954375267028809;-13.986875534057617;11.996249198913574
712;0.0;0.0;0.0;-0.1454239934682846;-0.17958399653434753;1.189743995666504;0.0;0.0;0.0
714;0.0;0.0;0.0;-0.09467199444770813;-0.19129599630832672;1.1887680292129517;0.0;0.0;0.0
716;0.0;0.0;0.0;-0.1180959939956665;-0.23423999547958374;1.173151969909668;0.0;0.0;0.0
718;-0.24399998784065247;-0.07173600047826767;1.0494439601898193;-0.12590399384498596;-0.22643199563026428;1.189743995666504;-10.714375495910645;-14.406875610351562;14.026249885559082
720;0.0;0.0;0.0;-0.13761599361896515;-0.230335995554924;1.180959939956665;0.0;0.0;0.0
722;0.0;0.0;0.0;-0.1298079937696457;-0.284991979598999;1.1770559549331665;0.0;0.0;0.0
724;0.0;0.0;0.0;-0.1727519929409027;-0.2654719948768616;1.1526559591293335;0.0;0.0;0.0
726;-0.264739990234375;-0.1273680031299591;1.0413919687271118;-0.16884799301624298;-0.27718400955200195;1.1692479848861694;-13.724374771118164;-13.146875381469727;12.696249961853027
729;0.0;0.0;0.0;-0.17665599286556244;-0.30060797929763794;1.165343999862671;0.0;0.0;0.0
731;0.0;0.0;0.0;-0.16494399309158325;-0.284991979598999;1.180959939956665;0.0;0.0;0.0
733;0.0;0.0;0.0;-0.17665599286556244;-0.30060797929763794;1.1770559549331665;0.0;0.0;0.0
735;-0.2991439998149872;-0.15786799788475037;1.0445640087127686;-0.20788799226284027;-0.3240320086479187;1.1692479848861694;-13.514375686645508;-11.6068754196167;9.686249732971191
737;0.0;0.0;0.0;-0.18836799263954163;-0.30060797929763794;1.1887680292129517;0.0;0.0;0.0
739;0.0;0.0;0.0;-0.2117919921875;-0.3084160089492798;1.1604639291763306;0.0;0.0;0.0
741;0.0;0.0;0.0;-0.21569599211215973;-0.3084160089492798;1.180959939956665;0.0;0.0;0.0
743;-0.32330000400543213;-0.17006799578666687;1.0504199266433716;-0.21569599211215973;-0.30451199412345886;1.1604639291763306;-12.0443754196167;-10.486875534057617;7.306250095367432
746;0.0;0.0;0.0;-0.2000799924135208;-0.3123199939727783;1.1770559549331665;0.0;0.0;0.0
748;0.0;0.0;0.0;-0.23521599173545837;-0.3240320086479187;1.180959939956665;0.0;0.0;0.0
750;0.0;0.0;0.0;-0.21569599211215973;-0.3240320086479187;1.189743995666504;0.0;0.0;0.0
752;-0.34135597944259644;-0.18665999174118042;1.0413919687271118;-0.23131199181079865;-0.33183997869491577;1.1604639291763306;-10.2943754196167;-9.8568754196167;5.976250171661377
754;0.0;0.0;0.0;-0.24302399158477783;-0.33183997869491577;1.1692479848861694;0.0;0.0;0.0
756;0.0;0.0;0.0;-0.25863999128341675;-0.3084160089492798;1.1604639291763306;0.0;0.0;0.0
758;0.0;0.0;0.0;-0.27035200595855713;-0.3240320086479187;1.1848639249801636;0.0;0.0;0.0
760;-0.36624398827552795;-0.1878799945116043;1.042367935180664;-0.23521599173545837;-0.33183997869491577;1.189743995666504;-8.124375343322754;-8.1068754196167;5.696249961853027
763;0.0;0.0;0.0;-0.2547360062599182;-0.30060797929763794;1.1770559549331665;0.0;0.0;0.0
765;0.0;0.0;0.0;-0.24302399158477783;-0.3240320086479187;1.2092639207839966;0.0;0.0;0.0
767;0.0;0.0;0.0;-0.24302399158477783;-0.3084160089492798;1.205359935760498;0.0;0.0;0.0
769;-0.37893199920654297;-0.17885199189186096;1.0643279552459717;-0.27425599098205566;-0.3357439935207367;1.197551965713501;-5.954375267028809;-6.006875038146973;6.256249904632568
771;0.0;0.0;0.0;-0.26254400610923767;-0.3123199939727783;1.2180479764938354;0.0;0.0;0.0
773;0.0;0.0;0.0;-0.30158400535583496;-0.33183997869491577;1.1936479806900024;0.0;0.0;0.0
775;0.0;0.0;0.0;-0.2820639908313751;-0.31622397899627686;1.2131680250167847;0.0;0.0;0.0
777;-0.3945479989051819;-0.18177999556064606;1.0753079652786255;-0.27425599098205566;-0.3240320086479187;1.197551965713501;-4.554375171661377;-4.32687520980835;6.886250019073486
780;0.0;0.0;0.0;-0.29767999053001404;-0.3201279938220978;1.2014559507369995;0.0;0.0;0.0
782;0.0;0.0;0.0;-0.2937760055065155;-0.3084160089492798;1.2014559507369995;0.0;0.0;0.0
784;0.0;0.0;0.0;-0.2898719906806946;-0.3240320086479187;1.205359935760498;0.0;0.0;0.0
786;-0.41504397988319397;-0.17909599840641022;1.0753079652786255;-0.32500800490379333;-0.30060797929763794;1.2180479764938354;-4.064374923706055;-2.5768749713897705;5.696249961853027
788;0.0;0.0;0.0;-0.29767999053001404;-0.2967039942741394;1.2180479764938354;0.0;0.0;0.0
790;0.0;0.0;0.0;-0.3093920052051544;-0.3201279938220978;1.214143991470337;0.0;0.0;0.0
792;0.0;0.0;0.0;-0.32500800490379333;-0.30451199412345886;1.2180479764938354;0.0;0.0;0.0
794;-0.43261200189590454;-0.17153199017047882;1.0857999324798584;-0.3211039900779724;-0.29280000925064087;1.221951961517334;-4.834375381469727;-1.106874942779541;3.1762499809265137
797;0.0;0.0;0.0;-0.29280000925064087;-0.30060797929763794;1.221951961517334;0.0;0.0;0.0
799;0.0;0.0;0.0;-0.33476799726486206;-0.30060797929763794;1.254159927368164;0.0;0.0;0.0
801;0.0;0.0;0.0;-0.30451199412345886;-0.3084160089492798;1.221951961517334;0.0;0.0;0.0
803;-0.4370039999485016;-0.1693359911441803;1.0982439517974854;-0.30451199412345886;-0.30060797929763794;1.2424479722976685;-6.234375;-0.8968750238418579;1.3562500476837158
805;0.0;0.0;0.0;-0.29280000925064087;-0.3123199939727783;1.2424479722976685;0.0;0.0;0.0
807;0.0;0.0;0.0;-0.2967039942741394;-0.3084160089492798;1.2424479722976685;0.0;0.0;0.0
809;0.0;0.0;0.0;-0.284991979598999;-0.29280000925064087;1.2180479764938354;0.0;0.0;0.0
811;-0.4211439788341522;-0.17714399099349976;1.0897040367126465;-0.27327999472618103;-0.3240320086479187;1.221951961517334;-6.584375381469727;-1.6668750047683716;0.5162500143051147
814;0.0;0.0;0.0;-0.2820639908313751;-0.3201279938220978;1.2092639207839966;0.0;0.0;0.0
816;0.0;0.0;0.0;-0.24692799150943756;-0.2967039942741394;1.1848639249801636;0.0;0.0;0.0
818;0.0;0.0;0.0;-0.24692799150943756;-0.30451199412345886;1.2014559507369995;0.0;0.0;0.0
820;-0.38210397958755493;-0.18177999556064606;1.0682319402694702;-0.2391199916601181;-0.33183997869491577;1.197551965713501;-4.904375076293945;-1.386875033378601;-0.39375001192092896
822;0.0;0.0;0.0;-0.23131199181079865;-0.3084160089492798;1.189743995666504;0.0;0.0;0.0
824;0.0;0.0;0.0;-0.2235039919614792;-0.3240320086479187;1.2258559465408325;0.0;0.0;0.0
826;0.0;0.0;0.0;-0.2117919921875;-0.30451199412345886;1.189743995666504;0.0;0.0;0.0
828;-0.33720800280570984;-0.18080399930477142;1.0635960102081299;-0.2117919921875;-0.3201279938220978;1.205359935760498;-1.9643750190734863;0.6431249976158142;-0.8837499618530273
831;0.0;0.0;0.0;-0.16884799301624298;-0.31622397899627686;1.2014559507369995;0.0;0.0;0.0
833;0.0;0.0;0.0;-0.19227199256420135;-0.30451199412345886;1.1770559549331665;0.0;0.0;0.0
835;0.0;0.0;0.0;-0.1571359932422638;-0.31622397899627686;1.165343999862671;0.0;0.0;0.0
837;-0.31378400325775146;-0.18665999174118042;1.046515941619873;-0.1844639927148819;-0.3240320086479187;1.173151969909668;1.675624966621399;3.443125009536743;-1.3037500381469727
839;0.0;0.0;0.0;-0.18055999279022217;-0.3396480083465576;1.1526559591293335;0.0;0.0;0.0
841;0.0;0.0;0.0;-0.16494399309158325;-0.3123199939727783;1.173151969909668;0.0;0.0;0.0
843;0.0;0.0;0.0;-0.17665599286556244;-0.31622397899627686;1.180959939956665;0.0;0.0;0.0
845;-0.29816800355911255;-0.18226799368858337;1.0252879858016968;-0.14932799339294434;-0.3084160089492798;1.148751974105835;6.225625038146973;7.363124847412109;-3.403749942779541
848;0.0;0.0;0.0;-0.14932799339294434;-0.284991979598999;1.140944004058838;0.0;0.0;0.0
850;0.0;0.0;0.0;-0.16103999316692352;-0.28889599442481995;1.1604639291763306;0.0;0.0;0.0
852;0.0;0.0;0.0;-0.15323199331760406;-0.2810879945755005;1.156559944152832;0.0;0.0;0.0
854;-0.2776719927787781;-0.1576239913702011;1.0223599672317505;-0.16494399309158325;-0.27718400955200195;1.156559944152832;10.35562515258789;11.633124351501465;-5.643750190734863
856;0.0;0.0;0.0;-0.15323199331760406;-0.24595199525356293;1.173151969909668;0.0;0.0;0.0
858;0.0;0.0;0.0;-0.13371199369430542;-0.2537599802017212;1.1643680334091187;0.0;0.0;0.0
860;0.0;0.0;0.0;-0.1571359932422638;-0.2693759799003601;1.189743995666504;0.0;0.0;0.0
862;-0.2710839807987213;-0.12224400043487549;1.0311440229415894;-0.13761599361896515;-0.24985599517822266;1.1614400148391724;13.435625076293945;14.993124961853027;-6.273749828338623
865;0.0;0.0;0.0;-0.15323199331760406;-0.22252799570560455;1.189743995666504;0.0;0.0;0.0
867;0.0;0.0;0.0;-0.15323199331760406;-0.22643199563026428;1.180959939956665;0.0;0.0;0.0
869;0.0;0.0;0.0;-0.1454239934682846;-0.19910399615764618;1.180959939956665;0.0;0.0;0.0
871;-0.2642520070075989;-0.08222799748182297;1.044808030128479;-0.15323199331760406;-0.21081599593162537;1.1692479848861694;15.325624465942383;16.533124923706055;-4.173749923706055
873;0.0;0.0;0.0;-0.13371199369430542;-0.17958399653434753;1.173151969909668;0.0;0.0;0.0
875;0.0;0.0;0.0;-0.14151999354362488;-0.17177599668502808;1.1770559549331665;0.0;0.0;0.0
877;0.0;0.0;0.0;-0.11028799414634705;-0.16787199676036835;1.173151969909668;0.0;0.0;0.0
879;-0.2525399923324585;-0.04562800005078316;1.0528600215911865;-0.11419199407100677;-0.16396799683570862;1.2014559507369995;14.975625038146973;16.323123931884766;-1.3037500381469727
882;0.0;0.0;0.0;-0.10345599800348282;-0.1756799966096878;1.197551965713501;0.0;0.0;0.0
884;0.0;0.0;0.0;-0.09857599437236786;-0.16787199676036835;1.1770559549331665;0.0;0.0;0.0
886;0.0;0.0;0.0;-0.0878399983048439;-0.14444799721240997;1.1936479806900024;0.0;0.0;0.0
888;-0.2176479995250702;-0.024399999529123306;1.0560319423675537;-0.04879999905824661;-0.12883199751377106;1.1936479806900024;11.895625114440918;15.063124656677246;1.0762500762939453
890;0.0;0.0;0.0;-0.09467199444770813;-0.15615999698638916;1.173151969909668;0.0;0.0;0.0
892;0.0;0.0;0.0;-0.04879999905824661;-0.16396799683570862;1.180959939956665;0.0;0.0;0.0
894;0.0;0.0;0.0;-0.0605119988322258;-0.14444799721240997;1.1848639249801636;0.0;0.0;0.0
896;-0.17299599945545197;-0.017079999670386314;1.0574959516525269;-0.05270399898290634;-0.1600639969110489;1.1936479806900024;7.415625095367432;13.313124656677246;3.526250123977661
899;0.0;0.0;0.0;-0.013663999736309052;-0.16396799683570862;1.2014559507369995;0.0;0.0;0.0
901;0.0;0.0;0.0;-0.037087999284267426;-0.15615999698638916;1.189743995666504;0.0;0.0;0.0
903;0.0;0.0;0.0;-0.02537599951028824;-0.15225599706172943;1.1936479806900024;0.0;0.0;0.0
905;-0.13419999182224274;-0.026839999482035637;1.0543240308761597;0.037087999284267426;-0.16396799683570862;1.165343999862671;2.445625066757202;11.493124961853027;5.696249961853027
907;0.0;0.0;0.0;0.040991999208927155;-0.17177599668502808;1.1936479806900024;0.0;0.0;0.0
909;0.0;0.0;0.0;0.0331839993596077;-0.18348799645900726;1.1770559549331665;0.0;0.0;0.0
911;0.0;0.0;0.0;0.06441599875688553;-0.19519999623298645;1.173151969909668;0.0;0.0;0.0
913;-0.07685999572277069;-0.05782799795269966;1.0311440229415894;0.06441599875688553;-0.2147199958562851;1.1360639333724976;-1.5443750619888306;9.883124351501465;7.096250057220459
916;0.0;0.0;0.0;0.10345599800348282;-0.2420479953289032;1.1448479890823364;0.0;0.0;0.0
918;0.0;0.0;0.0;0.11126399785280228;-0.2147199958562851;1.124351978302002;0.0;0.0;0.0
920;0.0;0.0;0.0;0.13859200477600098;-0.230335995554924;1.140944004058838;0.0;0.0;0.0
922;-0.004635999910533428;-0.09345199912786484;1.002351999282837;0.1424959897994995;-0.23814399540424347;1.1370400190353394;-1.9643750190734863;10.30312442779541;7.586249828338623
924;0.0;0.0;0.0;0.15811198949813843;-0.22252799570560455;1.1038559675216675;0.0;0.0;0.0
926;0.0;0.0;0.0;0.16884799301624298;-0.21081599593162537;1.099951982498169;0.0;0.0;0.0
928;0.0;0.0;0.0;0.19227199256420135;-0.23814399540424347;1.099951982498169;0.0;0.0;0.0
930;0.05782799795269966;-0.11419199407100677;0.977463960647583;0.1844639927148819;-0.24595199525356293;1.1282559633255005;0.9056249856948853;12.8931245803833;7.446249961853027
933;0.0;0.0;0.0;0.21569599211215973;-0.27327999472618103;1.0960479974746704;0.0;0.0;0.0
935;0.0;0.0;0.0;0.2508319914340973;-0.2537599802017212;1.083359956741333;0.0;0.0;0.0
937;0.0;0.0;0.0;0.27425599098205566;-0.2654719948768616;1.132159948348999;0.0;0.0;0.0
939;0.10321199893951416;-0.12614800035953522;0.9767319560050964;0.2235039919614792;-0.28889599442481995;1.0960479974746704;5.245625019073486;17.513124465942383;7.866250038146973
941;0.0;0.0;0.0;0.24692799150943756;-0.28889599442481995;1.1165440082550049;0.0;0.0;0.0
943;0.0;0.0;0.0;0.2391199916601181;-0.23814399540424347;1.1204479932785034;0.0;0.0;0.0
945;0.0;0.0;0.0;0.2547360062599182;-0.2693759799003601;1.1165440082550049;0.0;0.0;0.0
947;0.12443999946117401;-0.1298079937696457;0.9860039949417114;0.2664479911327362;-0.22643199563026428;1.1282559633255005;10.42562484741211;21.36312484741211;10.176249504089355
950;0.0;0.0;0.0;0.25863999128341675;-0.22643199563026428;1.1370400190353394;0.0;0.0;0.0
952;0.0;0.0;0.0;0.2547360062599182;-0.26156800985336304;1.1204479932785034;0.0;0.0;0.0
954;0.0;0.0;0.0;0.2937760055065155;-0.26156800985336304;1.1038559675216675;0.0;0.0;0.0
956;0.14298400282859802;-0.11248400062322617;0.9874680042266846;0.25863999128341675;-0.2576639950275421;1.099951982498169;14.765625;23.04312515258789;12.206249237060547
958;0.0;0.0;0.0;0.32891198992729187;-0.28889599442481995;1.1038559675216675;0.0;0.0;0.0
960;0.0;0.0;0.0;0.32500800490379333;-0.21862399578094482;1.124351978302002;0.0;0.0;0.0
962;0.0;0.0;0.0;0.32500800490379333;-0.21862399578094482;1.1282559633255005;0.0;0.0;0.0
964;0.18422000110149384;-0.0983319953083992;0.9894199967384338;0.32500800490379333;-0.18348799645900726;1.132159948348999;19.525625228881836;25.003124237060547;13.396249771118164
967;0.0;0.0;0.0;0.2937760055065155;-0.19129599630832672;1.1448479890823364;0.0;0.0;0.0
969;0.0;0.0;0.0;0.3054879903793335;-0.19129599630832672;1.1165440082550049;0.0;0.0;0.0
971;0.0;0.0;0.0;0.30158400535583496;-0.17177599668502808;1.1204479932785034;0.0;0.0;0.0
973;0.1849519908428192;-0.054655998945236206;0.9984479546546936;0.30158400535583496;-0.19910399615764618;1.1038559675216675;19.875625610351562;24.5831241607666;12.90625
975;0.0;0.0;0.0;0.3054879903793335;-0.18348799645900726;1.099951982498169;0.0;0.0;0.0
977;0.0;0.0;0.0;0.3445279896259308;-0.18348799645900726;1.107759952545166;0.0;0.0;0.0
979;0.0;0.0;0.0;0.3445279896259308;-0.1756799966096878;1.107759952545166;0.0;0.0;0.0
981;0.21374399960041046;-0.054655998945236206;0.9781959652900696;0.3903999924659729;-0.19910399615764618;1.1204479932785034;17.985624313354492;23.253124237060547;8.286249160766602
984;0.0;0.0;0.0;0.39137598872184753;-0.19129599630832672;1.107759952545166;0.0;0.0;0.0
986;0.0;0.0;0.0;0.3757599890232086;-0.187391996383667;1.0716480016708374;0.0;0.0;0.0
988;0.0;0.0;0.0;0.4021120071411133;-0.14444799721240997;1.0843359231948853;0.0;0.0;0.0
990;0.26034799218177795;-0.042211998254060745;0.9650200009346008;0.387472003698349;-0.14054399728775024;1.099951982498169;16.655624389648438;23.88312530517578;6.396250247955322
992;0.0;0.0;0.0;0.39528000354766846;-0.1483519971370697;1.107759952545166;0.0;0.0;0.0
994;0.0;0.0;0.0;0.4294399917125702;-0.14444799721240997;1.083359956741333;0.0;0.0;0.0
996;0.0;0.0;0.0;0.4138239920139313;-0.12492799758911133;1.107759952545166;0.0;0.0;0.0
998;0.2913359999656677;-0.012931999750435352;0.9591639637947083;0.41870400309562683;-0.13663999736309052;1.107759952545166;15.60562515258789;24.233125686645508;6.466249942779541
1001;0.0;0.0;0.0;0.4030880033969879;-0.13663999736309052;1.0882400274276733;0.0;0.0;0.0
1003;0.0;0.0;0.0;0.4333440065383911;-0.11711999773979187;1.0882400274276733;0.0;0.0;0.0
1005;0.0;0.0;0.0;0.4294399917125702;-0.08588799834251404;1.1282559633255005;0.0;0.0;0.0
1007;0.29767999053001404;0.013419999741017818;0.9657520055770874;0.40699198842048645;-0.11321599781513214;1.1038559675216675;13.155625343322754;23.463125228881836;8.076249122619629
1009;0.0;0.0;0.0;0.3835679888725281;-0.10540799796581268;1.099951982498169;0.0;0.0;0.0
1011;0.0;0.0;0.0;0.4177280068397522;-0.14054399728775024;1.075551986694336;0.0;0.0;0.0
1013;0.0;0.0;0.0;0.4060159921646118;-0.12883199751377106;1.0921440124511719;0.0;0.0;0.0
1015;0.29694798588752747;0.019763998687267303;0.9586759805679321;0.40991997718811035;-0.1210239976644516;1.0921440124511719;8.395625114440918;20.803125381469727;7.586249828338623
1018;0.0;0.0;0.0;0.46457600593566895;-0.13663999736309052;1.0716480016708374;0.0;0.0;0.0
1020;0.0;0.0;0.0;0.43724799156188965;-0.11321599781513214;1.0794559717178345;0.0;0.0;0.0
1022;0.0;0.0;0.0;0.44896000623703003;-0.10150399804115295;1.0599359273910522;0.0;0.0;0.0
1024;0.3189080059528351;0.01659199967980385;0.9484279751777649;0.4450559914112091;-0.11711999773979187;1.0716480016708374;3.9156250953674316;18.073123931884766;9.056249618530273
1026;0.0;0.0;0.0;0.37966400384902954;-0.10150399804115295;1.0638400316238403;0.0;0.0;0.0
1028;0.0;0.0;0.0;0.4411519765853882;-0.12492799758911133;1.0589599609375;0.0;0.0;0.0
1030;0.0;0.0;0.0;0.4958080053329468;-0.1483519971370697;1.0599359273910522;0.0;0.0;0.0
1033;0.3230559825897217;0.012199999764561653;0.9276880025863647;0.4997119903564453;-0.15615999698638916;1.0472480058670044;0.9056249856948853;15.343124389648438;6.046249866485596
1035;0.0;0.0;0.0;0.4811680018901825;-0.13663999736309052;1.0716480016708374;0.0;0.0;0.0
1037;0.0;0.0;0.0;0.5163040161132812;-0.14054399728775024;1.0794559717178345;0.0;0.0;0.0
1039;0.0;0.0;0.0;0.5006880164146423;-0.1483519971370697;1.0599359273910522;0.0;0.0;0.0
1041;0.38429999351501465;-0.014883999712765217;0.9325679540634155;0.5006880164146423;-0.17177599668502808;1.0228480100631714;-0.28437501192092896;13.243124961853027;6.116250038146973
1043;0.0;0.0;0.0;0.5202080011367798;-0.16396799683570862;1.0306559801101685;0.0;0.0;0.0
1045;0.0;0.0;0.0;0.5280159711837769;-0.187391996383667;1.0394400358200073;0.0;0.0;0.0
1047;0.0;0.0;0.0;0.5202080011367798;-0.1756799966096878;1.0150399208068848;0.0;0.0;0.0
1050;0.411871999502182;-0.0453839972615242;0.9037759900093079;0.5319200158119202;-0.18348799645900726;1.0433440208435059;-0.21437500417232513;13.103124618530273;6.606250286102295
1052;0.0;0.0;0.0;0.5387519598007202;-0.187391996383667;1.0394400358200073;0.0;0.0;0.0
1054;0.0;0.0;0.0;0.5738880038261414;-0.20691199600696564;1.0189440250396729;0.0;0.0;0.0
1056;0.0;0.0;0.0;0.5231360197067261;-0.187391996383667;1.0189440250396729;0.0;0.0;0.0
1058;0.42797598242759705;-0.059779997915029526;0.8935279846191406;0.5543680191040039;-0.19910399615764618;1.0189440250396729;2.025624990463257;13.313124656677246;5.416250228881836
1060;0.0;0.0;0.0;0.5426560044288635;-0.19129599630832672;1.0189440250396729;0.0;0.0;0.0
1062;0.0;0.0;0.0;0.562175989151001;-0.22252799570560455;1.002351999282837;0.0;0.0;0.0
1064;0.0;0.0;0.0;0.5777919888496399;-0.2030079960823059;1.0111359357833862;0.0;0.0;0.0
1067;0.42846399545669556;-0.07295599579811096;0.8925519585609436;0.5426560044288635;-0.2030079960823059;1.0062559843063354;4.475625038146973;13.313124656677246;2.6862499713897705
1069;0.0;0.0;0.0;0.5426560044288635;-0.20691199600696564;1.0394400358200073;0.0;0.0;0.0
1071;0.0;0.0;0.0;0.562175989151001;-0.21081599593162537;1.0355359315872192;0.0;0.0;0.0
1073;0.0;0.0;0.0;0.5270400047302246;-0.19519999623298645;1.0472480058670044;0.0;0.0;0.0
1075;0.4272439777851105;-0.07027199864387512;0.8954799771308899;0.5348479747772217;-0.19129599630832672;1.0189440250396729;6.155624866485596;13.103124618530273;-0.4637500047683716
1077;0.0;0.0;0.0;0.5348479747772217;-0.1756799966096878;1.0228480100631714;0.0;0.0;0.0
1079;0.0;0.0;0.0;0.569983959197998;-0.17958399653434753;1.0111359357833862;0.0;0.0;0.0
1081;0.0;0.0;0.0;0.5543680191040039;-0.19129599630832672;1.0355359315872192;0.0;0.0;0.0
1084;0.4345639944076538;-0.05441199988126755;0.8945040106773376;0.5738880038261414;-0.18348799645900726;1.0355359315872192;7.695624828338623;11.1431245803833;-2.983750104904175
1086;0.0;0.0;0.0;0.5543680191040039;-0.17958399653434753;1.0228480100631714;0.0;0.0;0.0
1088;0.0;0.0;0.0;0.5660799741744995;-0.16787199676036835;1.0062559843063354;0.0;0.0;0.0
1090;0.0;0.0;0.0;0.5856000185012817;-0.16396799683570862;1.0306559801101685;0.0;0.0;0.0
1092;0.45652398467063904;-0.038307998329401016;0.8940159678459167;0.5973119735717773;-0.14444799721240997;1.0355359315872192;9.165624618530273;8.413125038146973;-3.8237500190734863
1094;0.0;0.0;0.0;0.5816959738731384;-0.1600639969110489;1.0072319507598877;0.0;0.0;0.0
1096;0.0;0.0;0.0;0.6051200032234192;-0.14054399728775024;0.986735999584198;0.0;0.0;0.0
1098;0.0;0.0;0.0;0.6012159585952759;-0.1600639969110489;0.9828319549560547;0.0;0.0;0.0
1101;0.4899519979953766;-0.0226919986307621;0.87254399061203;0.6012159585952759;-0.16396799683570862;0.9828319549560547;9.235625267028809;6.453125;-2.773750066757202
1103;0.0;0.0;0.0;0.6285439729690552;-0.15615999698638916;0.9740479588508606;0.0;0.0;0.0
1105;0.0;0.0;0.0;0.6285439729690552;-0.1600639969110489;0.962336003780365;0.0;0.0;0.0
1107;0.0;0.0;0.0;0.6480640172958374;-0.14054399728775024;0.9779520034790039;0.0;0.0;0.0
1109;0.5192319750785828;-0.01659199967980385;0.8422879576683044;0.6402559876441956;-0.12492799758911133;0.9779520034790039;10.915624618530273;8.133124351501465;-1.5837500095367432
1111;0.0;0.0;0.0;0.6441599726676941;-0.14054399728775024;0.9779520034790039;0.0;0.0;0.0
1113;0.0;0.0;0.0;0.6470879912376404;-0.1327359974384308;0.986735999584198;0.0;0.0;0.0
1115;0.0;0.0;0.0;0.6548959612846375;-0.08979199826717377;1.002351999282837;0.0;0.0;0.0
1118;0.5153279900550842;0.0004879999905824661;0.8598560094833374;0.636352002620697;-0.13663999736309052;1.0228480100631714;12.735625267028809;10.933124542236328;0.3062500059604645
1120;0.0;0.0;0.0;0.6129279732704163;-0.12492799758911133;1.0111359357833862;0.0;0.0;0.0
1122;0.0;0.0;0.0;0.6246399879455566;-0.11711999773979187;1.0394400358200073;0.0;0.0;0.0
1124;0.0;0.0;0.0;0.6051200032234192;-0.11711999773979187;1.02675199508667;0.0;0.0;0.0
1126;0.48677998781204224;0.014883999712765217;0.9008479714393616;0.569983959197998;-0.12883199751377106;1.0472480058670044;11.055624961853027;11.213125228881836;3.666249990463257
1128;0.0;0.0;0.0;0.6051200032234192;-0.11711999773979187;1.0638400316238403;0.0;0.0;0.0
1130;0.0;0.0;0.0;0.5504639744758606;-0.10540799796581268;1.051151990890503;0.0;0.0;0.0
1132;0.0;0.0;0.0;0.6129279732704163;-0.10931199789047241;1.0599359273910522;0.0;0.0;0.0
1135;0.47165200114250183;0.015859998762607574;0.9267119765281677;0.5777919888496399;-0.12883199751377106;1.051151990890503;6.085624694824219;7.293124675750732;8.286249160766602
1137;0.0;0.0;0.0;0.5895040035247803;-0.12883199751377106;1.0433440208435059;0.0;0.0;0.0
1139;0.0;0.0;0.0;0.5856000185012817;-0.1327359974384308;1.0677440166473389;0.0;0.0;0.0
1141;0.0;0.0;0.0;0.6012159585952759;-0.14444799721240997;1.051151990890503;0.0;0.0;0.0
1143;0.48848798871040344;-0.010735999792814255;0.9237839579582214;0.6090239882469177;-0.15225599706172943;1.0472480058670044;0.2056249976158142;2.6031250953674316;12.206249237060547
1145;0.0;0.0;0.0;0.6168320178985596;-0.187391996383667;1.0599359273910522;0.0;0.0;0.0
1147;0.0;0.0;0.0;0.636352002620697;-0.187391996383667;1.0677440166473389;0.0;0.0;0.0
1149;0.0;0.0;0.0;0.6090239882469177;-0.21081599593162537;1.0638400316238403;0.0;0.0;0.0
1152;0.4999559819698334;-0.05441199988126755;0.9313479661941528;0.6129279732704163;-0.20691199600696564;1.0638400316238403;-5.60437536239624;-0.8968750238418579;14.026249885559082
1154;0.0;0.0;0.0;0.6441599726676941;-0.23423999547958374;1.0882400274276733;0.0;0.0;0.0
1156;0.0;0.0;0.0;0.6519680023193359;-0.24595199525356293;1.083359956741333;0.0;0.0;0.0
1158;0.0;0.0;0.0;0.6441599726676941;-0.2654719948768616;1.0794559717178345;0.0;0.0;0.0
1160;0.5045920014381409;-0.10589599609375;0.9513559937477112;0.6285439729690552;-0.2810879945755005;1.1038559675216675;-10.924375534057617;-4.186875343322754;13.396249771118164
1162;0.0;0.0;0.0;0.5973119735717773;-0.27718400955200195;1.0882400274276733;0.0;0.0;0.0
1164;0.0;0.0;0.0;0.6324479579925537;-0.30060797929763794;1.099951982498169;0.0;0.0;0.0
1166;0.0;0.0;0.0;0.636352002620697;-0.2967039942741394;1.1126400232315063;0.0;0.0;0.0
1169;0.5111799836158752;-0.16543199121952057;0.9679479598999023;0.636352002620697;-0.33183997869491577;1.0882400274276733;-14.984375;-8.246874809265137;11.366250038146973
1171;0.0;0.0;0.0;0.6285439729690552;-0.3630719780921936;1.0882400274276733;0.0;0.0;0.0
1173;0.0;0.0;0.0;0.6402559876441956;-0.3630719780921936;1.0921440124511719;0.0;0.0;0.0
1175;0.0;0.0;0.0;0.6246399879455566;-0.4021120071411133;1.099951982498169;0.0;0.0;0.0
1177;0.5189880132675171;-0.2210640013217926;0.9652639627456665;0.6392799615859985;-0.374783992767334;1.0716480016708374;-16.80437469482422;-11.256875038146973;8.216249465942383
1179;0.0;0.0;0.0;0.636352002620697;-0.374783992767334;1.0921440124511719;0.0;0.0;0.0
1181;0.0;0.0;0.0;0.6090239882469177;-0.39430397748947144;1.1038559675216675;0.0;0.0;0.0
1183;0.0;0.0;0.0;0.6431840062141418;-0.39430397748947144;1.099951982498169;0.0;0.0;0.0
1186;0.5219159722328186;-0.26083600521087646;0.961359977722168;0.6402559876441956;-0.4021120071411133;1.1038559675216675;-16.384374618530273;-12.166874885559082;3.8762500286102295
1188;0.0;0.0;0.0;0.6627039909362793;-0.42553597688674927;1.099951982498169;0.0;0.0;0.0
1190;0.0;0.0;0.0;0.6402559876441956;-0.38649600744247437;1.1038559675216675;0.0;0.0;0.0
1192;0.0;0.0;0.0;0.6012159585952759;-0.42553597688674927;1.1038559675216675;0.0;0.0;0.0
1194;0.5070319771766663;-0.2808440029621124;0.9659959673881531;0.6090239882469177;-0.4177280068397522;1.099951982498169;-14.354374885559082;-12.586874961853027;-0.7437499761581421
1196;0.0;0.0;0.0;0.6207360029220581;-0.43724799156188965;1.099951982498169;0.0;0.0;0.0
1198;0.0;0.0;0.0;0.6168320178985596;-0.4060159921646118;1.099951982498169;0.0;0.0;0.0
1201;0.0;0.0;0.0;0.6285439729690552;-0.44896000623703003;1.0960479974746704;0.0;0.0;0.0
1203;0.49483197927474976;-0.29109200835227966;0.9647759795188904;0.6051200032234192;-0.42553597688674927;1.0921440124511719;-11.274374961853027;-13.3568754196167;-4.87375020980835
1205;0.0;0.0;0.0;0.6051200032234192;-0.42163199186325073;1.0794559717178345;0.0;0.0;0.0
1207;0.0;0.0;0.0;0.6090239882469177;-0.4177280068397522;1.0638400316238403;0.0;0.0;0.0
1209;0.0;0.0;0.0;0.6168320178985596;-0.42163199186325073;1.075551986694336;0.0;0.0;0.0
1211;0.4899519979953766;-0.2903600037097931;0.9537959694862366;0.5973119735717773;-0.42163199186325073;1.107759952545166;-7.844375133514404;-13.3568754196167;-8.58375072479248
1213;0.0;0.0;0.0;0.5777919888496399;-0.3903999924659729;1.083359956741333;0.0;0.0;0.0
1215;0.0;0.0;0.0;0.5777919888496399;-0.4138239920139313;1.0882400274276733;0.0;0.0;0.0
1218;0.0;0.0;0.0;0.5738880038261414;-0.39820799231529236;1.075551986694336;0.0;0.0;0.0
1220;0.45701199769973755;-0.2701079845428467;0.9520879983901978;0.5543680191040039;-0.38649600744247437;1.075551986694336;-4.904375076293945;-12.936875343322754;-12.08375072479248
1222;0.0;0.0;0.0;0.562175989151001;-0.38649600744247437;1.0882400274276733;0.0;0.0;0.0
1224;0.0;0.0;0.0;0.5270400047302246;-0.38259199261665344;1.075551986694336;0.0;0.0;0.0
1226;0.0;0.0;0.0;0.5192319750785828;-0.35916799306869507;1.083359956741333;0.0;0.0;0.0
1228;0.416020005941391;-0.24302399158477783;0.9537959694862366;0.5036159753799438;-0.34355199337005615;1.0716480016708374;-3.224375009536743;-13.076875686645508;-15.163750648498535
1230;0.0;0.0;0.0;0.5153279900550842;-0.37088000774383545;1.075551986694336;0.0;0.0;0.0
1232;0.0;0.0;0.0;0.5075199604034424;-0.34355199337005615;1.0794559717178345;0.0;0.0;0.0
1235;0.0;0.0;0.0;0.4997119903564453;-0.4177280068397522;1.075551986694336;0.0;0.0;0.0
1237;0.3828359842300415;-0.2454639971256256;0.948915958404541;0.5075199604034424;-0.4567679762840271;1.02675199508667;-1.8943750858306885;-13.70687484741211;-17.9637508392334
1239;0.0;0.0;0.0;0.47628799080848694;-0.2576639950275421;1.1360639333724976;0.0;0.0;0.0
1241;0.0;0.0;0.0;0.4030880033969879;-0.24595199525356293;1.180959939956665;0.0;0.0;0.0
1243;0.0;0.0;0.0;0.40699198842048645;-0.2693759799003601;1.1282559633255005;0.0;0.0;0.0
1245;0.31915199756622314;-0.1622599959373474;0.9950319528579712;0.4567679762840271;-0.3240320086479187;1.083359956741333;0.13562500476837158;-14.126874923706055;-21.953750610351562
1247;0.0;0.0;0.0;0.4567679762840271;-0.29280000925064087;1.099951982498169;0.0;0.0;0.0
1249;0.0;0.0;0.0;0.4138239920139313;-0.2810879945755005;1.1038559675216675;0.0;0.0;0.0
1252;0.0;0.0;0.0;0.42163199186325073;-0.29280000925064087;1.1165440082550049;0.0;0.0;0.0
1254;0.30109599232673645;-0.16323599219322205;0.9723399877548218;0.387472003698349;-0.29280000925064087;1.1038559675216675;-4.344375133514404;-17.906875610351562;-24.403751373291016
1256;0.0;0.0;0.0;0.36795198917388916;-0.26156800985336304;1.0589599609375;0.0;0.0;0.0
1258;0.0;0.0;0.0;0.40699198842048645;-0.2967039942741394;1.0638400316238403;0.0;0.0;0.0
1260;0.0;0.0;0.0;0.387472003698349;-0.2967039942741394;1.0794559717178345;0.0;0.0;0.0
1262;0.26742398738861084;-0.15640400350093842;0.9403759837150574;0.36795198917388916;-0.31622397899627686;1.0716480016708374;-1.7543751001358032;-18.186874389648438;-22.09375
1264;0.0;0.0;0.0;0.35233598947525024;-0.30451199412345886;1.0677440166473389;0.0;0.0;0.0
1266;0.0;0.0;0.0;0.3172000050544739;-0.2537599802017212;1.099951982498169;0.0;0.0;0.0
1269;0.0;0.0;0.0;0.29767999053001404;-0.28889599442481995;1.0794559717178345;0.0;0.0;0.0
1271;0.20935200154781342;-0.14176400005817413;0.9481839537620544;0.3054879903793335;-0.230335995554924;1.0716480016708374;7.555624961853027;-14.826875686645508;-19.43375015258789
1273;0.0;0.0;0.0;0.29767999053001404;-0.2654719948768616;1.1038559675216675;0.0;0.0;0.0
1275;0.0;0.0;0.0;0.25863999128341675;-0.23814399540424347;1.1126400232315063;0.0;0.0;0.0
1277;0.0;0.0;0.0;0.26254400610923767;-0.230335995554924;1.140944004058838;0.0;0.0;0.0
1279;0.1500599980354309;-0.10174799710512161;0.9781959652900696;0.23521599173545837;-0.17958399653434753;1.165343999862671;10.775625228881836;-13.3568754196167;-20.203750610351562
1281;0.0;0.0;0.0;0.1844639927148819;-0.19129599630832672;1.148751974105835;0.0;0.0;0.0
1283;0.0;0.0;0.0;0.1727519929409027;-0.16396799683570862;1.1770559549331665;0.0;0.0;0.0
1286;0.0;0.0;0.0;0.21569599211215973;-0.16396799683570862;1.1526559591293335;0.0;0.0;0.0
1288;0.08222799748182297;-0.03415999934077263;1.0191879272460938;0.14640000462532043;-0.11711999773979187;1.1448479890823364;7.345624923706055;-14.966875076293945;-19.50374984741211
1290;0.0;0.0;0.0;0.15030398964881897;-0.15225599706172943;1.140944004058838;0.0;0.0;0.0
1292;0.0;0.0;0.0;0.17665599286556244;-0.1483519971370697;1.107759952545166;0.0;0.0;0.0
1294;0.0;0.0;0.0;0.17665599286556244;-0.1483519971370697;1.132159948348999;0.0;0.0;0.0
1296;0.05270399898290634;-0.02147199958562851;0.9930799603462219;0.16494399309158325;-0.17177599668502808;1.0960479974746704;2.1656250953674316;-18.11687469482422;-18.66374969482422
1298;0.0;0.0;0.0;0.17665599286556244;-0.14444799721240997;1.1126400232315063;0.0;0.0;0.0
1300;0.0;0.0;0.0;0.17372798919677734;-0.14054399728775024;1.124351978302002;0.0;0.0;0.0
1303;0.0;0.0;0.0;0.15030398964881897;-0.14444799721240997;1.1165440082550049;0.0;0.0;0.0
1305;0.0378200002014637;-0.009759999811649323;0.9838079810142517;0.14640000462532043;-0.10931199789047241;1.148751974105835;0.5556249618530273;-17.696874618530273;-16.84375
1307;0.0;0.0;0.0;0.10345599800348282;-0.12492799758911133;1.1370400190353394;0.0;0.0;0.0
1309;0.0;0.0;0.0;0.09174399822950363;-0.15225599706172943;1.1370400190353394;0.0;0.0;0.0
1311;0.0;0.0;0.0;0.06441599875688553;-0.10540799796581268;1.156559944152832;0.0;0.0;0.0
1313;-0.029767999425530434;0.0026839999482035637;1.013819932937622;0.06831999868154526;-0.1327359974384308;1.1770559549331665;-0.5643750429153442;-16.646875381469727;-13.9037504196167
1315;0.0;0.0;0.0;0.037087999284267426;-0.10150399804115295;1.1692479848861694;0.0;0.0;0.0
1317;0.0;0.0;0.0;0.02537599951028824;-0.10540799796581268;1.1848639249801636;0.0;0.0;0.0
1320;0.0;0.0;0.0;0.02147199958562851;-0.12492799758911133;1.1936479806900024;0.0;0.0;0.0
1322;-0.09759999811649323;0.006587999872863293;1.050663948059082;0.0019519999623298645;-0.1210239976644516;1.197551965713501;-2.3843748569488525;-17.486875534057617;-10.68375015258789
1324;0.0;0.0;0.0;-0.0019519999623298645;-0.11321599781513214;1.1848639249801636;0.0;0.0;0.0
1326;0.0;0.0;0.0;-0.029279999434947968;-0.1483519971370697;1.221951961517334;0.0;0.0;0.0
1328;0.0;0.0;0.0;-0.037087999284267426;-0.15225599706172943;1.221951961517334;0.0;0.0;0.0
1330;-0.1454239934682846;-0.02757199853658676;1.079211950302124;-0.05660799890756607;-0.19519999623298645;1.2375680208206177;-4.204375267028809;-19.376874923706055;-6.693749904632568
1332;0.0;0.0;0.0;-0.037087999284267426;-0.17958399653434753;1.2092639207839966;0.0;0.0;0.0
1334;0.0;0.0;0.0;-0.08393599838018417;-0.18348799645900726;1.246351957321167;0.0;0.0;0.0
1337;0.0;0.0;0.0;-0.09857599437236786;-0.20691199600696564;1.221951961517334;0.0;0.0;0.0
1339;-0.19178399443626404;-0.05953599885106087;1.0933640003204346;-0.11028799414634705;-0.187391996383667;1.2375680208206177;-2.244374990463257;-19.936874389648438;-0.9537500143051147
1341;0.0;0.0;0.0;-0.12199999392032623;-0.2147199958562851;1.2258559465408325;0.0;0.0;0.0
1343;0.0;0.0;0.0;-0.13761599361896515;-0.2030079960823059;1.270751953125;0.0;0.0;0.0
1345;0.0;0.0;0.0;-0.16884799301624298;-0.19519999623298645;1.2824640274047852;0.0;0.0;0.0
1347;-0.2654719948768616;-0.06929600238800049;1.1226439476013184;-0.1844639927148819;-0.19910399615764618;1.2668479681015015;1.5356249809265137;-20.00687599182129;4.016250133514404
1349;0.0;0.0;0.0;-0.20788799226284027;-0.2030079960823059;1.2863680124282837;0.0;0.0;0.0
1351;0.0;0.0;0.0;-0.19617599248886108;-0.20691199600696564;1.30295991897583;0.0;0.0;0.0
1354;0.0;0.0;0.0;-0.1844639927148819;-0.2030079960823059;1.2990559339523315;0.0;0.0;0.0
1356;-0.3181760013103485;-0.07124799489974976;1.1494839191436768;-0.2117919921875;-0.2030079960823059;1.2658720016479492;4.405624866485596;-21.826875686645508;7.726250171661377
1358;0.0;0.0;0.0;-0.2000799924135208;-0.187391996383667;1.3146719932556152;0.0;0.0;0.0
1360;0.0;0.0;0.0;-0.24692799150943756;-0.187391996383667;1.2941759824752808;0.0;0.0;0.0
1362;0.0;0.0;0.0;-0.2547360062599182;-0.21081599593162537;1.3068640232086182;0.0;0.0;0.0
1364;-0.3530679941177368;-0.06173199787735939;1.1682720184326172;-0.2547360062599182;-0.21081599593162537;1.3107680082321167;6.295624732971191;-23.016876220703125;10.5962495803833
1366;0.0;0.0;0.0;-0.2664479911327362;-0.17958399653434753;1.319551944732666;0.0;0.0;0.0
1368;0.0;0.0;0.0;-0.27035200595855713;-0.17958399653434753;1.3146719932556152;0.0;0.0;0.0
1371;0.0;0.0;0.0;-0.2898719906806946;-0.187391996383667;1.3107680082321167;0.0;0.0;0.0
1373;-0.4047960042953491;-0.04636000096797943;1.1816920042037964;-0.28596800565719604;-0.17177599668502808;1.3146719932556152;6.505624771118164;-24.486875534057617;12.90625
1375;0.0;0.0;0.0;-0.3093920052051544;-0.16396799683570862;1.319551944732666;0.0;0.0;0.0
1377;0.0;0.0;0.0;-0.31329599022865295;-0.1600639969110489;1.3673759698867798;0.0;0.0;0.0
1379;0.0;0.0;0.0;-0.32500800490379333;-0.19519999623298645;1.327359914779663;0.0;0.0;0.0
1381;-0.43505197763442993;-0.037331998348236084;1.199747920036316;-0.3513599932193756;-0.1756799966096878;1.3429759740829468;4.475625038146973;-26.09687614440918;15.706249237060547
1384;0.0;0.0;0.0;-0.32891198992729187;-0.16787199676036835;1.3595679998397827;0.0;0.0;0.0
1386;0.0;0.0;0.0;-0.3172000050544739;-0.187391996383667;1.3517600297927856;0.0;0.0;0.0
1388;0.0;0.0;0.0;-0.3474559783935547;-0.19129599630832672;1.3517600297927856;0.0;0.0;0.0
1390;-0.44944798946380615;-0.053679998964071274;1.2163399457931519;-0.32500800490379333;-0.21081599593162537;1.319551944732666;-0.1443749964237213;-28.966875076293945;19.626249313354492
1392;0.0;0.0;0.0;-0.35624000430107117;-0.21081599593162537;1.3478559255599976;0.0;0.0;0.0
1394;0.0;0.0;0.0;-0.34355199337005615;-0.21862399578094482;1.3312640190124512;0.0;0.0;0.0
1396;0.0;0.0;0.0;-0.3328160047531128;-0.24985599517822266;1.3351680040359497;0.0;0.0;0.0
1398;-0.46237999200820923;-0.10077200084924698;1.214143991470337;-0.3474559783935547;-0.2693759799003601;1.343951940536499;-4.484375;-30.856874465942383;20.676250457763672
1401;0.0;0.0;0.0;-0.35526400804519653;-0.2576639950275421;1.3312640190124512;0.0;0.0;0.0
1402;0.0;0.0;0.0;-0.35624000430107117;-0.2967039942741394;1.3146719932556152;0.0;0.0;0.0
1405;0.0;0.0;0.0;-0.374783992767334;-0.2810879945755005;1.3390719890594482;0.0;0.0;0.0
1407;-0.4799479842185974;-0.15689200162887573;1.203163981437683;-0.37088000774383545;-0.3201279938220978;1.3312640190124512;-6.724375247955322;-31.4168758392334;18.08625030517578
1409;0.0;0.0;0.0;-0.374783992767334;-0.33183997869491577;1.3312640190124512;0.0;0.0;0.0
1411;0.0;0.0;0.0;-0.374783992767334;-0.3201279938220978;1.3146719932556152;0.0;0.0;0.0
1413;0.0;0.0;0.0;-0.37088000774383545;-0.3084160089492798;1.3351680040359497;0.0;0.0;0.0
1415;-0.48799997568130493;-0.18934398889541626;1.203163981437683;-0.3669759929180145;-0.30060797929763794;1.3234559297561646;-6.724375247955322;-30.50687599182129;14.0962495803833
1418;0.0;0.0;0.0;-0.3474559783935547;-0.34355199337005615;1.327359914779663;0.0;0.0;0.0
1420;0.0;0.0;0.0;-0.33183997869491577;-0.31622397899627686;1.3146719932556152;0.0;0.0;0.0
1422;0.0;0.0;0.0;-0.3474559783935547;-0.3357439935207367;1.3146719932556152;0.0;0.0;0.0
1424;-0.4672600030899048;-0.20105600357055664;1.1916959285736084;-0.32891198992729187;-0.3396480083465576;1.2824640274047852;-5.884375095367432;-29.526874542236328;11.15625
1426;0.0;0.0;0.0;-0.30158400535583496;-0.34355199337005615;1.2863680124282837;0.0;0.0;0.0
1428;0.0;0.0;0.0;-0.30158400535583496;-0.3630719780921936;1.295151948928833;0.0;0.0;0.0
1430;0.0;0.0;0.0;-0.30158400535583496;-0.3357439935207367;1.2619680166244507;0.0;0.0;0.0
1432;-0.4365159869194031;-0.2071560025215149;1.1516799926757812;-0.29767999053001404;-0.3240320086479187;1.2424479722976685;-3.92437481880188;-27.00687599182129;8.91624927520752
1435;0.0;0.0;0.0;-0.2937760055065155;-0.35526400804519653;1.2375680208206177;0.0;0.0;0.0
1437;0.0;0.0;0.0;-0.3093920052051544;-0.33183997869491577;1.2619680166244507;0.0;0.0;0.0
1439;0.0;0.0;0.0;-0.2937760055065155;-0.3357439935207367;1.254159927368164;0.0;0.0;0.0
1441;-0.42163199186325073;-0.2054480016231537;1.118008017539978;-0.31329599022865295;-0.34355199337005615;1.2336640357971191;-1.334375023841858;-23.36687469482422;5.346250057220459
1443;0.0;0.0;0.0;-0.2820639908313751;-0.3396480083465576;1.2336640357971191;0.0;0.0;0.0
1445;0.0;0.0;0.0;-0.3093920052051544;-0.32793599367141724;1.2180479764938354;0.0;0.0;0.0
1447;0.0;0.0;0.0;-0.27035200595855713;-0.3357439935207367;1.2092639207839966;0.0;0.0;0.0
1449;-0.42333999276161194;-0.20325200259685516;1.0914119482040405;-0.2898719906806946;-0.3201279938220978;1.2258559465408325;1.4656249284744263;-19.586875915527344;0.16624999046325684
1452;0.0;0.0;0.0;-0.30158400535583496;-0.3474559783935547;1.205359935760498;0.0;0.0;0.0
1454;0.0;0.0;0.0;-0.30158400535583496;-0.28889599442481995;1.214143991470337;0.0;0.0;0.0
1456;0.0;0.0;0.0;-0.31329599022865295;-0.28889599442481995;1.2014559507369995;0.0;0.0;0.0
1458;-0.43139198422431946;-0.17445999383926392;1.0721359252929688;-0.32793599367141724;-0.28889599442481995;1.205359935760498;4.755624771118164;-16.22687530517578;-4.87375020980835
1460;0.0;0.0;0.0;-0.3172000050544739;-0.2810879945755005;1.1936479806900024;0.0;0.0;0.0
1462;0.0;0.0;0.0;-0.3211039900779724;-0.2576639950275421;1.1936479806900024;0.0;0.0;0.0
1464;0.0;0.0;0.0;-0.34062400460243225;-0.2420479953289032;1.2131680250167847;0.0;0.0;0.0
1466;-0.43773600459098816;-0.12004800140857697;1.0565199851989746;-0.3172000050544739;-0.2147199958562851;1.1848639249801636;7.48562479019165;-13.916874885559082;-8.09375
1468;0.0;0.0;0.0;-0.3054879903793335;-0.22252799570560455;1.1604639291763306;0.0;0.0;0.0
1471;0.0;0.0;0.0;-0.31329599022865295;-0.21862399578094482;1.148751974105835;0.0;0.0;0.0
1473;0.0;0.0;0.0;-0.30158400535583496;-0.20691199600696564;1.132159948348999;0.0;0.0;0.0
1475;-0.42455998063087463;-0.0802759975194931;1.0257760286331177;-0.26254400610923767;-0.2147199958562851;1.140944004058838;9.025625228881836;-12.796875;-9.423750877380371
1477;0.0;0.0;0.0;-0.28596800565719604;-0.21081599593162537;1.1282559633255005;0.0;0.0;0.0
1479;0.0;0.0;0.0;-0.27425599098205566;-0.17177599668502808;1.1165440082550049;0.0;0.0;0.0
1481;0.0;0.0;0.0;-0.26254400610923767;-0.187391996383667;1.1126400232315063;0.0;0.0;0.0
1483;-0.3903999924659729;-0.05636399984359741;0.9855159521102905;-0.24692799150943756;-0.187391996383667;1.083359956741333;9.935625076293945;-10.556875228881836;-8.863750457763672
1486;0.0;0.0;0.0;-0.23131199181079865;-0.1756799966096878;1.099951982498169;0.0;0.0;0.0
1488;0.0;0.0;0.0;-0.24692799150943756;-0.15615999698638916;1.099951982498169;0.0;0.0;0.0
1490;0.0;0.0;0.0;-0.23521599173545837;-0.15615999698638916;1.0960479974746704;0.0;0.0;0.0
1492;-0.3606320023536682;-0.02537599951028824;0.9684360027313232;-0.24302399158477783;-0.14054399728775024;1.107759952545166;10.775625228881836;-6.846875190734863;-7.603750228881836
1494;0.0;0.0;0.0;-0.21569599211215973;-0.14054399728775024;1.0960479974746704;0.0;0.0;0.0
1496;0.0;0.0;0.0;-0.2117919921875;-0.12883199751377106;1.083359956741333;0.0;0.0;0.0
1498;0.0;0.0;0.0;-0.20788799226284027;-0.1210239976644516;1.0960479974746704;0.0;0.0;0.0
1500;-0.33476799726486206;0.0;0.9606279730796814;-0.20788799226284027;-0.12492799758911133;1.107759952545166;10.635624885559082;-3.0668749809265137;-5.853750228881836
1503;0.0;0.0;0.0;-0.2000799924135208;-0.10150399804115295;1.0921440124511719;0.0;0.0;0.0
1505;0.0;0.0;0.0;-0.19227199256420135;-0.10540799796581268;1.0882400274276733;0.0;0.0;0.0
1507;0.0;0.0;0.0;-0.19227199256420135;-0.11321599781513214;1.1038559675216675;0.0;0.0;0.0
1509;-0.3096359968185425;0.007563999854028225;0.9652639627456665;-0.18836799263954163;-0.1327359974384308;1.099951982498169;9.235625267028809;0.15312500298023224;-2.6337499618530273
1511;0.0;0.0;0.0;-0.18055999279022217;-0.10931199789047241;1.107759952545166;0.0;0.0;0.0
1513;0.0;0.0;0.0;-0.18836799263954163;-0.1210239976644516;1.0960479974746704;0.0;0.0;0.0
1515;0.0;0.0;0.0;-0.14932799339294434;-0.1483519971370697;1.0882400274276733;0.0;0.0;0.0
1517;-0.2879199981689453;0.0;0.9679479598999023;-0.15323199331760406;-0.1210239976644516;1.099951982498169;6.715624809265137;2.253124952316284;1.7762500047683716
1520;0.0;0.0;0.0;-0.13761599361896515;-0.12883199751377106;1.1038559675216675;0.0;0.0;0.0
1522;0.0;0.0;0.0;-0.1298079937696457;-0.15615999698638916;1.0921440124511719;0.0;0.0;0.0
1524;0.0;0.0;0.0;-0.12199999392032623;-0.13663999736309052;1.1282559633255005;0.0;0.0;0.0
1526;-0.25400400161743164;-0.014151999726891518;0.973315954208374;-0.09857599437236786;-0.16787199676036835;1.099951982498169;4.335624694824219;3.443125009536743;5.90625
1528;0.0;0.0;0.0;-0.09955199807882309;-0.16787199676036835;1.107759952545166;0.0;0.0;0.0
1530;0.0;0.0;0.0;-0.08003199845552444;-0.1756799966096878;1.1126400232315063;0.0;0.0;0.0
1532;0.0;0.0;0.0;-0.07515199482440948;-0.17177599668502808;1.107759952545166;0.0;0.0;0.0
1534;-0.20495998859405518;-0.03684400022029877;0.9757559895515442;-0.037087999284267426;-0.187391996383667;1.1038559675216675;1.675624966621399;4.283124923706055;8.776249885559082
1537;0.0;0.0;0.0;-0.029279999434947968;-0.19129599630832672;1.0882400274276733;0.0;0.0;0.0
1539;0.0;0.0;0.0;-0.040991999208927155;-0.20691199600696564;1.1126400232315063;0.0;0.0;0.0
1541;0.0;0.0;0.0;-0.009759999811649323;-0.23814399540424347;1.099951982498169;0.0;0.0;0.0
1543;-0.15152399241924286;-0.07124799489974976;0.9698999524116516;-0.0058559998869895935;-0.230335995554924;1.0882400274276733;-0.7743749618530273;5.123124599456787;10.386249542236328
1545;0.0;0.0;0.0;-0.0019519999623298645;-0.21862399578094482;1.0882400274276733;0.0;0.0;0.0
1547;0.0;0.0;0.0;0.009759999811649323;-0.230335995554924;1.083359956741333;0.0;0.0;0.0
1549;0.0;0.0;0.0;0.02147199958562851;-0.24985599517822266;1.0882400274276733;0.0;0.0;0.0
1551;-0.1105320006608963;-0.11101999878883362;0.957211971282959;0.037087999284267426;-0.2537599802017212;1.083359956741333;-1.4743750095367432;6.313124656677246;11.15625
1554;0.0;0.0;0.0;0.04879999905824661;-0.2537599802017212;1.0882400274276733;0.0;0.0;0.0
1556;0.0;0.0;0.0;0.040991999208927155;-0.2576639950275421;1.0472480058670044;0.0;0.0;0.0
1558;0.0;0.0;0.0;0.04879999905824661;-0.2810879945755005;1.051151990890503;0.0;0.0;0.0
1560;-0.07075999677181244;-0.13761599361896515;0.9352520108222961;0.06441599875688553;-0.27327999472618103;1.051151990890503;-0.3543750047683716;7.92312479019165;11.016249656677246
1562;0.0;0.0;0.0;0.11126399785280228;-0.30451199412345886;1.0472480058670044;0.0;0.0;0.0
1564;0.0;0.0;0.0;0.10345599800348282;-0.2693759799003601;1.0306559801101685;0.0;0.0;0.0
1566;0.0;0.0;0.0;0.13078400492668152;-0.2810879945755005;1.0306559801101685;0.0;0.0;0.0
1568;-0.007807999849319458;-0.1437159925699234;0.9101200103759766;0.15323199331760406;-0.2576639950275421;1.0433440208435059;2.7956252098083496;9.743124961853027;10.946249961853027
1571;0.0;0.0;0.0;0.1571359932422638;-0.2576639950275421;1.0355359315872192;0.0;0.0;0.0
1573;0.0;0.0;0.0;0.19617599248886108;-0.28889599442481995;1.0189440250396729;0.0;0.0;0.0
1575;0.0;0.0;0.0;0.16494399309158325;-0.26156800985336304;1.0150399208068848;0.0;0.0;0.0
1577;0.06563600152730942;-0.13761599361896515;0.8837679624557495;0.21569599211215973;-0.2693759799003601;1.002351999282837;7.345624923706055;11.773124694824219;11.716249465942383
1579;0.0;0.0;0.0;0.26254400610923767;-0.29280000925064087;0.986735999584198;0.0;0.0;0.0
1581;0.0;0.0;0.0;0.2664479911327362;-0.26156800985336304;0.986735999584198;0.0;0.0;0.0
1583;0.0;0.0;0.0;0.2937760055065155;-0.2693759799003601;0.9662399888038635;0.0;0.0;0.0
1585;0.1420079916715622;-0.1378600001335144;0.8498519659042358;0.2937760055065155;-0.2576639950275421;0.9906399846076965;12.4556245803833;15.133125305175781;12.976249694824219
1588;0.0;0.0;0.0;0.2937760055065155;-0.26156800985336304;0.9291520118713379;0.0;0.0;0.0
1590;0.0;0.0;0.0;0.3093920052051544;-0.24985599517822266;0.945743978023529;0.0;0.0;0.0
1592;0.0;0.0;0.0;0.3445279896259308;-0.20691199600696564;0.9418399930000305;0.0;0.0;0.0
1594;0.2025199979543686;-0.1239520013332367;0.8213039636611938;0.3445279896259308;-0.24985599517822266;0.937936007976532;17.285625457763672;20.103124618530273;13.746249198913574
1596;0.0;0.0;0.0;0.37966400384902954;-0.23423999547958374;0.9340319633483887;0.0;0.0;0.0
1598;0.0;0.0;0.0;0.37966400384902954;-0.21862399578094482;0.945743978023529;0.0;0.0;0.0
1600;0.0;0.0;0.0;0.3835679888725281;-0.17177599668502808;0.9535520076751709;0.0;0.0;0.0
1602;0.24692799150943756;-0.06905199587345123;0.8176440000534058;0.35624000430107117;-0.15225599706172943;0.9662399888038635;20.715625762939453;25.77312469482422;13.466249465942383
1605;0.0;0.0;0.0;0.3718560039997101;-0.15615999698638916;0.9535520076751709;0.0;0.0;0.0
1607;0.0;0.0;0.0;0.3640480041503906;-0.14054399728775024;0.9584319591522217;0.0;0.0;0.0
1609;0.0;0.0;0.0;0.3835679888725281;-0.12492799758911133;0.9701439738273621;0.0;0.0;0.0
1611;0.24595199525356293;-0.003903999924659729;0.8339920043945312;0.3601439893245697;-0.0936959981918335;0.9740479588508606;19.94562530517578;29.203125;12.276249885559082
1613;0.0;0.0;0.0;0.3640480041503906;-0.07807999849319458;1.002351999282837;0.0;0.0;0.0
1615;0.0;0.0;0.0;0.33671998977661133;-0.04684799909591675;0.9984479546546936;0.0;0.0;0.0
1617;0.0;0.0;0.0;0.35233598947525024;-0.07417599856853485;1.0306559801101685;0.0;0.0;0.0
1619;0.23814399540424347;0.05953599885106087;0.8815720081329346;0.3640480041503906;-0.054655998945236206;1.034559965133667;14.275625228881836;29.623125076293945;12.06624984741211
1622;0.0;0.0;0.0;0.3445279896259308;-0.0663679987192154;1.0306559801101685;0.0;0.0;0.0
1624;0.0;0.0;0.0;0.3484320044517517;-0.04684799909591675;1.0355359315872192;0.0;0.0;0.0
1626;0.0;0.0;0.0;0.3484320044517517;-0.05075199902057648;1.0589599609375;0.0;0.0;0.0
1628;0.23643599450588226;0.08222799748182297;0.912559986114502;0.36795198917388916;-0.04294399917125702;1.075551986694336;2.7956252098083496;26.3331241607666;13.046249389648438
1630;0.0;0.0;0.0;0.4021120071411133;-0.09759999811649323;1.0394400358200073;0.0;0.0;0.0
1632;0.0;0.0;0.0;0.39528000354766846;-0.0936959981918335;1.0355359315872192;0.0;0.0;0.0
1634;0.0;0.0;0.0;0.4411519765853882;-0.07807999849319458;1.0716480016708374;0.0;0.0;0.0
1636;0.29231199622154236;0.042211998254060745;0.9267119765281677;0.4294399917125702;-0.09759999811649323;1.0794559717178345;-6.864375114440918;22.903125762939453;14.866250038146973
1639;0.0;0.0;0.0;0.45286399126052856;-0.10150399804115295;1.0882400274276733;0.0;0.0;0.0
1641;0.0;0.0;0.0;0.4840959906578064;-0.1327359974384308;1.099951982498169;0.0;0.0;0.0
1643;0.0;0.0;0.0;0.47628799080848694;-0.10931199789047241;1.083359956741333;0.0;0.0;0.0
1645;0.3374519944190979;0.01512799970805645;0.961359977722168;0.472383975982666;-0.11321599781513214;1.0882400274276733;-13.024374961853027;19.963125228881836;19.626249313354492
1647;0.0;0.0;0.0;0.460671991109848;-0.1600639969110489;1.083359956741333;0.0;0.0;0.0
1649;0.0;0.0;0.0;0.48019200563430786;-0.16787199676036835;1.0794559717178345;0.0;0.0;0.0
1651;0.0;0.0;0.0;0.48019200563430786;-0.18348799645900726;1.107759952545166;0.0;0.0;0.0
1653;0.3752720057964325;-0.025863999500870705;0.9703879952430725;0.5153279900550842;-0.17958399653434753;1.1038559675216675;-17.364376068115234;15.903124809265137;22.776248931884766
1656;0.0;0.0;0.0;0.5348479747772217;-0.21081599593162537;1.0960479974746704;0.0;0.0;0.0
1658;0.0;0.0;0.0;0.5504639744758606;-0.19910399615764618;1.1165440082550049;0.0;0.0;0.0
1660;0.0;0.0;0.0;0.5816959738731384;-0.2420479953289032;1.099951982498169;0.0;0.0;0.0
1662;0.4484719932079315;-0.09272000193595886;0.9650200009346008;0.6051200032234192;-0.24985599517822266;1.0960479974746704;-19.464374542236328;13.313124656677246;23.896249771118164
1664;0.0;0.0;0.0;0.6129279732704163;-0.2654719948768616;1.083359956741333;0.0;0.0;0.0
1666;0.0;0.0;0.0;0.6051200032234192;-0.2693759799003601;1.099951982498169;0.0;0.0;0.0
1668;0.0;0.0;0.0;0.6207360029220581;-0.27327999472618103;1.0960479974746704;0.0;0.0;0.0
1670;0.493367999792099;-0.13541999459266663;0.9633119702339172;0.636352002620697;-0.27718400955200195;1.0960479974746704;-18.764375686645508;13.943124771118164;23.616249084472656
1673;0.0;0.0;0.0;0.6129279732704163;-0.27718400955200195;1.0843359231948853;0.0;0.0;0.0
1675;0.0;0.0;0.0;0.6548959612846375;-0.2967039942741394;1.0882400274276733;0.0;0.0;0.0
1677;0.0;0.0;0.0;0.6519680023193359;-0.3123199939727783;1.107759952545166;0.0;0.0;0.0
1679;0.533627986907959;-0.1681160032749176;0.9730719923973083;0.6666079759597778;-0.3084160089492798;1.1165440082550049;-16.80437469482422;14.503125190734863;19.69624900817871
1681;0.0;0.0;0.0;0.6744160056114197;-0.30060797929763794;1.0960479974746704;0.0;0.0;0.0
1683;0.0;0.0;0.0;0.6822239756584167;-0.3396480083465576;1.0921440124511719;0.0;0.0;0.0
1685;0.0;0.0;0.0;0.6861279606819153;-0.3240320086479187;1.107759952545166;0.0;0.0;0.0
1687;0.5582720041275024;-0.18665999174118042;0.9781959652900696;0.6402559876441956;-0.31622397899627686;1.1204479932785034;-13.304375648498535;15.133125305175781;16.826250076293945
1690;0.0;0.0;0.0;0.6939359903335571;-0.3240320086479187;1.1038559675216675;0.0;0.0;0.0
1692;0.0;0.0;0.0;0.7173599600791931;-0.34355199337005615;1.099951982498169;0.0;0.0;0.0
1694;0.0;0.0;0.0;0.6900320053100586;-0.3786879777908325;1.0794559717178345;0.0;0.0;0.0
1696;0.5829159617424011;-0.2076440006494522;0.9659959673881531;0.7290719747543335;-0.35526400804519653;1.1126400232315063;-8.684374809265137;15.483124732971191;10.386249542236328
1698;0.0;0.0;0.0;0.7407839894294739;-0.3474559783935547;1.0960479974746704;0.0;0.0;0.0
1700;0.0;0.0;0.0;0.725167989730835;-0.3513599932193756;1.0794559717178345;0.0;0.0;0.0
1702;0.0;0.0;0.0;0.725167989730835;-0.3513599932193756;1.0794559717178345;0.0;0.0;0.0
1704;0.6021919846534729;-0.21252399682998657;0.9598959684371948;0.732975959777832;-0.33183997869491577;1.0716480016708374;-2.5243749618530273;17.933124542236328;6.396250247955322
1707;0.0;0.0;0.0;0.6978399753570557;-0.3474559783935547;1.099951982498169;0.0;0.0;0.0
1709;0.0;0.0;0.0;0.6558719873428345;-0.3240320086479187;1.1165440082550049;0.0;0.0;0.0
1711;0.0;0.0;0.0;0.6822239756584167;-0.284991979598999;1.0960479974746704;0.0;0.0;0.0
1713;0.5765720009803772;-0.1820240020751953;0.9642879962921143;0.6939359903335571;-0.3123199939727783;1.0921440124511719;3.215625047683716;21.223125457763672;2.6862499713897705
1715;0.0;0.0;0.0;0.6441599726676941;-0.30060797929763794;1.124351978302002;0.0;0.0;0.0
1717;0.0;0.0;0.0;0.6783199906349182;-0.27327999472618103;1.1038559675216675;0.0;0.0;0.0
1719;0.0;0.0;0.0;0.6744160056114197;-0.2693759799003601;1.1204479932785034;0.0;0.0;0.0
1721;0.5514400005340576;-0.14225199818611145;0.9762439727783203;0.659775972366333;-0.2693759799003601;1.1126400232315063;7.555624961853027;21.433124542236328;-0.8837499618530273
1724;0.0;0.0;0.0;0.6480640172958374;-0.22643199563026428;1.099951982498169;0.0;0.0;0.0
1726;0.0;0.0;0.0;0.6519680023193359;-0.24985599517822266;1.099951982498169;0.0;0.0;0.0
1728;0.0;0.0;0.0;0.6705119609832764;-0.20691199600696564;1.107759952545166;0.0;0.0;0.0
1730;0.5472919940948486;-0.1193159967660904;0.9777079820632935;0.6705119609832764;-0.22252799570560455;1.0882400274276733;10.075624465942383;20.733125686645508;-3.1237499713897705
1732;0.0;0.0;0.0;0.6675840020179749;-0.2030079960823059;1.1204479932785034;0.0;0.0;0.0
1734;0.0;0.0;0.0;0.6285439729690552;-0.24595199525356293;1.1165440082550049;0.0;0.0;0.0
1736;0.0;0.0;0.0;0.6207360029220581;-0.19129599630832672;1.1038559675216675;0.0;0.0;0.0
1738;0.5316759943962097;-0.0832040011882782;0.9755119681358337;0.6285439729690552;-0.21862399578094482;1.0882400274276733;11.265625;19.473125457763672;-5.083749771118164
1741;0.0;0.0;0.0;0.6548959612846375;-0.19519999623298645;1.0921440124511719;0.0;0.0;0.0
1743;0.0;0.0;0.0;0.6392799615859985;-0.187391996383667;1.099951982498169;0.0;0.0;0.0
1745;0.0;0.0;0.0;0.6207360029220581;-0.16396799683570862;1.0921440124511719;0.0;0.0;0.0
1747;0.5233799815177917;-0.04367600008845329;0.973315954208374;0.6548959612846375;-0.16787199676036835;1.132159948348999;10.565625190734863;17.093124389648438;-7.323750019073486
1749;0.0;0.0;0.0;0.6558719873428345;-0.1600639969110489;1.0921440124511719;0.0;0.0;0.0
1751;0.0;0.0;0.0;0.6480640172958374;-0.1483519971370697;1.1165440082550049;0.0;0.0;0.0
1753;0.0;0.0;0.0;0.6480640172958374;-0.1600639969110489;1.1126400232315063;0.0;0.0;0.0
1755;0.526308000087738;-0.028060000389814377;0.9750239849090576;0.636352002620697;-0.17958399653434753;1.0921440124511719;8.11562442779541;13.733124732971191;-8.09375
1758;0.0;0.0;0.0;0.636352002620697;-0.16396799683570862;1.107759952545166;0.0;0.0;0.0
1760;0.0;0.0;0.0;0.6627039909362793;-0.16787199676036835;1.0677440166473389;0.0;0.0;0.0
1762;0.0;0.0;0.0;0.6705119609832764;-0.17177599668502808;1.0882400274276733;0.0;0.0;0.0
1764;0.5355799794197083;-0.04270000010728836;0.9584319591522217;0.6627039909362793;-0.19129599630832672;1.1038559675216675;5.73562479019165;10.513124465942383;-7.81374979019165
1766;0.0;0.0;0.0;0.6744160056114197;-0.19129599630832672;1.0472480058670044;0.0;0.0;0.0
1768;0.0;0.0;0.0;0.6548959612846375;-0.19910399615764618;1.0599359273910522;0.0;0.0;0.0
1770;0.0;0.0;0.0;0.6900320053100586;-0.19129599630832672;1.0716480016708374;0.0;0.0;0.0
1772;0.5463159680366516;-0.062219999730587006;0.9430599808692932;0.6480640172958374;-0.21081599593162537;1.075551986694336;4.965624809265137;9.183124542236328;-8.513750076293945
1775;0.0;0.0;0.0;0.6519680023193359;-0.22643199563026428;1.0716480016708374;0.0;0.0;0.0
1777;0.0;0.0;0.0;0.6705119609832764;-0.23814399540424347;1.0599359273910522;0.0;0.0;0.0
1779;0.0;0.0;0.0;0.6705119609832764;-0.230335995554924;1.0638400316238403;0.0;0.0;0.0
1781;0.5468040108680725;-0.0773480013012886;0.9311040043830872;0.6509919762611389;-0.2147199958562851;1.0638400316238403;5.525624752044678;9.463125228881836;-9.843750953674316
1783;0.0;0.0;0.0;0.6402559876441956;-0.23423999547958374;1.0638400316238403;0.0;0.0;0.0
1785;0.0;0.0;0.0;0.6285439729690552;-0.21081599593162537;1.0716480016708374;0.0;0.0;0.0
1787;0.0;0.0;0.0;0.6324479579925537;-0.20691199600696564;1.0638400316238403;0.0;0.0;0.0
1790;0.5287479758262634;-0.0802759975194931;0.9269559979438782;0.636352002620697;-0.1756799966096878;1.0472480058670044;7.135624885559082;10.023124694824219;-10.963750839233398
1792;0.0;0.0;0.0;0.6051200032234192;-0.19910399615764618;1.02675199508667;0.0;0.0;0.0
1794;0.0;0.0;0.0;0.5973119735717773;-0.2030079960823059;1.0882400274276733;0.0;0.0;0.0
1796;0.0;0.0;0.0;0.6051200032234192;-0.19519999623298645;1.0550559759140015;0.0;0.0;0.0
1798;0.5011759996414185;-0.06539200246334076;0.9291520118713379;0.6051200032234192;-0.19129599630832672;1.0599359273910522;8.465624809265137;10.093124389648438;-11.873750686645508
1800;0.0;0.0;0.0;0.6090239882469177;-0.18348799645900726;1.0638400316238403;0.0;0.0;0.0
1802;0.0;0.0;0.0;0.5934079885482788;-0.1600639969110489;1.0638400316238403;0.0;0.0;0.0
1804;0.0;0.0;0.0;0.6207360029220581;-0.17958399653434753;1.0677440166473389;0.0;0.0;0.0
1807;0.49239200353622437;-0.04318799823522568;0.9367159605026245;0.6246399879455566;-0.16787199676036835;1.0921440124511719;8.67562484741211;9.463125228881836;-12.08375072479248
1809;0.0;0.0;0.0;0.6168320178985596;-0.14054399728775024;1.1165440082550049;0.0;0.0;0.0
1811;0.0;0.0;0.0;0.6090239882469177;-0.17958399653434753;1.0589599609375;0.0;0.0;0.0
1813;0.0;0.0;0.0;0.5895040035247803;-0.15225599706172943;1.083359956741333;0.0;0.0;0.0
1815;0.4845840036869049;-0.03391600027680397;0.9452559947967529;0.6051200032234192;-0.17958399653434753;1.0794559717178345;7.835624694824219;8.203125;-11.523750305175781
1817;0.0;0.0;0.0;0.5895040035247803;-0.19519999623298645;1.0716480016708374;0.0;0.0;0.0
1819;0.0;0.0;0.0;0.6051200032234192;-0.16787199676036835;1.0794559717178345;0.0;0.0;0.0
1821;0.0;0.0;0.0;0.5934079885482788;-0.1756799966096878;1.0794559717178345;0.0;0.0;0.0
1824;0.47848400473594666;-0.03806399926543236;0.945743978023529;0.6012159585952759;-0.1756799966096878;1.0599359273910522;6.085624694824219;6.593124866485596;-11.943750381469727
1826;0.0;0.0;0.0;0.5934079885482788;-0.16396799683570862;1.0716480016708374;0.0;0.0;0.0
1828;0.0;0.0;0.0;0.6051200032234192;-0.17177599668502808;1.0794559717178345;0.0;0.0;0.0
1830;0.0;0.0;0.0;0.5895040035247803;-0.17177599668502808;1.0960479974746704;0.0;0.0;0.0
1832;0.4823879897594452;-0.0424560010433197;0.9486719965934753;0.6012159585952759;-0.16396799683570862;1.075551986694336;4.265625;5.193124771118164;-13.343750953674316
1834;0.0;0.0;0.0;0.6051200032234192;-0.187391996383667;1.0589599609375;0.0;0.0;0.0
1836;0.0;0.0;0.0;0.5856000185012817;-0.16396799683570862;1.0882400274276733;0.0;0.0;0.0
1838;0.0;0.0;0.0;0.6051200032234192;-0.15615999698638916;1.0794559717178345;0.0;0.0;0.0
1841;0.4753119945526123;-0.04416399821639061;0.9603840112686157;0.5738880038261414;-0.1600639969110489;1.099951982498169;2.7956252098083496;3.513124942779541;-15.163750648498535
1843;0.0;0.0;0.0;0.5777919888496399;-0.1756799966096878;1.0921440124511719;0.0;0.0;0.0
1845;0.0;0.0;0.0;0.5777919888496399;-0.1756799966096878;1.099951982498169;0.0;0.0;0.0
1847;0.0;0.0;0.0;0.5738880038261414;-0.18348799645900726;1.0794559717178345;0.0;0.0;0.0
1849;0.4601839780807495;-0.049531999975442886;0.9698999524116516;0.5934079885482788;-0.19129599630832672;1.1126400232315063;1.8156249523162842;0.7831250429153442;-16.563751220703125
1851;0.0;0.0;0.0;0.5738880038261414;-0.17177599668502808;1.1038559675216675;0.0;0.0;0.0
1853;0.0;0.0;0.0;0.6012159585952759;-0.19129599630832672;1.0882400274276733;0.0;0.0;0.0
1855;0.0;0.0;0.0;0.5816959738731384;-0.21081599593162537;1.0921440124511719;0.0;0.0;0.0
1858;0.4682359993457794;-0.06368400156497955;0.9608719944953918;0.6129279732704163;-0.2030079960823059;1.0882400274276733;2.3756251335144043;-2.0868749618530273;-17.263750076293945
1860;0.0;0.0;0.0;0.6285439729690552;-0.2030079960823059;1.0638400316238403;0.0;0.0;0.0
1862;0.0;0.0;0.0;0.6051200032234192;-0.19519999623298645;1.0882400274276733;0.0;0.0;0.0
1864;0.0;0.0;0.0;0.6129279732704163;-0.2147199958562851;1.0589599609375;0.0;0.0;0.0
1866;0.48555999994277954;-0.06929600238800049;0.9413520097732544;0.5895040035247803;-0.20691199600696564;1.0677440166473389;5.105624675750732;-2.926875114440918;-17.193750381469727
1868;0.0;0.0;0.0;0.5856000185012817;-0.20691199600696564;1.0677440166473389;0.0;0.0;0.0
1870;0.0;0.0;0.0;0.6051200032234192;-0.2030079960823059;1.0599359273910522;0.0;0.0;0.0
1872;0.0;0.0;0.0;0.5738880038261414;-0.21081599593162537;1.051151990890503;0.0;0.0;0.0
1875;0.47262799739837646;-0.0558759979903698;0.9318360090255737;0.5660799741744995;-0.187391996383667;1.075551986694336;8.535624504089355;-2.0168750286102295;-17.333749771118164
1877;0.0;0.0;0.0;0.5973119735717773;-0.19519999623298645;1.0638400316238403;0.0;0.0;0.0
1879;0.0;0.0;0.0;0.5543680191040039;-0.187391996383667;1.0794559717178345;0.0;0.0;0.0
1881;0.0;0.0;0.0;0.5582720041275024;-0.17177599668502808;1.0960479974746704;0.0;0.0;0.0
1883;0.4421280026435852;-0.04318799823522568;0.9464759826660156;0.5387519598007202;-0.187391996383667;1.0921440124511719;10.565625190734863;-0.6868749856948853;-18.033750534057617
1885;0.0;0.0;0.0;0.5426560044288635;-0.18348799645900726;1.1038559675216675;0.0;0.0;0.0
1887;0.0;0.0;0.0;0.5231360197067261;-0.15615999698638916;1.1204479932785034;0.0;0.0;0.0
1889;0.0;0.0;0.0;0.5348479747772217;-0.14054399728775024;1.1204479932785034;0.0;0.0;0.0
1892;0.3984519839286804;-0.028060000389814377;0.9828319549560547;0.5075199604034424;-0.15615999698638916;1.1370400190353394;10.565625190734863;-0.8268749713897705;-17.9637508392334
1894;0.0;0.0;0.0;0.5075199604034424;-0.23814399540424347;1.051151990890503;0.0;0.0;0.0
1896;0.0;0.0;0.0;0.4997119903564453;-0.17958399653434753;1.075551986694336;0.0;0.0;0.0
1898;0.0;0.0;0.0;0.4333440065383911;-0.07417599856853485;1.124351978302002;0.0;0.0;0.0
1900;0.3623400032520294;-0.03245199844241142;0.9716079831123352;0.43724799156188965;-0.1327359974384308;1.0882400274276733;10.845624923706055;-0.8968750238418579;-17.473751068115234
1902;0.0;0.0;0.0;0.5036159753799438;-0.10931199789047241;1.075551986694336;0.0;0.0;0.0
1904;0.0;0.0;0.0;0.472383975982666;-0.17177599668502808;1.083359956741333;0.0;0.0;0.0
1906;0.0;0.0;0.0;0.45286399126052856;-0.18348799645900726;1.0794559717178345;0.0;0.0;0.0
1909;0.3533119857311249;-0.02147199958562851;0.9547719955444336;0.4333440065383911;-0.16787199676036835;1.0550559759140015;8.67562484741211;-0.33687499165534973;-19.153751373291016
1911;0.0;0.0;0.0;0.42553597688674927;-0.1327359974384308;1.051151990890503;0.0;0.0;0.0
1913;0.0;0.0;0.0;0.36795198917388916;-0.15225599706172943;1.0716480016708374;0.0;0.0;0.0
1915;0.0;0.0;0.0;0.3601439893245697;-0.18348799645900726;1.051151990890503;0.0;0.0;0.0
1917;0.2613239884376526;-0.02122800052165985;0.9303719997406006;0.32891198992729187;-0.14444799721240997;1.0433440208435059;9.305624961853027;3.093125104904175;-22.09375
1919;0.0;0.0;0.0;0.3093920052051544;-0.16787199676036835;1.0550559759140015;0.0;0.0;0.0
1921;0.0;0.0;0.0;0.3054879903793335;-0.15225599706172943;1.075551986694336;0.0;0.0;0.0
1923;0.0;0.0;0.0;0.2547360062599182;-0.17177599668502808;1.083359956741333;0.0;0.0;0.0
1926;0.16103999316692352;-0.02635199949145317;0.9391559958457947;0.2235039919614792;-0.1210239976644516;1.1038559675216675;12.735625267028809;6.103124618530273;-27.063751220703125
1928;0.0;0.0;0.0;0.2235039919614792;-0.12883199751377106;1.0794559717178345;0.0;0.0;0.0
1930;0.0;0.0;0.0;0.2000799924135208;-0.13663999736309052;1.0716480016708374;0.0;0.0;0.0
1932;0.0;0.0;0.0;0.1844639927148819;-0.1327359974384308;1.0677440166473389;0.0;0.0;0.0
1934;0.07783599942922592;0.0012199999764561653;0.9611159563064575;0.15030398964881897;-0.12492799758911133;1.0921440124511719;13.435625076293945;6.523124694824219;-27.693750381469727
1936;0.0;0.0;0.0;0.115167997777462;-0.14054399728775024;1.0921440124511719;0.0;0.0;0.0
1938;0.0;0.0;0.0;0.115167997777462;-0.08198399841785431;1.1204479932785034;0.0;0.0;0.0
1940;0.0;0.0;0.0;0.0878399983048439;-0.08979199826717377;1.1165440082550049;0.0;0.0;0.0
1943;-0.010003999806940556;0.02513200044631958;0.9757559895515442;0.0605119988322258;-0.10540799796581268;1.132159948348999;13.085624694824219;5.613124847412109;-24.123750686645508
1945;0.0;0.0;0.0;0.08003199845552444;-0.11711999773979187;1.1126400232315063;0.0;0.0;0.0
1947;0.0;0.0;0.0;0.044895999133586884;-0.10931199789047241;1.124351978302002;0.0;0.0;0.0
1949;0.0;0.0;0.0;0.02537599951028824;-0.14054399728775024;1.1360639333724976;0.0;0.0;0.0
1951;-0.07539600133895874;0.010735999792814255;0.9891759753227234;0.044895999133586884;-0.14444799721240997;1.1038559675216675;14.415624618530273;3.653125047683716;-18.52375030517578
1953;0.0;0.0;0.0;-0.02537599951028824;-0.14444799721240997;1.107759952545166;0.0;0.0;0.0
1955;0.0;0.0;0.0;-0.009759999811649323;-0.16396799683570862;1.0960479974746704;0.0;0.0;0.0
1957;0.0;0.0;0.0;-0.05270399898290634;-0.15225599706172943;1.132159948348999;0.0;0.0;0.0
1960;-0.13859200477600098;-0.010491999797523022;0.9789279699325562;-0.07612799853086472;-0.15615999698638916;1.124351978302002;17.215625762939453;3.3731250762939453;-12.08375072479248
1962;0.0;0.0;0.0;-0.0878399983048439;-0.13663999736309052;1.1126400232315063;0.0;0.0;0.0
1964;0.0;0.0;0.0;-0.1298079937696457;-0.1327359974384308;1.1038559675216675;0.0;0.0;0.0
1966;0.0;0.0;0.0;-0.08686399459838867;-0.15615999698638916;1.124351978302002;0.0;0.0;0.0
1968;-0.2193560004234314;-0.0029279999434947968;0.9886879920959473;-0.1180959939956665;-0.13663999736309052;1.1038559675216675;19.315624237060547;4.353124618530273;-8.163750648498535
1970;0.0;0.0;0.0;-0.10638399422168732;-0.13663999736309052;1.124351978302002;0.0;0.0;0.0
1972;0.0;0.0;0.0;-0.1454239934682846;-0.12492799758911133;1.1087360382080078;0.0;0.0;0.0
1975;0.0;0.0;0.0;-0.1571359932422638;-0.1210239976644516;1.140944004058838;0.0;0.0;0.0
1977;-0.27132800221443176;-0.0024399999529123306;0.9930799603462219;-0.19227199256420135;-0.1210239976644516;1.140944004058838;21.205625534057617;4.9131245613098145;-4.383749961853027
1979;0.0;0.0;0.0;-0.20398399233818054;-0.10931199789047241;1.124351978302002;0.0;0.0;0.0
1981;0.0;0.0;0.0;-0.20398399233818054;-0.10540799796581268;1.165343999862671;0.0;0.0;0.0
1983;0.0;0.0;0.0;-0.25863999128341675;-0.08588799834251404;1.173151969909668;0.0;0.0;0.0
1985;-0.346235990524292;0.03513599932193756;1.02675199508667;-0.2898719906806946;-0.062463998794555664;1.1887680292129517;21.905624389648438;5.123124599456787;2.1962499618530273
1987;0.0;0.0;0.0;-0.3093920052051544;-0.08588799834251404;1.173151969909668;0.0;0.0;0.0
1989;0.0;0.0;0.0;-0.3328160047531128;-0.07417599856853485;1.1936479806900024;0.0;0.0;0.0
1992;0.0;0.0;0.0;-0.3786879777908325;-0.011711999773979187;1.229759931564331;0.0;0.0;0.0
1994;-0.46213600039482117;0.0756400004029274;1.0645719766616821;-0.374783992767334;-0.07417599856853485;1.180959939956665;17.985624313354492;2.0431249141693115;7.516250133514404
1996;0.0;0.0;0.0;-0.39820799231529236;-0.031231999397277832;1.1936479806900024;0.0;0.0;0.0
1998;0.0;0.0;0.0;-0.4060159921646118;-0.07027199864387512;1.2180479764938354;0.0;0.0;0.0
2000;0.0;0.0;0.0;-0.4060159921646118;-0.054655998945236206;1.197551965713501;0.0;0.0;0.0
2002;-0.5280159711837769;0.07466399669647217;1.0645719766616821;-0.4060159921646118;-0.054655998945236206;1.1936479806900024;8.67562484741211;-4.116875171661377;10.456249237060547
2004;0.0;0.0;0.0;-0.40991997718811035;-0.07807999849319458;1.197551965713501;0.0;0.0;0.0
2006;0.0;0.0;0.0;-0.38649600744247437;-0.08198399841785431;1.197551965713501;0.0;0.0;0.0
2009;0.0;0.0;0.0;-0.4177280068397522;-0.0663679987192154;1.1887680292129517;0.0;0.0;0.0
2011;-0.52947998046875;0.050995998084545135;1.0562759637832642;-0.4021120071411133;-0.09759999811649323;1.189743995666504;-2.804374933242798;-9.716875076293945;13.81624984741211
2013;0.0;0.0;0.0;-0.4021120071411133;-0.10931199789047241;1.1770559549331665;0.0;0.0;0.0
2015;0.0;0.0;0.0;-0.4177280068397522;-0.10931199789047241;1.189743995666504;0.0;0.0;0.0
2017;0.0;0.0;0.0;-0.43724799156188965;-0.13663999736309052;1.180959939956665;0.0;0.0;0.0
2019;-0.5438759922981262;0.018543999642133713;1.0543240308761597;-0.46457600593566895;-0.1483519971370697;1.180959939956665;-14.284375190734863;-13.146875381469727;18.436248779296875
2021;0.0;0.0;0.0;-0.4450559914112091;-0.13663999736309052;1.1770559549331665;0.0;0.0;0.0
2023;0.0;0.0;0.0;-0.4567679762840271;-0.1756799966096878;1.197551965713501;0.0;0.0;0.0
2026;0.0;0.0;0.0;-0.42163199186325073;-0.187391996383667;1.1848639249801636;0.0;0.0;0.0
2028;-0.5597360134124756;-0.04636000096797943;1.0555440187454224;-0.4411519765853882;-0.23423999547958374;1.189743995666504;-23.594375610351562;-15.806875228881836;22.916250228881836
2030;0.0;0.0;0.0;-0.43724799156188965;-0.2420479953289032;1.1848639249801636;0.0;0.0;0.0
2032;0.0;0.0;0.0;-0.4177280068397522;-0.30060797929763794;1.1936479806900024;0.0;0.0;0.0
2034;0.0;0.0;0.0;-0.42163199186325073;-0.3084160089492798;1.1848639249801636;0.0;0.0;0.0
2036;-0.5382639765739441;-0.14444799721240997;1.0599359273910522;-0.4060159921646118;-0.3123199939727783;1.1848639249801636;-29.544374465942383;-17.626874923706055;26.486249923706055
2038;0.0;0.0;0.0;-0.3786879777908325;-0.3396480083465576;1.1770559549331665;0.0;0.0;0.0
2040;0.0;0.0;0.0;-0.4021120071411133;-0.39430397748947144;1.180959939956665;0.0;0.0;0.0
2043;0.0;0.0;0.0;-0.38649600744247437;-0.3786879777908325;1.189743995666504;0.0;0.0;0.0
2045;-0.5202080011367798;-0.23887600004673004;1.0540800094604492;-0.3669759929180145;-0.4060159921646118;1.148751974105835;-30.384374618530273;-16.716875076293945;27.81624984741211
2047;0.0;0.0;0.0;-0.42553597688674927;-0.42163199186325073;1.1848639249801636;0.0;0.0;0.0
2049;0.0;0.0;0.0;-0.4021120071411133;-0.42163199186325073;1.1770559549331665;0.0;0.0;0.0
2051;0.0;0.0;0.0;-0.40991997718811035;-0.4333440065383911;1.205359935760498;0.0;0.0;0.0
2053;-0.5228919982910156;-0.30329200625419617;1.0504199266433716;-0.39430397748947144;-0.47628799080848694;1.165343999862671;-26.184375762939453;-12.866875648498535;24.666250228881836
2055;0.0;0.0;0.0;-0.40991997718811035;-0.44896000623703003;1.1770559549331665;0.0;0.0;0.0
2057;0.0;0.0;0.0;-0.40991997718811035;-0.460671991109848;1.205359935760498;0.0;0.0;0.0
2060;0.0;0.0;0.0;-0.4138239920139313;-0.4997119903564453;1.197551965713501;0.0;0.0;0.0
2062;-0.5387519598007202;-0.3323279917240143;1.0655479431152344;-0.43724799156188965;-0.45286399126052856;1.2014559507369995;-19.39437484741211;-9.086874961853027;19.276248931884766
2064;0.0;0.0;0.0;-0.4138239920139313;-0.4450559914112091;1.197551965713501;0.0;0.0;0.0
2066;0.0;0.0;0.0;-0.43724799156188965;-0.48019200563430786;1.1848639249801636;0.0;0.0;0.0
2068;0.0;0.0;0.0;-0.460671991109848;-0.4450559914112091;1.2014559507369995;0.0;0.0;0.0
2070;-0.5714479684829712;-0.33135199546813965;1.063107967376709;-0.45286399126052856;-0.4450559914112091;1.197551965713501;-11.624375343322754;-7.546875476837158;13.116250038146973
2072;0.0;0.0;0.0;-0.45286399126052856;-0.4411519765853882;1.1770559549331665;0.0;0.0;0.0
2074;0.0;0.0;0.0;-0.4333440065383911;-0.4294399917125702;1.189743995666504;0.0;0.0;0.0
2077;0.0;0.0;0.0;-0.45286399126052856;-0.3903999924659729;1.2131680250167847;0.0;0.0;0.0
2079;-0.5775479674339294;-0.28547999262809753;1.0679880380630493;-0.46457600593566895;-0.38649600744247437;1.2014559507369995;-4.274374961853027;-5.936875343322754;7.586249828338623
2081;0.0;0.0;0.0;-0.43724799156188965;-0.37088000774383545;1.2180479764938354;0.0;0.0;0.0
2083;0.0;0.0;0.0;-0.4450559914112091;-0.3474559783935547;1.221951961517334;0.0;0.0;0.0
2085;0.0;0.0;0.0;-0.44896000623703003;-0.33183997869491577;1.2375680208206177;0.0;0.0;0.0
2087;-0.5702279806137085;-0.2198439985513687;1.0904359817504883;-0.45286399126052856;-0.33183997869491577;1.2092639207839966;0.13562500476837158;-5.376875400543213;5.90625
2089;0.0;0.0;0.0;-0.4138239920139313;-0.3084160089492798;1.2014559507369995;0.0;0.0;0.0
2091;0.0;0.0;0.0;-0.42553597688674927;-0.28889599442481995;1.2131680250167847;0.0;0.0;0.0
2094;0.0;0.0;0.0;-0.4021120071411133;-0.30451199412345886;1.197551965713501;0.0;0.0;0.0
2096;-0.5424119830131531;-0.18104799091815948;1.0809199810028076;-0.4411519765853882;-0.29280000925064087;1.197551965713501;1.4656249284744263;-6.426875114440918;6.396250247955322
2098;0.0;0.0;0.0;-0.38649600744247437;-0.284991979598999;1.180959939956665;0.0;0.0;0.0
2100;0.0;0.0;0.0;-0.35916799306869507;-0.2810879945755005;1.1848639249801636;0.0;0.0;0.0
2102;0.0;0.0;0.0;-0.3669759929180145;-0.27327999472618103;1.180959939956665;0.0;0.0;0.0
2104;-0.49727198481559753;-0.16079600155353546;1.0555440187454224;-0.3669759929180145;-0.31622397899627686;1.1848639249801636;1.2556250095367432;-5.936875343322754;5.696249961853027
2106;0.0;0.0;0.0;-0.37088000774383545;-0.27718400955200195;1.1770559549331665;0.0;0.0;0.0
2108;0.0;0.0;0.0;-0.35916799306869507;-0.2693759799003601;1.197551965713501;0.0;0.0;0.0
2111;0.0;0.0;0.0;-0.38649600744247437;-0.23814399540424347;1.2014559507369995;0.0;0.0;0.0
2113;-0.49190399050712585;-0.14127600193023682;1.0523719787597656;-0.3786879777908325;-0.26156800985336304;1.214143991470337;-0.28437501192092896;-3.976875066757202;2.6862499713897705
2115;0.0;0.0;0.0;-0.3669759929180145;-0.2537599802017212;1.1848639249801636;0.0;0.0;0.0
2117;0.0;0.0;0.0;-0.3786879777908325;-0.23814399540424347;1.1936479806900024;0.0;0.0;0.0
2119;0.0;0.0;0.0;-0.39820799231529236;-0.21862399578094482;1.1936479806900024;0.0;0.0;0.0
2121;-0.5114240050315857;-0.10809199512004852;1.0635960102081299;-0.37088000774383545;-0.230335995554924;1.2014559507369995;-3.434375047683716;-3.906874895095825;-1.1637499332427979
2123;0.0;0.0;0.0;-0.3669759929180145;-0.19910399615764618;1.2131680250167847;0.0;0.0;0.0
2125;0.0;0.0;0.0;-0.35916799306869507;-0.22643199563026428;1.180959939956665;0.0;0.0;0.0
2128;0.0;0.0;0.0;-0.3513599932193756;-0.187391996383667;1.1692479848861694;0.0;0.0;0.0
2130;-0.48092398047447205;-0.07466399669647217;1.0640839338302612;-0.3474559783935547;-0.187391996383667;1.1887680292129517;-6.724375247955322;-6.566875457763672;-2.0737500190734863
2132;0.0;0.0;0.0;-0.3093920052051544;-0.17958399653434753;1.2131680250167847;0.0;0.0;0.0
2134;0.0;0.0;0.0;-0.30158400535583496;-0.19910399615764618;1.1643680334091187;0.0;0.0;0.0
2136;0.0;0.0;0.0;-0.2820639908313751;-0.19910399615764618;1.148751974105835;0.0;0.0;0.0
2138;-0.41455599665641785;-0.06124399974942207;1.0318759679794312;-0.23131199181079865;-0.2030079960823059;1.1370400190353394;-9.944375038146973;-8.94687557220459;-0.7437499761581421
2141;0.0;0.0;0.0;-0.24692799150943756;-0.20691199600696564;1.132159948348999;0.0;0.0;0.0
2142;0.0;0.0;0.0;-0.21959999203681946;-0.19910399615764618;1.1282559633255005;0.0;0.0;0.0
2145;0.0;0.0;0.0;-0.18836799263954163;-0.22252799570560455;1.1165440082550049;0.0;0.0;0.0
2147;-0.33647599816322327;-0.06783200055360794;0.9994239807128906;-0.18836799263954163;-0.21862399578094482;1.1204479932785034;-11.834375381469727;-8.526875495910645;0.65625
2149;0.0;0.0;0.0;-0.16884799301624298;-0.2147199958562851;1.1126400232315063;0.0;0.0;0.0
2151;0.0;0.0;0.0;-0.16103999316692352;-0.20691199600696564;1.1038559675216675;0.0;0.0;0.0
2153;0.0;0.0;0.0;-0.13371199369430542;-0.2147199958562851;1.099951982498169;0.0;0.0;0.0
2155;-0.27547600865364075;-0.08369199931621552;0.9745360016822815;-0.12199999392032623;-0.230335995554924;1.0921440124511719;-11.974374771118164;-6.006875038146973;1.9862499237060547
2158;0.0;0.0;0.0;-0.11028799414634705;-0.230335995554924;1.099951982498169;0.0;0.0;0.0
2160;0.0;0.0;0.0;-0.1180959939956665;-0.21862399578094482;1.075551986694336;0.0;0.0;0.0
2162;0.0;0.0;0.0;-0.09955199807882309;-0.21081599593162537;1.099951982498169;0.0;0.0;0.0
2164;-0.22935999929904938;-0.09296400099992752;0.961359977722168;-0.08295999467372894;-0.2147199958562851;1.0794559717178345;-9.174375534057617;-2.226875066757202;3.3162500858306885
2166;0.0;0.0;0.0;-0.09467199444770813;-0.2147199958562851;1.0882400274276733;0.0;0.0;0.0
2168;0.0;0.0;0.0;-0.09564799815416336;-0.2147199958562851;1.0960479974746704;0.0;0.0;0.0
2170;0.0;0.0;0.0;-0.0907679945230484;-0.22252799570560455;1.0921440124511719;0.0;0.0;0.0
2172;-0.19910399615764618;-0.09662400186061859;0.957211971282959;-0.09564799815416336;-0.21081599593162537;1.0960479974746704;-5.254374980926514;1.9731249809265137;5.066249847412109
2175;0.0;0.0;0.0;-0.06831999868154526;-0.19910399615764618;1.0882400274276733;0.0;0.0;0.0
2177;0.0;0.0;0.0;-0.06831999868154526;-0.230335995554924;1.075551986694336;0.0;0.0;0.0
2179;0.0;0.0;0.0;-0.08393599838018417;-0.21081599593162537;1.0794559717178345;0.0;0.0;0.0
2181;-0.187391996383667;-0.08466799557209015;0.9562360048294067;-0.0605119988322258;-0.18348799645900726;1.0794559717178345;-1.9643750190734863;5.893124580383301;6.326250076293945
2183;0.0;0.0;0.0;-0.06441599875688553;-0.18348799645900726;1.0960479974746704;0.0;0.0;0.0
2185;0.0;0.0;0.0;-0.04879999905824661;-0.2030079960823059;1.0960479974746704;0.0;0.0;0.0
2187;0.0;0.0;0.0;-0.02147199958562851;-0.19129599630832672;1.1165440082550049;0.0;0.0;0.0
2189;-0.17031200230121613;-0.07222399860620499;0.9723399877548218;-0.0331839993596077;-0.2030079960823059;1.124351978302002;-0.004375003278255463;8.973124504089355;8.286249160766602
2192;0.0;0.0;0.0;-0.02537599951028824;-0.1600639969110489;1.1282559633255005;0.0;0.0;0.0
2194;0.0;0.0;0.0;-0.0331839993596077;-0.19129599630832672;1.124351978302002;0.0;0.0;0.0
2196;0.0;0.0;0.0;-0.04879999905824661;-0.22643199563026428;1.0960479974746704;0.0;0.0;0.0
2198;-0.15445199608802795;-0.06417199969291687;0.985759973526001;-0.0331839993596077;-0.21081599593162537;1.1282559633255005;0.9056249856948853;10.093124389648438;11.716249465942383
2200;0.0;0.0;0.0;-0.02537599951028824;-0.19129599630832672;1.1204479932785034;0.0;0.0;0.0
2202;0.0;0.0;0.0;-0.01756799966096878;-0.2030079960823059;1.0882400274276733;0.0;0.0;0.0
2204;0.0;0.0;0.0;-0.0331839993596077;-0.17958399653434753;1.1204479932785034;0.0;0.0;0.0
2206;-0.14005599915981293;-0.05709599703550339;0.9840520024299622;-0.01756799966096878;-0.187391996383667;1.1282559633255005;1.4656249284744263;9.3931245803833;14.026249885559082
2209;0.0;0.0;0.0;-0.009759999811649323;-0.18348799645900726;1.1165440082550049;0.0;0.0;0.0
2211;0.0;0.0;0.0;-0.013663999736309052;-0.18348799645900726;1.107759952545166;0.0;0.0;0.0
2213;0.0;0.0;0.0;-0.013663999736309052;-0.1600639969110489;1.1204479932785034;0.0;0.0;0.0
2215;-0.12614800035953522;-0.0424560010433197;0.9855159521102905;0.009759999811649323;-0.187391996383667;1.132159948348999;0.6956249475479126;8.413125038146973;13.536249160766602
2217;0.0;0.0;0.0;0.05270399898290634;-0.15225599706172943;1.107759952545166;0.0;0.0;0.0
2219;0.0;0.0;0.0;0.037087999284267426;-0.15615999698638916;1.107759952545166;0.0;0.0;0.0
2221;0.0;0.0;0.0;0.09564799815416336;-0.15615999698638916;1.0882400274276733;0.0;0.0;0.0
2223;-0.07124799489974976;-0.02635199949145317;0.9698999524116516;0.10735999792814255;-0.13663999736309052;1.0599359273910522;-3.154374837875366;6.733124732971191;12.486249923706055
2226;0.0;0.0;0.0;0.115167997777462;-0.14444799721240997;1.0921440124511719;0.0;0.0;0.0
2228;0.0;0.0;0.0;0.10345599800348282;-0.13663999736309052;1.0677440166473389;0.0;0.0;0.0
2230;0.0;0.0;0.0;0.1542080044746399;-0.12492799758911133;1.0355359315872192;0.0;0.0;0.0
2232;0.003659999929368496;-0.01512799970805645;0.941107988357544;0.16591998934745789;-0.1483519971370697;1.051151990890503;-7.704375267028809;5.053124904632568;12.41624927520752
2234;0.0;0.0;0.0;0.18055999279022217;-0.1600639969110489;1.0550559759140015;0.0;0.0;0.0
2236;0.0;0.0;0.0;0.17665599286556244;-0.1327359974384308;1.0433440208435059;0.0;0.0;0.0
2238;0.0;0.0;0.0;0.20398399233818054;-0.1210239976644516;1.0228480100631714;0.0;0.0;0.0
2240;0.06368400156497955;-0.01512799970805645;0.9123159646987915;0.19617599248886108;-0.14054399728775024;1.0394400358200073;-10.57437515258789;4.9131245613098145;12.556249618530273
2243;0.0;0.0;0.0;0.19617599248886108;-0.14054399728775024;1.0355359315872192;0.0;0.0;0.0
2245;0.0;0.0;0.0;0.2117919921875;-0.14054399728775024;1.0355359315872192;0.0;0.0;0.0
2247;0.0;0.0;0.0;0.22740799188613892;-0.1756799966096878;1.0306559801101685;0.0;0.0;0.0
2249;0.10272400081157684;-0.021959999576210976;0.908411979675293;0.27035200595855713;-0.16396799683570862;1.0472480058670044;-12.184374809265137;5.963124752044678;13.466249465942383
2251;0.0;0.0;0.0;0.24302399158477783;-0.17177599668502808;1.0472480058670044;0.0;0.0;0.0
2253;0.0;0.0;0.0;0.30158400535583496;-0.18348799645900726;1.0072319507598877;0.0;0.0;0.0
2255;0.0;0.0;0.0;0.2820639908313751;-0.19910399615764618;1.002351999282837;0.0;0.0;0.0
2257;0.16738399863243103;-0.04782399907708168;0.8949919939041138;0.32500800490379333;-0.16396799683570862;1.0394400358200073;-11.764374732971191;6.593124866485596;16.056249618530273
2260;0.0;0.0;0.0;0.35624000430107117;-0.2030079960823059;1.0150399208068848;0.0;0.0;0.0
2262;0.0;0.0;0.0;0.36795198917388916;-0.187391996383667;1.0228480100631714;0.0;0.0;0.0
2264;0.0;0.0;0.0;0.35233598947525024;-0.19519999623298645;1.0150399208068848;0.0;0.0;0.0
2266;0.2298479974269867;-0.05807200074195862;0.8776679635047913;0.35233598947525024;-0.230335995554924;0.9906399846076965;-7.914375305175781;8.973124504089355;19.136249542236328
2268;0.0;0.0;0.0;0.387472003698349;-0.2030079960823059;1.0072319507598877;0.0;0.0;0.0
2270;0.0;0.0;0.0;0.399183988571167;-0.19129599630832672;1.0150399208068848;0.0;0.0;0.0
2272;0.0;0.0;0.0;0.44896000623703003;-0.19129599630832672;1.0062559843063354;0.0;0.0;0.0
2274;0.28352800011634827;-0.06417199969291687;0.8796199560165405;0.4294399917125702;-0.2030079960823059;1.0355359315872192;-3.92437481880188;13.383125305175781;21.376249313354492
2277;0.0;0.0;0.0;0.4333440065383911;-0.1756799966096878;1.051151990890503;0.0;0.0;0.0
2279;0.0;0.0;0.0;0.4333440065383911;-0.16787199676036835;1.0638400316238403;0.0;0.0;0.0
2281;0.0;0.0;0.0;0.4411519765853882;-0.19129599630832672;1.0677440166473389;0.0;0.0;0.0
2283;0.31793197989463806;-0.052947998046875;0.9242720007896423;0.44896000623703003;-0.1600639969110489;1.0716480016708374;-2.5243749618530273;17.653125762939453;23.826250076293945
2285;0.0;0.0;0.0;0.46457600593566895;-0.17177599668502808;1.075551986694336;0.0;0.0;0.0
2287;0.0;0.0;0.0;0.48019200563430786;-0.187391996383667;1.0794559717178345;0.0;0.0;0.0
2289;0.0;0.0;0.0;0.49190399050712585;-0.17958399653434753;1.0677440166473389;0.0;0.0;0.0
2291;0.35697197914123535;-0.05441199988126755;0.9501360058784485;0.4958080053329468;-0.19519999623298645;1.0960479974746704;-4.414375305175781;18.283124923706055;24.666250228881836
2294;0.0;0.0;0.0;0.5231360197067261;-0.17958399653434753;1.1038559675216675;0.0;0.0;0.0
2296;0.0;0.0;0.0;0.5426560044288635;-0.22643199563026428;1.0794559717178345;0.0;0.0;0.0
2298;0.0;0.0;0.0;0.5504639744758606;-0.19910399615764618;1.0882400274276733;0.0;0.0;0.0
2300;0.41577598452568054;-0.0785679966211319;0.9494040012359619;0.569983959197998;-0.21862399578094482;1.0677440166473389;-4.974375247955322;19.403125762939453;21.58625030517578
2302;0.0;0.0;0.0;0.5660799741744995;-0.24985599517822266;1.099951982498169;0.0;0.0;0.0
2304;0.0;0.0;0.0;0.5660799741744995;-0.230335995554924;1.0843359231948853;0.0;0.0;0.0
2306;0.0;0.0;0.0;0.5738880038261414;-0.23423999547958374;1.124351978302002;0.0;0.0;0.0
2308;0.45164400339126587;-0.09906399995088577;0.9752680063247681;0.5973119735717773;-0.2147199958562851;1.124351978302002;-3.854374885559082;21.713125228881836;17.94624900817871
2311;0.0;0.0;0.0;0.5543680191040039;-0.2147199958562851;1.1370400190353394;0.0;0.0;0.0
2313;0.0;0.0;0.0;0.5231360197067261;-0.2030079960823059;1.1165440082550049;0.0;0.0;0.0
2315;0.0;0.0;0.0;0.5504639744758606;-0.19910399615764618;1.1692479848861694;0.0;0.0;0.0
2317;0.440420001745224;-0.08466799557209015;1.0047919750213623;0.5387519598007202;-0.2030079960823059;1.1448479890823364;-4.76437520980835;22.063125610351562;14.516249656677246
2319;0.0;0.0;0.0;0.5465599894523621;-0.19519999623298645;1.148751974105835;0.0;0.0;0.0
2321;0.0;0.0;0.0;0.5660799741744995;-0.21862399578094482;1.156559944152832;0.0;0.0;0.0
2323;0.0;0.0;0.0;0.5895040035247803;-0.187391996383667;1.1526559591293335;0.0;0.0;0.0
2325;0.4501799941062927;-0.07222399860620499;1.0169919729232788;0.5934079885482788;-0.187391996383667;1.1604639291763306;-6.164375305175781;19.963125228881836;7.166250228881836
2328;0.0;0.0;0.0;0.5934079885482788;-0.20691199600696564;1.1770559549331665;0.0;0.0;0.0
2330;0.0;0.0;0.0;0.6090239882469177;-0.17958399653434753;1.1770559549331665;0.0;0.0;0.0
2332;0.0;0.0;0.0;0.6285439729690552;-0.19519999623298645;1.165343999862671;0.0;0.0;0.0
2334;0.47628799080848694;-0.06368400156497955;1.0404160022735596;0.5973119735717773;-0.2147199958562851;1.173151969909668;-7.984375;18.353124618530273;3.3162500858306885
2336;0.0;0.0;0.0;0.4997119903564453;-0.18348799645900726;1.1887680292129517;0.0;0.0;0.0
2338;0.0;0.0;0.0;0.5816959738731384;-0.22252799570560455;1.1858400106430054;0.0;0.0;0.0
2340;0.0;0.0;0.0;0.5973119735717773;-0.18348799645900726;1.1770559549331665;0.0;0.0;0.0
2342;0.45749998092651367;-0.05636399984359741;1.0491999387741089;0.5934079885482788;-0.21081599593162537;1.180959939956665;-9.874375343322754;15.55312442779541;-0.9537500143051147
2345;0.0;0.0;0.0;0.5934079885482788;-0.187391996383667;1.1936479806900024;0.0;0.0;0.0
2347;0.0;0.0;0.0;0.5856000185012817;-0.17958399653434753;1.221951961517334;0.0;0.0;0.0
2349;0.0;0.0;0.0;0.636352002620697;-0.17177599668502808;1.1936479806900024;0.0;0.0;0.0
2351;0.48970797657966614;-0.053679998964071274;1.0618879795074463;0.6324479579925537;-0.1756799966096878;1.1936479806900024;-10.014374732971191;12.263124465942383;-2.84375
2353;0.0;0.0;0.0;0.6519680023193359;-0.17958399653434753;1.1848639249801636;0.0;0.0;0.0
2355;0.0;0.0;0.0;0.6246399879455566;-0.17958399653434753;1.173151969909668;0.0;0.0;0.0
2357;0.0;0.0;0.0;0.6627039909362793;-0.1600639969110489;1.1848639249801636;0.0;0.0;0.0
2359;0.5202080011367798;-0.04196799919009209;1.0509079694747925;0.636352002620697;-0.18348799645900726;1.1526559591293335;-10.224374771118164;10.583125114440918;-4.033750057220459
2362;0.0;0.0;0.0;0.6548959612846375;-0.16787199676036835;1.165343999862671;0.0;0.0;0.0
2364;0.0;0.0;0.0;0.6509919762611389;-0.15225599706172943;1.1887680292129517;0.0;0.0;0.0
2366;0.0;0.0;0.0;0.6705119609832764;-0.1483519971370697;1.180959939956665;0.0;0.0;0.0
2368;0.5402159690856934;-0.029767999425530434;1.0472480058670044;0.6783199906349182;-0.16396799683570862;1.1770559549331665;-9.38437557220459;9.953125;-5.783750057220459
2370;0.0;0.0;0.0;0.6939359903335571;-0.1756799966096878;1.1604639291763306;0.0;0.0;0.0
2372;0.0;0.0;0.0;0.7017439603805542;-0.16787199676036835;1.180959939956665;0.0;0.0;0.0
2374;0.0;0.0;0.0;0.6978399753570557;-0.19129599630832672;1.2014559507369995;0.0;0.0;0.0
2376;0.5697399973869324;-0.03391600027680397;1.0599359273910522;0.6861279606819153;-0.16787199676036835;1.1848639249801636;-7.634375095367432;10.093124389648438;-7.253749847412109
2379;0.0;0.0;0.0;0.6705119609832764;-0.17958399653434753;1.246351957321167;0.0;0.0;0.0
2381;0.0;0.0;0.0;0.6783199906349182;-0.18348799645900726;1.1848639249801636;0.0;0.0;0.0
2383;0.0;0.0;0.0;0.6939359903335571;-0.2030079960823059;1.180959939956665;0.0;0.0;0.0
