Timestamp(ms);LG-Accel x(g);LG-Accel y(g);LG-Accel z(g);HG-Accel x(g);HG-Accel y(g);HG-Accel z(g);Gyro x(dps);Gyro y(dps);Gyro z(dps)
53;0.0;0.0;0.0;0.03903999924659729;-0.12492799758911133;1.1350879669189453;0.0;0.0;0.0
56;0.0;0.0;0.0;0.04684799909591675;-0.1210239976644516;1.1516799926757812;0.0;0.0;0.0
58;0.0;0.0;0.0;0.007807999849319458;-0.11711999773979187;1.1477760076522827;0.0;0.0;0.0
60;0.0;0.0;0.0;0.03513599932193756;-0.1483519971370697;1.1477760076522827;0.0;0.0;0.0
62;0.0;0.0;0.0;0.05075199902057648;-0.15615999698638916;1.1633919477462769;0.0;0.0;0.0
64;0.0;0.0;0.0;0.07807999849319458;-0.1268799901008606;1.173151969909668;0.0;0.0;0.0
66;0.0;0.0;0.0;0.05075199902057648;-0.1424959897994995;1.2014559507369995;0.0;0.0;0.0
68;0.0;0.0;0.0;0.07027199864387512;-0.13859200477600098;1.180959939956665;0.0;0.0;0.0
70;-0.0680759996175766;-0.010003999806940556;1.0628639459609985;0.05075199902057648;-0.13468798995018005;1.197551965713501;0.0;0.0;0.0
73;0.0;0.0;0.0;0.08979199826717377;-0.13078400492668152;1.1770559549331665;0.0;0.0;0.0
75;0.0;0.0;0.0;0.07027199864387512;-0.1815359890460968;1.1848639249801636;0.0;0.0;0.0
77;0.0;0.0;0.0;0.07417599856853485;-0.19715198874473572;1.156559944152832;0.0;0.0;0.0
79;-0.051239997148513794;-0.02903600037097931;1.0557879209518433;0.0936959981918335;-0.18934398889541626;1.173151969909668;0.0;0.0;0.0
81;0.0;0.0;0.0;0.07807999849319458;-0.17372798919677734;1.140944004058838;0.0;0.0;0.0
83;0.0;0.0;0.0;0.07807999849319458;-0.14640000462532043;1.1526559591293335;0.0;0.0;0.0
85;0.0;0.0;0.0;0.0936959981918335;-0.1542080044746399;1.107759952545166;0.0;0.0;0.0
87;-0.03537999838590622;-0.03879600018262863;1.0196759700775146;0.1239520013332367;-0.2088640034198761;1.1126400232315063;0.0;0.0;0.0
90;0.0;0.0;0.0;0.11614400148391724;-0.25571200251579285;1.0716480016708374;0.0;0.0;0.0
92;0.0;0.0;0.0;0.25278398394584656;-0.2752319872379303;1.0716480016708374;0.0;0.0;0.0
94;0.0;0.0;0.0;-0.003903999924659729;-0.12297599762678146;1.1614400148391724;0.0;0.0;0.0
96;-0.033427998423576355;-0.08979199826717377;0.9884439706802368;-0.062463998794555664;-0.20495998859405518;1.0716480016708374;0.0;0.0;0.0
98;0.0;0.0;0.0;0.04684799909591675;-0.24399998784065247;1.1204479932785034;0.0;0.0;0.0
100;0.0;0.0;0.0;0.12004800140857697;-0.22448000311851501;1.099951982498169;0.0;0.0;0.0
102;0.0;0.0;0.0;0.16299200057983398;-0.1815359890460968;1.0960479974746704;0.0;0.0;0.0
104;-0.02903600037097931;-0.07222399860620499;0.9811239838600159;0.2332639992237091;-0.17763200402259827;1.099951982498169;0.0;0.0;0.0
107;0.0;0.0;0.0;0.20983999967575073;-0.2205759882926941;1.107759952545166;0.0;0.0;0.0
109;0.0;0.0;0.0;0.2332639992237091;-0.236191987991333;1.0960479974746704;0.0;0.0;0.0
111;0.0;0.0;0.0;0.19812799990177155;-0.24399998784065247;1.1126400232315063;0.0;0.0;0.0
113;0.08540000021457672;-0.08661999553442001;0.9884439706802368;0.17470400035381317;-0.17763200402259827;1.1126400232315063;4.598124980926514;-8.776249885559082;44.091251373291016
115;0.0;0.0;0.0;0.1542080044746399;-0.1844639927148819;1.140944004058838;0.0;0.0;0.0
117;0.0;0.0;0.0;0.1698240041732788;-0.1727519929409027;1.1165440082550049;0.0;0.0;0.0
119;0.0;0.0;0.0;0.19324800372123718;-0.1454239934682846;1.1282559633255005;0.0;0.0;0.0
121;0.054899998009204865;-0.025619998574256897;1.009671926498413;0.19715198874473572;-0.16103999316692352;1.148751974105835;5.578125;-12.346250534057617;51.37125015258789
124;0.0;0.0;0.0;0.24399998784065247;-0.18055999279022217;1.0921440124511719;0.0;0.0;0.0
126;0.0;0.0;0.0;0.24009600281715393;-0.19617599248886108;1.0960479974746704;0.0;0.0;0.0
128;0.0;0.0;0.0;0.2479040026664734;-0.23521599173545837;1.0716480016708374;0.0;0.0;0.0
130;0.11321599781513214;-0.06197600066661835;0.9720959663391113;0.2791360020637512;-0.2391199916601181;1.0472480058670044;0.8181250095367432;-14.236249923706055;55.501251220703125
132;0.0;0.0;0.0;0.2791360020637512;-0.24302399158477783;1.0189440250396729;0.0;0.0;0.0
134;0.0;0.0;0.0;0.3298879861831665;-0.26254400610923767;1.0062559843063354;0.0;0.0;0.0
136;0.0;0.0;0.0;0.30646398663520813;-0.2391199916601181;1.02675199508667;0.0;0.0;0.0
138;0.1815359890460968;-0.10174799710512161;0.9079239964485168;0.30646398663520813;-0.1571359932422638;1.051151990890503;-1.9118750095367432;-15.846250534057617;57.811248779296875
141;0.0;0.0;0.0;0.3533119857311249;-0.20788799226284027;1.0306559801101685;0.0;0.0;0.0
143;0.0;0.0;0.0;0.3835679888725281;-0.23131199181079865;1.0316319465637207;0.0;0.0;0.0
145;0.0;0.0;0.0;0.4108960032463074;-0.27035200595855713;1.0150399208068848;0.0;0.0;0.0
147;0.2596159875392914;-0.09711199998855591;0.9086560010910034;0.399183988571167;-0.27425599098205566;1.0062559843063354;-5.061874866485596;-14.796250343322754;53.26124954223633
149;0.0;0.0;0.0;0.4265120029449463;-0.26254400610923767;1.0150399208068848;0.0;0.0;0.0
151;0.0;0.0;0.0;0.4382239878177643;-0.2547360062599182;1.0228480100631714;0.0;0.0;0.0
153;0.0;0.0;0.0;0.4655520021915436;-0.24692799150943756;1.0306559801101685;0.0;0.0;0.0
155;0.32842400670051575;-0.12175599485635757;0.9120720028877258;0.5045920014381409;-0.25863999128341675;1.0394400358200073;-6.601874828338623;-16.686248779296875;50.46125030517578
158;0.0;0.0;0.0;0.5202080011367798;-0.2547360062599182;1.0355359315872192;0.0;0.0;0.0
160;0.0;0.0;0.0;0.5514400005340576;-0.2547360062599182;1.0638400316238403;0.0;0.0;0.0
162;0.0;0.0;0.0;0.563152015209198;-0.2000799924135208;1.075551986694336;0.0;0.0;0.0
164;0.4135800004005432;-0.10467600077390671;0.9350079894065857;0.5280159711837769;-0.2547360062599182;1.075551986694336;-7.721874713897705;-17.386249542236328;48.2912483215332
166;0.0;0.0;0.0;0.6021919846534729;-0.26254400610923767;1.0394400358200073;0.0;0.0;0.0
168;0.0;0.0;0.0;0.5973119735717773;-0.24302399158477783;1.0394400358200073;0.0;0.0;0.0
170;0.0;0.0;0.0;0.6207360029220581;-0.25863999128341675;1.02675199508667;0.0;0.0;0.0
172;0.4677479863166809;-0.12346399575471878;0.9186599850654602;0.6402559876441956;-0.2781600058078766;1.0355359315872192;-8.491875648498535;-16.686248779296875;41.501251220703125
175;0.0;0.0;0.0;0.6441599726676941;-0.2898719906806946;1.0189440250396729;0.0;0.0;0.0
177;0.0;0.0;0.0;0.6558719873428345;-0.30158400535583496;1.0306559801101685;0.0;0.0;0.0
179;0.0;0.0;0.0;0.6441599726676941;-0.2781600058078766;1.0394400358200073;0.0;0.0;0.0
181;0.510204017162323;-0.14225199818611145;0.9120720028877258;0.6324479579925537;-0.24692799150943756;1.0472480058670044;-6.111875057220459;-18.576250076293945;37.51124954223633
183;0.0;0.0;0.0;0.6226879954338074;-0.23228800296783447;1.0550559759140015;0.0;0.0;0.0
185;0.0;0.0;0.0;0.6724640130996704;-0.25571200251579285;1.0228480100631714;0.0;0.0;0.0
187;0.0;0.0;0.0;0.676367998123169;-0.2908479869365692;1.0550559759140015;0.0;0.0;0.0
190;0.5348479747772217;-0.12468399852514267;0.9359839558601379;0.6997919678688049;-0.2869440019130707;1.0677440166473389;-5.901875019073486;-20.60624885559082;32.471248626708984
192;0.0;0.0;0.0;0.7036960124969482;-0.29475200176239014;1.0638400316238403;0.0;0.0;0.0
194;0.0;0.0;0.0;0.684175968170166;-0.3025600016117096;1.0716480016708374;0.0;0.0;0.0
196;0.0;0.0;0.0;0.6802719831466675;-0.25571200251579285;1.0677440166473389;0.0;0.0;0.0
198;0.5790119767189026;-0.130295991897583;0.9428159594535828;0.7349280118942261;-0.2791360020637512;1.0677440166473389;-5.831874847412109;-22.35624885559082;29.951250076293945
200;0.0;0.0;0.0;0.7456640005111694;-0.28596800565719604;1.0394400358200073;0.0;0.0;0.0
202;0.0;0.0;0.0;0.8003199696540833;-0.27425599098205566;1.0355359315872192;0.0;0.0;0.0
204;0.0;0.0;0.0;0.7807999849319458;-0.3054879903793335;1.0589599609375;0.0;0.0;0.0
207;0.6507480144500732;-0.14859600365161896;0.9271999597549438;0.8276479840278625;-0.2781600058078766;1.051151990890503;-5.901875019073486;-22.986249923706055;26.591249465942383
209;0.0;0.0;0.0;0.8198399543762207;-0.27425599098205566;1.0394400358200073;0.0;0.0;0.0
211;0.0;0.0;0.0;0.8393599987030029;-0.3328160047531128;1.0228480100631714;0.0;0.0;0.0
213;0.0;0.0;0.0;0.8618080019950867;-0.32891198992729187;1.0189440250396729;0.0;0.0;0.0
215;0.717848002910614;-0.17421600222587585;0.9262239933013916;0.8549759984016418;-0.31329599022865295;1.0794559717178345;-5.201874732971191;-20.956249237060547;23.511249542236328
217;0.0;0.0;0.0;0.8666880130767822;-0.30646398663520813;1.0189440250396729;0.0;0.0;0.0
219;0.0;0.0;0.0;0.8598560094833374;-0.3533119857311249;1.0150399208068848;0.0;0.0;0.0
221;0.0;0.0;0.0;0.9057279825210571;-0.33769598603248596;1.051151990890503;0.0;0.0;0.0
224;0.7502999901771545;-0.2012999951839447;0.9252479672431946;0.936959981918335;-0.3455039858818054;1.051151990890503;-5.341875076293945;-15.986250877380371;18.471250534057617
226;0.0;0.0;0.0;0.9720959663391113;-0.32207998633384705;1.0433440208435059;0.0;0.0;0.0
228;0.0;0.0;0.0;0.9720959663391113;-0.3533119857311249;1.0599359273910522;0.0;0.0;0.0
230;0.0;0.0;0.0;0.9759999513626099;-0.3298879861831665;1.0677440166473389;0.0;0.0;0.0
232;0.8437519669532776;-0.20056799054145813;0.9418399930000305;0.9759999513626099;-0.3416000008583069;1.0677440166473389;-4.361875057220459;-8.49625015258789;10.771249771118164
234;0.0;0.0;0.0;0.9242720007896423;-0.33671998977661133;1.051151990890503;0.0;0.0;0.0
236;0.0;0.0;0.0;0.9594079852104187;-0.35233598947525024;1.0472480058670044;0.0;0.0;0.0
238;0.0;0.0;0.0;0.9398880004882812;-0.33671998977661133;1.0677440166473389;0.0;0.0;0.0
241;0.8283799886703491;-0.21618399024009705;0.9403759837150574;0.9555040001869202;-0.3718560039997101;1.0433440208435059;-3.5218749046325684;-2.476249933242798;8.671250343322754
243;0.0;0.0;0.0;0.9437919855117798;-0.35233598947525024;1.0589599609375;0.0;0.0;0.0
245;0.0;0.0;0.0;0.9594079852104187;-0.35624000430107117;1.0716480016708374;0.0;0.0;0.0
247;0.0;0.0;0.0;0.9515999555587769;-0.37966400384902954;1.0472480058670044;0.0;0.0;0.0
249;0.8374080061912537;-0.2298479974269867;0.936959981918335;1.0062559843063354;-0.39137598872184753;1.0550559759140015;0.18812501430511475;4.943749904632568;3.4912500381469727
251;0.0;0.0;0.0;0.9525759816169739;-0.3845439851284027;1.0472480058670044;0.0;0.0;0.0
253;0.0;0.0;0.0;0.9642879962921143;-0.3689279854297638;1.0716480016708374;0.0;0.0;0.0
255;0.0;0.0;0.0;0.9564799666404724;-0.36111998558044434;1.0355359315872192;0.0;0.0;0.0
258;0.8335039615631104;-0.24009600281715393;0.9335439801216125;0.9486719965934753;-0.3845439851284027;1.0589599609375;5.088125228881836;12.643750190734863;-0.4987500011920929
260;0.0;0.0;0.0;0.9174399971961975;-0.3806400001049042;1.0472480058670044;0.0;0.0;0.0
262;0.0;0.0;0.0;0.9291520118713379;-0.33769598603248596;1.0433440208435059;0.0;0.0;0.0
264;0.0;0.0;0.0;0.8979200124740601;-0.3728320002555847;1.0355359315872192;0.0;0.0;0.0
266;0.7903159856796265;-0.2357039898633957;0.9291520118713379;0.8979200124740601;-0.3533119857311249;1.0355359315872192;9.918124198913574;18.52375030517578;-5.74875020980835
268;0.0;0.0;0.0;0.8852319717407227;-0.35624000430107117;1.0638400316238403;0.0;0.0;0.0
270;0.0;0.0;0.0;0.8696159720420837;-0.35233598947525024;1.0638400316238403;0.0;0.0;0.0
272;0.0;0.0;0.0;0.8198399543762207;-0.3640480041503906;1.0638400316238403;0.0;0.0;0.0
275;0.7432239651679993;-0.22203999757766724;0.9357399940490723;0.8276479840278625;-0.3484320044517517;1.0550559759140015;12.648124694824219;22.16375160217285;-13.168749809265137
277;0.0;0.0;0.0;0.8276479840278625;-0.3445279896259308;1.0638400316238403;0.0;0.0;0.0
279;0.0;0.0;0.0;0.7886079549789429;-0.32500800490379333;1.051151990890503;0.0;0.0;0.0
281;0.0;0.0;0.0;0.7612800002098083;-0.30158400535583496;1.083359956741333;0.0;0.0;0.0
283;0.669048011302948;-0.19324800372123718;0.9535520076751709;0.7690879702568054;-0.33671998977661133;1.0677440166473389;11.248125076293945;23.98375129699707;-21.358749389648438
285;0.0;0.0;0.0;0.7583519816398621;-0.36111998558044434;1.0433440208435059;0.0;0.0;0.0
287;0.0;0.0;0.0;0.6997919678688049;-0.3181760013103485;1.0599359273910522;0.0;0.0;0.0
289;0.0;0.0;0.0;0.684175968170166;-0.26742398738861084;1.083359956741333;0.0;0.0;0.0
292;0.6019479632377625;-0.18422000110149384;0.9467200040817261;0.7036960124969482;-0.30646398663520813;1.0716480016708374;8.58812427520752;22.513750076293945;-25.698749542236328
294;0.0;0.0;0.0;0.684175968170166;-0.27132800221443176;1.0921440124511719;0.0;0.0;0.0
296;0.0;0.0;0.0;0.7036960124969482;-0.29865598678588867;1.083359956741333;0.0;0.0;0.0
298;0.0;0.0;0.0;0.6880800127983093;-0.31036800146102905;1.0921440124511719;0.0;0.0;0.0
300;0.5655919909477234;-0.15689200162887573;0.961359977722168;0.6919839978218079;-0.30646398663520813;1.075551986694336;6.908124923706055;18.73375129699707;-28.778749465942383
302;0.0;0.0;0.0;0.6675840020179749;-0.2820639908313751;1.075551986694336;0.0;0.0;0.0
304;0.0;0.0;0.0;0.6792960166931152;-0.3093920052051544;1.0794559717178345;0.0;0.0;0.0
306;0.0;0.0;0.0;0.6792960166931152;-0.2781600058078766;1.0960479974746704;0.0;0.0;0.0
309;0.5563200116157532;-0.1449359953403473;0.9630680084228516;0.6910079717636108;-0.2820639908313751;1.083359956741333;4.738125324249268;13.413749694824219;-30.598751068115234
311;0.0;0.0;0.0;0.6910079717636108;-0.29767999053001404;1.1038559675216675;0.0;0.0;0.0
313;0.0;0.0;0.0;0.7378559708595276;-0.27035200595855713;1.099951982498169;0.0;0.0;0.0
315;0.0;0.0;0.0;0.7066239714622498;-0.2547360062599182;1.0882400274276733;0.0;0.0;0.0
317;0.5856000185012817;-0.1332239955663681;0.9750239849090576;0.6792960166931152;-0.27425599098205566;1.0716480016708374;3.1281251907348633;10.263750076293945;-35.63875198364258
320;0.0;0.0;0.0;0.7300480008125305;-0.2508319914340973;1.0599359273910522;0.0;0.0;0.0
321;0.0;0.0;0.0;0.6832000017166138;-0.3054879903793335;1.051151990890503;0.0;0.0;0.0
323;0.0;0.0;0.0;0.7066239714622498;-0.2508319914340973;1.0716480016708374;0.0;0.0;0.0
326;0.5921880006790161;-0.14640000462532043;0.954039990901947;0.6949119567871094;-0.2937760055065155;1.0716480016708374;1.9381250143051147;8.373749732971191;-42.28874969482422
328;0.0;0.0;0.0;0.7144320011138916;-0.2820639908313751;1.0472480058670044;0.0;0.0;0.0
330;0.0;0.0;0.0;0.6636799573898315;-0.25863999128341675;1.1038559675216675;0.0;0.0;0.0
332;0.0;0.0;0.0;0.6558719873428345;-0.22740799188613892;1.1038559675216675;0.0;0.0;0.0
334;0.5409479737281799;-0.12077999860048294;0.9642879962921143;0.6324479579925537;-0.23131199181079865;1.083359956741333;3.408125162124634;7.323750019073486;-49.848751068115234
336;0.0;0.0;0.0;0.6568480134010315;-0.2635200023651123;1.075551986694336;0.0;0.0;0.0
338;0.0;0.0;0.0;0.6256160140037537;-0.2518079876899719;1.107759952545166;0.0;0.0;0.0
340;0.0;0.0;0.0;0.610975980758667;-0.25571200251579285;1.107759952545166;0.0;0.0;0.0
343;0.5004439949989319;-0.11199599504470825;0.97843998670578;0.5797439813613892;-0.2518079876899719;1.107759952545166;4.458125114440918;6.97374963760376;-56.848751068115234
345;0.0;0.0;0.0;0.5797439813613892;-0.24009600281715393;1.124351978302002;0.0;0.0;0.0
347;0.0;0.0;0.0;0.587552011013031;-0.18934398889541626;1.099951982498169;0.0;0.0;0.0
349;0.0;0.0;0.0;0.5641279816627502;-0.20105600357055664;1.0960479974746704;0.0;0.0;0.0
351;0.4513999819755554;-0.07661599665880203;0.9879559874534607;0.5904799699783325;-0.2205759882926941;1.0882400274276733;3.198125123977661;6.413749694824219;-56.63875198364258
353;0.0;0.0;0.0;0.5045920014381409;-0.2117919921875;1.0960479974746704;0.0;0.0;0.0
355;0.0;0.0;0.0;0.4967840015888214;-0.23521599173545837;1.0882400274276733;0.0;0.0;0.0
357;0.0;0.0;0.0;0.4811680018901825;-0.20788799226284027;1.1126400232315063;0.0;0.0;0.0
360;0.3735640048980713;-0.08466799557209015;0.981611967086792;0.4811680018901825;-0.23131199181079865;1.1038559675216675;2.8481252193450928;7.953749656677246;-53.13875198364258
362;0.0;0.0;0.0;0.47336000204086304;-0.21569599211215973;1.075551986694336;0.0;0.0;0.0
364;0.0;0.0;0.0;0.46164798736572266;-0.25863999128341675;1.0716480016708374;0.0;0.0;0.0
366;0.0;0.0;0.0;0.4421280026435852;-0.23131199181079865;1.0638400316238403;0.0;0.0;0.0
368;0.3276920020580292;-0.0954039990901947;0.9589200019836426;0.39137598872184753;-0.23521599173545837;1.0794559717178345;2.568125009536743;11.523750305175781;-56.848751068115234
370;0.0;0.0;0.0;0.399183988571167;-0.2117919921875;1.075551986694336;0.0;0.0;0.0
372;0.0;0.0;0.0;0.399183988571167;-0.23521599173545837;1.083359956741333;0.0;0.0;0.0
375;0.0;0.0;0.0;0.3689279854297638;-0.20398399233818054;1.099951982498169;0.0;0.0;0.0
377;0.268887996673584;-0.06856399774551392;0.9720959663391113;0.387472003698349;-0.18055999279022217;1.0882400274276733;3.968125104904175;10.893750190734863;-56.98875045776367
379;0.0;0.0;0.0;0.3835679888725281;-0.16884799301624298;1.107759952545166;0.0;0.0;0.0
381;0.0;0.0;0.0;0.40699198842048645;-0.1844639927148819;1.1038559675216675;0.0;0.0;0.0
383;0.0;0.0;0.0;0.40699198842048645;-0.20398399233818054;1.075551986694336;0.0;0.0;0.0
385;0.27254799008369446;-0.04782399907708168;0.9679479598999023;0.39528000354766846;-0.1727519929409027;1.0677440166473389;3.0581250190734863;10.053750038146973;-57.408748626708984
387;0.0;0.0;0.0;0.4030880033969879;-0.19227199256420135;1.02675199508667;0.0;0.0;0.0
389;0.0;0.0;0.0;0.41870400309562683;-0.18055999279022217;1.0111359357833862;0.0;0.0;0.0
391;0.0;0.0;0.0;0.39137598872184753;-0.14932799339294434;1.0394400358200073;0.0;0.0;0.0
394;0.2752319872379303;-0.04440800100564957;0.9157319664955139;0.36111998558044434;-0.20788799226284027;1.0150399208068848;1.9381250143051147;10.823749542236328;-60.278751373291016
396;0.0;0.0;0.0;0.30646398663520813;-0.1727519929409027;1.0638400316238403;0.0;0.0;0.0
398;0.0;0.0;0.0;0.3025600016117096;-0.1844639927148819;1.051151990890503;0.0;0.0;0.0
400;0.0;0.0;0.0;0.2869440019130707;-0.2235039919614792;1.0228480100631714;0.0;0.0;0.0
402;0.17665599286556244;-0.03440399840474129;0.925491988658905;0.2635200023651123;-0.10247999429702759;1.075551986694336;0.5381249785423279;12.153749465942383;-65.7387466430664
404;0.0;0.0;0.0;0.31036800146102905;-0.2117919921875;0.9984479546546936;0.0;0.0;0.0
406;0.0;0.0;0.0;0.21276798844337463;-0.15323199331760406;1.0316319465637207;0.0;0.0;0.0
409;0.0;0.0;0.0;0.19715198874473572;-0.09467199444770813;1.0638400316238403;0.0;0.0;0.0
411;0.10174799710512161;-0.01781199872493744;0.9232959747314453;0.16591998934745789;-0.1454239934682846;1.0599359273910522;-5.831874847412109;11.59375;-68.8187484741211
413;0.0;0.0;0.0;0.15811198949813843;-0.16103999316692352;1.051151990890503;0.0;0.0;0.0
415;0.0;0.0;0.0;0.1542080044746399;-0.1454239934682846;1.051151990890503;0.0;0.0;0.0
417;0.0;0.0;0.0;0.10443200170993805;-0.10638399422168732;1.1038559675216675;0.0;0.0;0.0
419;0.004879999905824661;-0.0014639999717473984;0.9425719976425171;0.06539200246334076;-0.1180959939956665;1.0589599609375;-11.081875801086426;8.09375;-67.0687484741211
421;0.0;0.0;0.0;0.10443200170993805;-0.1571359932422638;1.0677440166473389;0.0;0.0;0.0
423;0.0;0.0;0.0;0.018543999642133713;-0.16103999316692352;1.0794559717178345;0.0;0.0;0.0
426;0.0;0.0;0.0;0.03806399926543236;-0.12590399384498596;1.051151990890503;0.0;0.0;0.0
428;-0.0663679987192154;-0.010003999806940556;0.9518439769744873;0.014639999717473984;-0.1454239934682846;1.0960479974746704;-13.111875534057617;3.8237500190734863;-63.28874969482422
430;0.0;0.0;0.0;-0.0009759999811649323;-0.14151999354362488;1.0882400274276733;0.0;0.0;0.0
432;0.0;0.0;0.0;-0.020495999604463577;-0.16494399309158325;1.099951982498169;0.0;0.0;0.0
434;0.0;0.0;0.0;-0.04782399907708168;-0.1727519929409027;1.1038559675216675;0.0;0.0;0.0
436;-0.15445199608802795;-0.02757199853658676;0.9720959663391113;-0.07124799489974976;-0.16494399309158325;1.124351978302002;-13.671875;0.32374998927116394;-59.01874923706055
438;0.0;0.0;0.0;-0.07124799489974976;-0.16494399309158325;1.124351978302002;0.0;0.0;0.0
440;0.0;0.0;0.0;-0.0907679945230484;-0.1727519929409027;1.1370400190353394;0.0;0.0;0.0
443;0.0;0.0;0.0;-0.10247999429702759;-0.16884799301624298;1.1204479932785034;0.0;0.0;0.0
445;-0.21276798844337463;-0.03952799737453461;1.0016199350357056;-0.12199999392032623;-0.1454239934682846;1.1448479890823364;-14.861875534057617;-0.4462500214576721;-55.098751068115234
447;0.0;0.0;0.0;-0.11028799414634705;-0.16494399309158325;1.148751974105835;0.0;0.0;0.0
449;0.0;0.0;0.0;-0.12590399384498596;-0.19617599248886108;1.124351978302002;0.0;0.0;0.0
451;0.0;0.0;0.0;-0.14054399728775024;-0.1727519929409027;1.1448479890823364;0.0;0.0;0.0
453;-0.25156399607658386;-0.04440800100564957;1.018455982208252;-0.13371199369430542;-0.2000799924135208;1.1360639333724976;-15.141875267028809;2.213750123977661;-50.338748931884766
455;0.0;0.0;0.0;-0.1327359974384308;-0.19617599248886108;1.1448479890823364;0.0;0.0;0.0
457;0.0;0.0;0.0;-0.17177599668502808;-0.17665599286556244;1.140944004058838;0.0;0.0;0.0
460;0.0;0.0;0.0;-0.17958399653434753;-0.1727519929409027;1.132159948348999;0.0;0.0;0.0
462;-0.28377199172973633;-0.044895999133586884;1.0218719244003296;-0.187391996383667;-0.19617599248886108;1.132159948348999;-13.881875038146973;3.963750123977661;-46.13875198364258
464;0.0;0.0;0.0;-0.20691199600696564;-0.18836799263954163;1.132159948348999;0.0;0.0;0.0
466;0.0;0.0;0.0;-0.2420479953289032;-0.1844639927148819;1.1360639333724976;0.0;0.0;0.0
468;0.0;0.0;0.0;-0.24595199525356293;-0.1571359932422638;1.1116639375686646;0.0;0.0;0.0
470;-0.3513599932193756;-0.03245199844241142;1.0118680000305176;-0.2654719948768616;-0.17665599286556244;1.1448479890823364;-12.621875762939453;4.873749732971191;-45.998748779296875
472;0.0;0.0;0.0;-0.28889599442481995;-0.14932799339294434;1.1526559591293335;0.0;0.0;0.0
474;0.0;0.0;0.0;-0.3123199939727783;-0.14151999354362488;1.148751974105835;0.0;0.0;0.0
477;0.0;0.0;0.0;-0.34355199337005615;-0.13761599361896515;1.180959939956665;0.0;0.0;0.0
479;-0.4470079839229584;-0.011223999783396721;1.032364010810852;-0.3669759929180145;-0.15323199331760406;1.1604639291763306;-12.76187515258789;4.243749618530273;-45.998748779296875
481;0.0;0.0;0.0;-0.374783992767334;-0.13761599361896515;1.1526559591293335;0.0;0.0;0.0
483;0.0;0.0;0.0;-0.38259199261665344;-0.13371199369430542;1.1526559591293335;0.0;0.0;0.0
485;0.0;0.0;0.0;-0.44017598032951355;-0.1454239934682846;1.156559944152832;0.0;0.0;0.0
487;-0.5363119840621948;-0.0058559998869895935;1.0389519929885864;-0.4753119945526123;-0.1454239934682846;1.1526559591293335;-13.601875305175781;2.773750066757202;-41.938751220703125
489;0.0;0.0;0.0;-0.4870239794254303;-0.1454239934682846;1.1536319255828857;0.0;0.0;0.0
491;0.0;0.0;0.0;-0.5104479789733887;-0.14151999354362488;1.1575360298156738;0.0;0.0;0.0
494;0.0;0.0;0.0;-0.5182560086250305;-0.13371199369430542;1.1614400148391724;0.0;0.0;0.0
496;-0.6258599758148193;0.0029279999434947968;1.038707971572876;-0.5299679636955261;-0.15323199331760406;1.1858400106430054;-12.551875114440918;1.7937500476837158;-33.60874938964844
498;0.0;0.0;0.0;-0.545583963394165;-0.14151999354362488;1.1780319213867188;0.0;0.0;0.0
500;0.0;0.0;0.0;-0.545583963394165;-0.1298079937696457;1.1536319255828857;0.0;0.0;0.0
502;0.0;0.0;0.0;-0.5182560086250305;-0.1454239934682846;1.1497279405593872;0.0;0.0;0.0
504;-0.6656320095062256;-0.00634399987757206;1.0362679958343506;-0.522159993648529;-0.16494399309158325;1.1497279405593872;-10.241875648498535;3.473750114440918;-25.068750381469727
506;0.0;0.0;0.0;-0.5494880080223083;-0.15323199331760406;1.1575360298156738;0.0;0.0;0.0
508;0.0;0.0;0.0;-0.5651040077209473;-0.14932799339294434;1.1331360340118408;0.0;0.0;0.0
511;0.0;0.0;0.0;-0.5924319624900818;-0.16884799301624298;1.1614400148391724;0.0;0.0;0.0
513;-0.7066239714622498;-0.02537599951028824;1.024067997932434;-0.6197599768638611;-0.16884799301624298;1.1458239555358887;-6.951874732971191;7.81374979019165;-15.478750228881836
515;0.0;0.0;0.0;-0.6461119651794434;-0.1571359932422638;1.1292319297790527;0.0;0.0;0.0
517;0.0;0.0;0.0;-0.6422079801559448;-0.16884799301624298;1.1497279405593872;0.0;0.0;0.0
519;0.0;0.0;0.0;-0.6734399795532227;-0.1571359932422638;1.1331360340118408;0.0;0.0;0.0
521;-0.774944007396698;-0.01756799966096878;1.0211399793624878;-0.6968640089035034;-0.13761599361896515;1.1214239597320557;-3.5218749046325684;11.243749618530273;-6.168749809265137
523;0.0;0.0;0.0;-0.6773439645767212;-0.1571359932422638;1.1370400190353394;0.0;0.0;0.0
525;0.0;0.0;0.0;-0.6929599642753601;-0.13761599361896515;1.1458239555358887;0.0;0.0;0.0
528;0.0;0.0;0.0;-0.6968640089035034;-0.1180959939956665;1.1575360298156738;0.0;0.0;0.0
530;-0.8220359683036804;0.0017079999670386314;1.0177240371704102;-0.700767993927002;-0.1180959939956665;1.1292319297790527;-0.37187498807907104;10.823749542236328;4.541250228881836
532;0.0;0.0;0.0;-0.6890559792518616;-0.1180959939956665;1.1614400148391724;0.0;0.0;0.0
534;0.0;0.0;0.0;-0.7046719789505005;-0.13371199369430542;1.1575360298156738;0.0;0.0;0.0
536;0.0;0.0;0.0;-0.7280960083007812;-0.13371199369430542;1.1331360340118408;0.0;0.0;0.0
538;-0.8518039584159851;0.004391999915242195;1.014307975769043;-0.7280960083007812;-0.12590399384498596;1.1331360340118408;1.728124976158142;6.273749828338623;14.69124984741211
540;0.0;0.0;0.0;-0.7319999933242798;-0.11028799414634705;1.1292319297790527;0.0;0.0;0.0
542;0.0;0.0;0.0;-0.7046719789505005;-0.09857599437236786;1.1458239555358887;0.0;0.0;0.0
545;0.0;0.0;0.0;-0.6812480092048645;-0.1180959939956665;1.1292319297790527;0.0;0.0;0.0
547;-0.8391159772872925;0.014639999717473984;1.0133320093154907;-0.6890559792518616;-0.12199999392032623;1.1253279447555542;1.9381250143051147;-1.9862499237060547;23.791250228881836
549;0.0;0.0;0.0;-0.6656320095062256;-0.1298079937696457;1.1331360340118408;0.0;0.0;0.0
551;0.0;0.0;0.0;-0.6422079801559448;-0.12590399384498596;1.1419199705123901;0.0;0.0;0.0
553;0.0;0.0;0.0;-0.6197599768638611;-0.13761599361896515;1.1292319297790527;0.0;0.0;0.0
555;-0.7700639963150024;0.00878399983048439;1.0111359357833862;-0.5924319624900818;-0.12590399384498596;1.1214239597320557;0.11812499910593033;-11.15625;32.12125015258789
557;0.0;0.0;0.0;-0.5651040077209473;-0.1180959939956665;1.1204479932785034;0.0;0.0;0.0
559;0.0;0.0;0.0;-0.5533919930458069;-0.1298079937696457;1.107759952545166;0.0;0.0;0.0
562;0.0;0.0;0.0;-0.5143519639968872;-0.13761599361896515;1.107759952545166;0.0;0.0;0.0
564;-0.6624599695205688;-0.00634399987757206;0.998691976070404;-0.5143519639968872;-0.1571359932422638;1.1360639333724976;-1.8418750762939453;-15.706250190734863;40.03125
566;0.0;0.0;0.0;-0.4440799951553345;-0.1727519929409027;1.0921440124511719;0.0;0.0;0.0
568;0.0;0.0;0.0;-0.42846399545669556;-0.1727519929409027;1.0960479974746704;0.0;0.0;0.0
570;0.0;0.0;0.0;-0.3699039816856384;-0.4811680018901825;0.986735999584198;0.0;0.0;0.0
572;-0.5280159711837769;-0.10955599695444107;0.9459879994392395;-0.26156800985336304;-0.16494399309158325;1.1116639375686646;-0.9318750500679016;-16.616249084472656;47.80125045776367
575;0.0;0.0;0.0;-0.3630719780921936;-0.09857599437236786;1.099951982498169;0.0;0.0;0.0
576;0.0;0.0;0.0;-0.3240320086479187;-0.2820639908313751;1.0472480058670044;0.0;0.0;0.0
579;0.0;0.0;0.0;-0.10247999429702759;-0.41870400309562683;0.937936007976532;0.0;0.0;0.0
581;-0.39430397748947144;-0.08637599647045135;0.9555040001869202;-0.21862399578094482;-0.05563199892640114;1.1692479848861694;8.378124237060547;-12.836250305175781;52.001251220703125
583;0.0;0.0;0.0;-0.2147199958562851;-0.05953599885106087;1.1887680292129517;0.0;0.0;0.0
585;0.0;0.0;0.0;-0.15615999698638916;-0.16494399309158325;1.148751974105835;0.0;0.0;0.0
587;0.0;0.0;0.0;-0.13371199369430542;-0.2235039919614792;1.083359956741333;0.0;0.0;0.0
589;-0.2791360020637512;-0.01268799975514412;1.0174800157546997;-0.020495999604463577;-0.25863999128341675;1.0882400274276733;13.83812427520752;-6.466250419616699;51.931251525878906
591;0.0;0.0;0.0;0.0029279999434947968;-0.2000799924135208;1.1009279489517212;0.0;0.0;0.0
593;0.0;0.0;0.0;0.010735999792814255;-0.26254400610923767;1.0648159980773926;0.0;0.0;0.0
596;0.0;0.0;0.0;0.03806399926543236;-0.2664479911327362;1.044319987297058;0.0;0.0;0.0
598;-0.11858399957418442;-0.10467600077390671;0.9535520076751709;0.010735999792814255;-0.20398399233818054;1.0804319381713867;13.7681245803833;-4.43625020980835;53.19124984741211
600;0.0;0.0;0.0;0.014639999717473984;-0.19227199256420135;1.1087360382080078;0.0;0.0;0.0
602;0.0;0.0;0.0;0.02635199949145317;-0.1844639927148819;1.1214239597320557;0.0;0.0;0.0
604;0.0;0.0;0.0;0.04196799919009209;-0.14151999354362488;1.0931199789047241;0.0;0.0;0.0
606;-0.08540000021457672;-0.039772000163793564;0.9889319539070129;0.07320000231266022;-0.13761599361896515;1.1253279447555542;15.58812427520752;-2.336250066757202;55.151248931884766
609;0.0;0.0;0.0;0.07320000231266022;-0.17665599286556244;1.0970239639282227;0.0;0.0;0.0
611;0.0;0.0;0.0;0.0849120020866394;-0.19227199256420135;1.0970239639282227;0.0;0.0;0.0
613;0.0;0.0;0.0;0.09272000193595886;-0.1727519929409027;1.0804319381713867;0.0;0.0;0.0
615;-0.04367600008845329;-0.03171999752521515;0.9752680063247681;0.08881600201129913;-0.18055999279022217;1.0765279531478882;12.08812427520752;-0.16625000536441803;54.5212516784668
617;0.0;0.0;0.0;0.08100800216197968;-0.18836799263954163;1.0687199831008911;0.0;0.0;0.0
619;0.0;0.0;0.0;0.06539200246334076;-0.1844639927148819;1.0726239681243896;0.0;0.0;0.0
621;0.0;0.0;0.0;0.08881600201129913;-0.20398399233818054;1.0843359231948853;0.0;0.0;0.0
623;-0.03855200111865997;-0.0500199981033802;0.9494040012359619;0.07320000231266022;-0.18055999279022217;1.0765279531478882;8.23812484741211;-3.036249876022339;57.11125183105469
626;0.0;0.0;0.0;0.11907199770212173;-0.2000799924135208;1.0560319423675537;0.0;0.0;0.0
628;0.0;0.0;0.0;0.08881600201129913;-0.2235039919614792;1.0560319423675537;0.0;0.0;0.0
630;0.0;0.0;0.0;0.11126399785280228;-0.23131199181079865;1.0521279573440552;0.0;0.0;0.0
632;-0.017324000597000122;-0.07368800044059753;0.9381799697875977;0.11224000155925751;-0.23131199181079865;1.0560319423675537;5.298125267028809;-4.43625020980835;59.42124938964844
634;0.0;0.0;0.0;0.11907199770212173;-0.20788799226284027;1.0648159980773926;0.0;0.0;0.0
636;0.0;0.0;0.0;0.11907199770212173;-0.1844639927148819;1.1048319339752197;0.0;0.0;0.0
638;0.0;0.0;0.0;0.10443200170993805;-0.17665599286556244;1.1087360382080078;0.0;0.0;0.0
640;-0.007075999863445759;-0.05050799995660782;0.9611159563064575;0.1542080044746399;-0.1727519929409027;1.1087360382080078;2.9181251525878906;-5.206250190734863;64.1812515258789
642;0.0;0.0;0.0;0.1815359890460968;-0.16884799301624298;1.0843359231948853;0.0;0.0;0.0
645;0.0;0.0;0.0;0.24399998784065247;-0.20788799226284027;1.044319987297058;0.0;0.0;0.0
647;0.0;0.0;0.0;0.2908479869365692;-0.18836799263954163;1.044319987297058;0.0;0.0;0.0
649;0.1076039969921112;-0.049531999975442886;0.9452559947967529;0.30646398663520813;-0.19617599248886108;1.0482239723205566;-4.291874885559082;-9.40625;63.061248779296875
651;0.0;0.0;0.0;0.3142719864845276;-0.11419199407100677;1.0931199789047241;0.0;0.0;0.0
653;0.0;0.0;0.0;0.3533119857311249;-0.13761599361896515;1.0726239681243896;0.0;0.0;0.0
655;0.0;0.0;0.0;0.39137598872184753;-0.17665599286556244;1.0482239723205566;0.0;0.0;0.0
657;0.22935999929904938;-0.023423999547958374;0.9413520097732544;0.399183988571167;-0.1844639927148819;1.0316319465637207;-12.691875457763672;-18.01624870300293;62.221248626708984
660;0.0;0.0;0.0;0.3835679888725281;-0.17665599286556244;1.044319987297058;0.0;0.0;0.0
662;0.0;0.0;0.0;0.48897600173950195;-0.2664479911327362;1.0404160022735596;0.0;0.0;0.0
664;0.0;0.0;0.0;0.48507198691368103;-0.2937760055065155;1.0160160064697266;0.0;0.0;0.0
666;0.32793599367141724;-0.11321599781513214;0.9101200103759766;0.5006880164146423;-0.3328160047531128;1.0316319465637207;-21.7918758392334;-26.76624870300293;58.51124954223633
668;0.0;0.0;0.0;0.5553439855575562;-0.39137598872184753;0.9877119660377502;0.0;0.0;0.0
670;0.0;0.0;0.0;0.5514400005340576;-0.40699198842048645;1.044319987297058;0.0;0.0;0.0
672;0.0;0.0;0.0;0.6060959696769714;-0.3640480041503906;1.0404160022735596;0.0;0.0;0.0
674;0.44896000623703003;-0.23838800191879272;0.905239999294281;0.6402559876441956;-0.36795198917388916;1.0560319423675537;-19.901874542236328;-30.826250076293945;56.69124984741211
677;0.0;0.0;0.0;0.7105280160903931;-0.4694559872150421;1.0892159938812256;0.0;0.0;0.0
679;0.0;0.0;0.0;0.6871039867401123;-0.4421280026435852;1.0970239639282227;0.0;0.0;0.0
681;0.0;0.0;0.0;0.6295199990272522;-0.4265120029449463;1.1087360382080078;0.0;0.0;0.0
683;0.5814520120620728;-0.28840798139572144;0.9720959663391113;0.912559986114502;-0.41870400309562683;1.0843359231948853;-2.051874876022339;-22.076250076293945;55.571250915527344
685;0.0;0.0;0.0;0.8813279867172241;0.07710400223731995;1.392751932144165;0.0;0.0;0.0
687;0.0;0.0;0.0;0.8627839684486389;-0.21959999203681946;1.1819360256195068;0.0;0.0;0.0
689;0.0;0.0;0.0;0.6285439729690552;-0.16103999316692352;1.3000320196151733;0.0;0.0;0.0
691;0.6536759734153748;0.0026839999482035637;1.170956015586853;0.5475360155105591;-0.05953599885106087;1.352735996246338;12.368124961853027;-2.1962499618530273;63.061248779296875
694;0.0;0.0;0.0;0.563152015209198;-0.3328160047531128;1.1741279363632202;0.0;0.0;0.0
696;0.0;0.0;0.0;0.4772639870643616;-0.3757599890232086;1.1536319255828857;0.0;0.0;0.0
698;0.0;0.0;0.0;0.4967840015888214;-0.33671998977661133;1.1575360298156738;0.0;0.0;0.0
700;0.3938159942626953;-0.18397599458694458;1.0499320030212402;0.659775972366333;-0.37966400384902954;1.0921440124511719;1.728124976158142;2.0737500190734863;69.4312515258789
702;0.0;0.0;0.0;0.8627839684486389;-0.2547360062599182;1.1819360256195068;0.0;0.0;0.0
704;0.0;0.0;0.0;0.6490399837493896;-0.387472003698349;0.9994239807128906;0.0;0.0;0.0
706;0.0;0.0;0.0;0.6988160014152527;-0.4538399875164032;1.0189440250396729;0.0;0.0;0.0
708;0.6536759734153748;-0.2542479932308197;0.9403759837150574;1.0531039237976074;-0.41870400309562683;1.0599359273910522;6.208125114440918;6.833749771118164;55.08124923706055
711;0.0;0.0;0.0;0.896943986415863;-0.2781600058078766;1.1282559633255005;0.0;0.0;0.0
713;0.0;0.0;0.0;0.986735999584198;-0.23521599173545837;1.156559944152832;0.0;0.0;0.0
715;0.0;0.0;0.0;0.9515999555587769;-0.2937760055065155;1.1692479848861694;0.0;0.0;0.0
717;0.8264279961585999;-0.15615999698638916;1.020408034324646;0.8891359567642212;-0.33671998977661133;1.140944004058838;10.828125;18.73375129699707;47.45125198364258
719;0.0;0.0;0.0;0.8813279867172241;-0.3757599890232086;1.1370400190353394;0.0;0.0;0.0
721;0.0;0.0;0.0;0.8627839684486389;-0.2820639908313751;1.205359935760498;0.0;0.0;0.0
723;0.0;0.0;0.0;0.8315519690513611;-0.26254400610923767;1.1936479806900024;0.0;0.0;0.0
725;0.7110159993171692;-0.1681160032749176;1.0616439580917358;0.6871039867401123;-0.2664479911327362;1.1770559549331665;2.4981250762939453;20.34375;50.53125
727;0.0;0.0;0.0;0.8042240142822266;-0.387472003698349;1.0765279531478882;0.0;0.0;0.0
730;0.0;0.0;0.0;0.8432639837265015;-0.3718560039997101;1.1087360382080078;0.0;0.0;0.0
732;0.0;0.0;0.0;0.9437919855117798;-0.2820639908313751;1.1419199705123901;0.0;0.0;0.0
734;0.7402960062026978;-0.18812400102615356;1.006500005722046;1.0374879837036133;-0.28596800565719604;1.1087360382080078;-4.081874847412109;11.173749923706055;32.681251525878906
736;0.0;0.0;0.0;1.0452959537506104;-0.2937760055065155;1.0599359273910522;0.0;0.0;0.0
738;0.0;0.0;0.0;1.0921440124511719;-0.24692799150943756;1.1380159854888916;0.0;0.0;0.0
740;0.0;0.0;0.0;1.0804319381713867;-0.21959999203681946;1.1858400106430054;0.0;0.0;0.0
742;0.9442799687385559;-0.12541599571704865;1.0077199935913086;1.0648159980773926;-0.2898719906806946;1.1419199705123901;-1.771875023841858;0.04374999925494194;14.061249732971191
745;0.0;0.0;0.0;1.0452959537506104;-0.3328160047531128;1.1214239597320557;0.0;0.0;0.0
747;0.0;0.0;0.0;1.0491999387741089;-0.3445279896259308;1.1175199747085571;0.0;0.0;0.0
749;0.0;0.0;0.0;1.0452959537506104;-0.32891198992729187;1.1331360340118408;0.0;0.0;0.0
751;0.9220759868621826;-0.19324800372123718;1.0045479536056519;1.0140639543533325;-0.35233598947525024;1.0970239639282227;-2.2618749141693115;-18.22624969482422;9.0912504196167
753;0.0;0.0;0.0;1.0491999387741089;-0.33671998977661133;1.1009279489517212;0.0;0.0;0.0
755;0.0;0.0;0.0;1.0648159980773926;-0.29767999053001404;1.0970239639282227;0.0;0.0;0.0
757;0.0;0.0;0.0;1.0843359231948853;-0.3211039900779724;1.1009279489517212;0.0;0.0;0.0
759;0.9345200061798096;-0.16445599496364594;0.9828319549560547;1.0843359231948853;-0.30158400535583496;1.0892159938812256;-1.0018750429153442;-31.736249923706055;4.821249961853027
762;0.0;0.0;0.0;1.0960479974746704;-0.3093920052051544;1.0638400316238403;0.0;0.0;0.0
764;0.0;0.0;0.0;1.099951982498169;-0.3328160047531128;1.0677440166473389;0.0;0.0;0.0
766;0.0;0.0;0.0;1.1116639375686646;-0.3718560039997101;1.0550559759140015;0.0;0.0;0.0
768;0.974291980266571;-0.20471599698066711;0.9484279751777649;1.099951982498169;-0.35624000430107117;1.0638400316238403;-0.3018749952316284;-35.65625;-0.07874999940395355
770;0.0;0.0;0.0;1.0882400274276733;-0.32500800490379333;1.0472480058670044;0.0;0.0;0.0
772;0.0;0.0;0.0;1.0804319381713867;-0.2781600058078766;1.0638400316238403;0.0;0.0;0.0
774;0.0;0.0;0.0;1.0843359231948853;-0.3211039900779724;1.0794559717178345;0.0;0.0;0.0
776;0.9584319591522217;-0.18665999174118042;0.9423279762268066;1.0570080280303955;-0.3172000050544739;1.0677440166473389;2.078125;-33.276248931884766;-6.798749923706055
779;0.0;0.0;0.0;1.0491999387741089;-0.3328160047531128;1.0687199831008911;0.0;0.0;0.0
781;0.0;0.0;0.0;1.0570080280303955;-0.33671998977661133;1.0599359273910522;0.0;0.0;0.0
783;0.0;0.0;0.0;1.017967939376831;-0.3835679888725281;1.0277279615402222;0.0;0.0;0.0
785;0.9164639711380005;-0.21569599211215973;0.9469639658927917;1.0140639543533325;-0.4147999882698059;1.0404160022735596;1.168125033378601;-27.67624855041504;-14.918749809265137
787;0.0;0.0;0.0;0.9984479546546936;-0.3718560039997101;1.0560319423675537;0.0;0.0;0.0
789;0.0;0.0;0.0;0.9828319549560547;-0.37966400384902954;1.0599359273910522;0.0;0.0;0.0
791;0.0;0.0;0.0;0.9515999555587769;-0.39137598872184753;1.0316319465637207;0.0;0.0;0.0
793;0.8518039584159851;-0.2454639971256256;0.921343982219696;0.9555040001869202;-0.3757599890232086;1.019919991493225;2.2881250381469727;-22.216249465942383;-19.53874969482422
796;0.0;0.0;0.0;0.9515999555587769;-0.3601439893245697;1.0482239723205566;0.0;0.0;0.0
798;0.0;0.0;0.0;0.9281759858131409;-0.39137598872184753;1.0238239765167236;0.0;0.0;0.0
800;0.0;0.0;0.0;0.8852319717407227;-0.39528000354766846;1.0033279657363892;0.0;0.0;0.0
802;0.7927559614181519;-0.2437559962272644;0.907435953617096;0.8735199570655823;-0.39137598872184753;1.0160160064697266;4.668125152587891;-11.016250610351562;-23.17875099182129
804;0.0;0.0;0.0;0.8696159720420837;-0.399183988571167;0.9877119660377502;0.0;0.0;0.0
806;0.0;0.0;0.0;0.8276479840278625;-0.40699198842048645;1.0033279657363892;0.0;0.0;0.0
808;0.0;0.0;0.0;0.8081279993057251;-0.3757599890232086;0.9916160106658936;0.0;0.0;0.0
810;0.7078439593315125;-0.25986000895500183;0.8862079977989197;0.7807999849319458;-0.3835679888725281;1.0072319507598877;6.978125095367432;2.6337499618530273;-24.92875099182129
813;0.0;0.0;0.0;0.7807999849319458;-0.36795198917388916;1.044319987297058;0.0;0.0;0.0
815;0.0;0.0;0.0;0.7534719705581665;-0.3757599890232086;1.0072319507598877;0.0;0.0;0.0
817;0.0;0.0;0.0;0.7612800002098083;-0.35624000430107117;1.0238239765167236;0.0;0.0;0.0
819;0.6409879922866821;-0.23375199735164642;0.8957239985466003;0.757375955581665;-0.3172000050544739;1.0316319465637207;8.308124542236328;14.393750190734863;-25.55875015258789
821;0.0;0.0;0.0;0.7222399711608887;-0.35233598947525024;1.0160160064697266;0.0;0.0;0.0
823;0.0;0.0;0.0;0.7300480008125305;-0.3640480041503906;1.0238239765167236;0.0;0.0;0.0
825;0.0;0.0;0.0;0.7300480008125305;-0.3445279896259308;1.019919991493225;0.0;0.0;0.0
827;0.6139039993286133;-0.21569599211215973;0.8996279835700989;0.7300480008125305;-0.34062400460243225;1.0238239765167236;7.468125343322754;21.533750534057617;-26.328750610351562
830;0.0;0.0;0.0;0.7378559708595276;-0.32891198992729187;0.9994239807128906;0.0;0.0;0.0
832;0.0;0.0;0.0;0.7612800002098083;-0.3445279896259308;0.9994239807128906;0.0;0.0;0.0
834;0.0;0.0;0.0;0.757375955581665;-0.35624000430107117;0.9838079810142517;0.0;0.0;0.0
836;0.6314719915390015;-0.20739999413490295;0.8908439874649048;0.7729920148849487;-0.3445279896259308;0.9750239849090576;5.788125038146973;24.753751754760742;-27.518749237060547
838;0.0;0.0;0.0;0.8198399543762207;-0.35624000430107117;1.0033279657363892;0.0;0.0;0.0
840;0.0;0.0;0.0;0.8042240142822266;-0.32500800490379333;1.012112021446228;0.0;0.0;0.0
842;0.0;0.0;0.0;0.7612800002098083;-0.34062400460243225;1.012112021446228;0.0;0.0;0.0
844;0.6661199927330017;-0.21447598934173584;0.8805959820747375;0.7964159846305847;-0.3835679888725281;0.9916160106658936;6.69812536239624;26.853750228881836;-30.87874984741211
847;0.0;0.0;0.0;0.7729920148849487;-0.3445279896259308;0.9955199956893921;0.0;0.0;0.0
849;0.0;0.0;0.0;0.7768959999084473;-0.3640480041503906;1.012112021446228;0.0;0.0;0.0
851;0.0;0.0;0.0;0.7964159846305847;-0.35233598947525024;0.9994239807128906;0.0;0.0;0.0
853;0.6695359945297241;-0.21496400237083435;0.8722999691963196;0.8081279993057251;-0.3445279896259308;0.9955199956893921;7.258125305175781;26.503751754760742;-40.46875
855;0.0;0.0;0.0;0.7729920148849487;-0.3718560039997101;0.9994239807128906;0.0;0.0;0.0
857;0.0;0.0;0.0;0.757375955581665;-0.32500800490379333;0.9916160106658936;0.0;0.0;0.0
859;0.0;0.0;0.0;0.7027199864387512;-0.32500800490379333;1.012112021446228;0.0;0.0;0.0
861;0.6097559928894043;-0.18983200192451477;0.8859639763832092;0.6636799573898315;-0.3054879903793335;1.019919991493225;6.628125190734863;21.743751525878906;-49.778751373291016
864;0.0;0.0;0.0;0.7173599600791931;-0.2391199916601181;1.0521279573440552;0.0;0.0;0.0
866;0.0;0.0;0.0;0.7017439603805542;-0.27425599098205566;1.0521279573440552;0.0;0.0;0.0
868;0.0;0.0;0.0;0.6353759765625;-0.3172000050544739;1.019919991493225;0.0;0.0;0.0
870;0.5482679605484009;-0.14688800275325775;0.9259799718856812;0.6129279732704163;-0.2781600058078766;1.0560319423675537;1.8681249618530273;14.18375015258789;-59.29875183105469
872;0.0;0.0;0.0;0.5348479747772217;-0.2547360062599182;1.1048319339752197;0.0;0.0;0.0
874;0.0;0.0;0.0;0.5348479747772217;-0.21569599211215973;1.1136159896850586;0.0;0.0;0.0
876;0.0;0.0;0.0;0.5543680191040039;-0.2391199916601181;1.0804319381713867;0.0;0.0;0.0
878;0.4240719974040985;-0.11126399785280228;0.9662399888038635;0.5231360197067261;-0.24302399158477783;1.0804319381713867;-3.101874828338623;5.153749942779541;-62.23875045776367
881;0.0;0.0;0.0;0.5241119861602783;-0.2781600058078766;1.0648159980773926;0.0;0.0;0.0
883;0.0;0.0;0.0;0.4811680018901825;-0.27425599098205566;1.0726239681243896;0.0;0.0;0.0
885;0.0;0.0;0.0;0.4967840015888214;-0.2547360062599182;1.0804319381713867;0.0;0.0;0.0
887;0.38185998797416687;-0.1290760040283203;0.9481839537620544;0.48507198691368103;-0.26254400610923767;1.0560319423675537;-7.301875114440918;1.2337501049041748;-67.27874755859375
889;0.0;0.0;0.0;0.5045920014381409;-0.2391199916601181;1.0687199831008911;0.0;0.0;0.0
891;0.0;0.0;0.0;0.48897600173950195;-0.26254400610923767;1.060912013053894;0.0;0.0;0.0
893;0.0;0.0;0.0;0.5123999714851379;-0.28596800565719604;1.0687199831008911;0.0;0.0;0.0
895;0.3718560039997101;-0.1227319985628128;0.9440360069274902;0.48897600173950195;-0.23131199181079865;1.085312008857727;-6.741875171661377;-1.2862499952316284;-67.27874755859375
898;0.0;0.0;0.0;0.5036159753799438;-0.22740799188613892;1.044319987297058;0.0;0.0;0.0
900;0.0;0.0;0.0;0.5114240050315857;-0.20788799226284027;1.044319987297058;0.0;0.0;0.0
902;0.0;0.0;0.0;0.48019200563430786;-0.3093920052051544;1.060912013053894;0.0;0.0;0.0
904;0.3794199824333191;-0.13371199369430542;0.925491988658905;0.5036159753799438;-0.3757599890232086;0.9828319549560547;-5.971874713897705;1.1637500524520874;-68.53874969482422
906;0.0;0.0;0.0;0.38259199261665344;0.053679998964071274;1.1858400106430054;0.0;0.0;0.0
908;0.0;0.0;0.0;0.47628799080848694;-0.23131199181079865;1.0404160022735596;0.0;0.0;0.0
910;0.0;0.0;0.0;0.4958080053329468;-0.3054879903793335;0.9877119660377502;0.0;0.0;0.0
912;0.31671199202537537;-0.048555999994277954;0.945743978023529;0.3601439893245697;-0.22740799188613892;1.0892159938812256;-7.091875076293945;6.273749828338623;-72.3187484741211
915;0.0;0.0;0.0;0.387472003698349;-0.2391199916601181;1.1136159896850586;0.0;0.0;0.0
917;0.0;0.0;0.0;0.35233598947525024;-0.2000799924135208;1.1380159854888916;0.0;0.0;0.0
919;0.0;0.0;0.0;0.35624000430107117;-0.1844639927148819;1.1253279447555542;0.0;0.0;0.0
921;0.2374119907617569;-0.07075999677181244;0.990884006023407;0.3572160005569458;-0.16494399309158325;1.1087360382080078;-8.421875;9.493749618530273;-72.38874816894531
923;0.0;0.0;0.0;0.3455039858818054;-0.17665599286556244;1.1009279489517212;0.0;0.0;0.0
925;0.0;0.0;0.0;0.3337920010089874;-0.2117919921875;1.1048319339752197;0.0;0.0;0.0
927;0.0;0.0;0.0;0.28303998708724976;-0.1454239934682846;1.1175199747085571;0.0;0.0;0.0
929;0.19154000282287598;-0.04050400108098984;1.0006439685821533;0.29475200176239014;-0.17665599286556244;1.1175199747085571;-13.811875343322754;12.853750228881836;-72.45874786376953
932;0.0;0.0;0.0;0.23228800296783447;-0.1571359932422638;1.0892159938812256;0.0;0.0;0.0
934;0.0;0.0;0.0;0.23228800296783447;-0.14932799339294434;1.1419199705123901;0.0;0.0;0.0
936;0.0;0.0;0.0;0.19715198874473572;-0.19227199256420135;1.1087360382080078;0.0;0.0;0.0
938;0.10174799710512161;-0.04416399821639061;0.9874680042266846;0.1698240041732788;-0.22740799188613892;1.1331360340118408;-16.191875457763672;11.733749389648438;-68.25875091552734
940;0.0;0.0;0.0;0.16201600432395935;-0.2117919921875;1.1175199747085571;0.0;0.0;0.0
942;0.0;0.0;0.0;0.12297599762678146;-0.2000799924135208;1.1458239555358887;0.0;0.0;0.0
944;0.0;0.0;0.0;0.11907199770212173;-0.21959999203681946;1.1009279489517212;0.0;0.0;0.0
946;0.007807999849319458;-0.05392399802803993;1.0111359357833862;0.11907199770212173;-0.16103999316692352;1.1292319297790527;-14.2318754196167;7.043749809265137;-65.87875366210938
949;0.0;0.0;0.0;0.1268799901008606;-0.18836799263954163;1.0843359231948853;0.0;0.0;0.0
951;0.0;0.0;0.0;0.10443200170993805;-0.17665599286556244;1.1419199705123901;0.0;0.0;0.0
953;0.0;0.0;0.0;0.10443200170993805;-0.16103999316692352;1.1419199705123901;0.0;0.0;0.0
955;-0.015859998762607574;-0.03415999934077263;1.0094280242919922;0.09272000193595886;-0.1727519929409027;1.1536319255828857;-14.651875495910645;2.143749952316284;-66.50875091552734
957;0.0;0.0;0.0;0.09662400186061859;-0.1454239934682846;1.1497279405593872;0.0;0.0;0.0
959;0.0;0.0;0.0;0.07710400223731995;-0.17665599286556244;1.1614400148391724;0.0;0.0;0.0
961;0.0;0.0;0.0;0.057583998888731;-0.2117919921875;1.1985279321670532;0.0;0.0;0.0
963;-0.05538799986243248;-0.03928399831056595;1.0543240308761597;0.022447999566793442;-0.1727519929409027;1.214143991470337;-14.581875801086426;-3.036249876022339;-64.75875091552734
966;0.0;0.0;0.0;0.03806399926543236;-0.16494399309158325;1.1946239471435547;0.0;0.0;0.0
968;0.0;0.0;0.0;0.010735999792814255;-0.17665599286556244;1.189743995666504;0.0;0.0;0.0
970;0.0;0.0;0.0;0.02635199949145317;-0.16103999316692352;1.1858400106430054;0.0;0.0;0.0
972;-0.1088239997625351;-0.02781599946320057;1.0836039781570435;-0.004879999905824661;-0.1298079937696457;1.214143991470337;-17.941875457763672;-7.376250267028809;-65.59874725341797
974;0.0;0.0;0.0;0.010735999792814255;-0.19617599248886108;1.189743995666504;0.0;0.0;0.0
976;0.0;0.0;0.0;-0.032207999378442764;-0.18055999279022217;1.1858400106430054;0.0;0.0;0.0
978;0.0;0.0;0.0;-0.032207999378442764;-0.1571359932422638;1.1780319213867188;0.0;0.0;0.0
980;-0.14420399069786072;-0.028060000389814377;1.069208025932312;-0.028303999453783035;-0.16884799301624298;1.1985279321670532;-23.191875457763672;-9.756250381469727;-66.78874969482422
983;0.0;0.0;0.0;-0.06734399497509003;-0.17665599286556244;1.1614400148391724;0.0;0.0;0.0
985;0.0;0.0;0.0;-0.05563199892640114;-0.18055999279022217;1.1614400148391724;0.0;0.0;0.0
987;0.0;0.0;0.0;-0.05563199892640114;-0.18055999279022217;1.165343999862671;0.0;0.0;0.0
989;-0.1890999972820282;-0.03952799737453461;1.042367935180664;-0.10638399422168732;-0.18836799263954163;1.1458239555358887;-25.99187469482422;-11.016250610351562;-66.01875305175781
991;0.0;0.0;0.0;-0.11028799414634705;-0.1844639927148819;1.1253279447555542;0.0;0.0;0.0
993;0.0;0.0;0.0;-0.16787199676036835;-0.20788799226284027;1.1214239597320557;0.0;0.0;0.0
995;0.0;0.0;0.0;-0.21081599593162537;-0.1727519929409027;1.1009279489517212;0.0;0.0;0.0
997;-0.29523998498916626;-0.05319199711084366;1.0011320114135742;-0.22252799570560455;-0.19227199256420135;1.1087360382080078;-24.171875;-11.99625015258789;-63.28874969482422
1000;0.0;0.0;0.0;-0.2664479911327362;-0.19227199256420135;1.1253279447555542;0.0;0.0;0.0
1002;0.0;0.0;0.0;-0.24692799150943756;-0.1844639927148819;1.1087360382080078;0.0;0.0;0.0
1004;0.0;0.0;0.0;-0.27035200595855713;-0.20398399233818054;1.1136159896850586;0.0;0.0;0.0
1006;-0.38308000564575195;-0.057339999824762344;0.9928359985351562;-0.25863999128341675;-0.19227199256420135;1.1253279447555542;-19.97187614440918;-15.006250381469727;-58.598751068115234
1008;0.0;0.0;0.0;-0.27425599098205566;-0.19617599248886108;1.1009279489517212;0.0;0.0;0.0
1010;0.0;0.0;0.0;-0.27035200595855713;-0.17665599286556244;1.1175199747085571;0.0;0.0;0.0
1012;0.0;0.0;0.0;-0.2937760055065155;-0.1571359932422638;1.1214239597320557;0.0;0.0;0.0
1014;-0.40748000144958496;-0.05172799900174141;1.0016199350357056;-0.2937760055065155;-0.1844639927148819;1.1419199705123901;-16.33187484741211;-15.14625072479248;-51.94874954223633
1017;0.0;0.0;0.0;-0.2781600058078766;-0.1727519929409027;1.1331360340118408;0.0;0.0;0.0
1019;0.0;0.0;0.0;-0.28596800565719604;-0.16884799301624298;1.1292319297790527;0.0;0.0;0.0
1021;0.0;0.0;0.0;-0.2664479911327362;-0.16494399309158325;1.1780319213867188;0.0;0.0;0.0
1023;-0.4126040041446686;-0.04270000010728836;1.0196759700775146;-0.2781600058078766;-0.19617599248886108;1.1419199705123901;-14.51187515258789;-9.9662504196167;-43.89875030517578
1025;0.0;0.0;0.0;-0.30158400535583496;-0.21569599211215973;1.1458239555358887;0.0;0.0;0.0
1027;0.0;0.0;0.0;-0.2937760055065155;-0.19227199256420135;1.1419199705123901;0.0;0.0;0.0
1029;0.0;0.0;0.0;-0.29767999053001404;-0.2000799924135208;1.1458239555358887;0.0;0.0;0.0
1031;-0.4306599795818329;-0.05148399993777275;1.0177240371704102;-0.3211039900779724;-0.19617599248886108;1.1292319297790527;-13.32187557220459;-0.16625000536441803;-35.778751373291016
1034;0.0;0.0;0.0;-0.30158400535583496;-0.21569599211215973;1.1175199747085571;0.0;0.0;0.0
1036;0.0;0.0;0.0;-0.29767999053001404;-0.16494399309158325;1.1331360340118408;0.0;0.0;0.0
1038;0.0;0.0;0.0;-0.3484320044517517;-0.1727519929409027;1.1214239597320557;0.0;0.0;0.0
1040;-0.4501799941062927;-0.052947998046875;1.0050359964370728;-0.3445279896259308;-0.2117919921875;1.1136159896850586;-10.381875038146973;11.0337495803833;-28.42875099182129
1042;0.0;0.0;0.0;-0.35624000430107117;-0.19227199256420135;1.1419199705123901;0.0;0.0;0.0
1044;0.0;0.0;0.0;-0.36795198917388916;-0.1571359932422638;1.1175199747085571;0.0;0.0;0.0
1046;0.0;0.0;0.0;-0.4138239920139313;-0.19617599248886108;1.1009279489517212;0.0;0.0;0.0
1049;-0.5072759985923767;-0.05172799900174141;0.9933239817619324;-0.4138239920139313;-0.20788799226284027;1.1175199747085571;-6.601874828338623;18.873750686645508;-21.21875
1051;0.0;0.0;0.0;-0.4294399917125702;-0.1844639927148819;1.1048319339752197;0.0;0.0;0.0
1053;0.0;0.0;0.0;-0.4684799909591675;-0.1844639927148819;1.1214239597320557;0.0;0.0;0.0
1055;0.0;0.0;0.0;-0.49190399050712585;-0.1844639927148819;1.1419199705123901;0.0;0.0;0.0
1057;-0.5953599810600281;-0.049775999039411545;0.9977160096168518;-0.4958080053329468;-0.17665599286556244;1.1253279447555542;-4.431874752044678;21.18375015258789;-14.918749809265137
1059;0.0;0.0;0.0;-0.5192319750785828;-0.1844639927148819;1.1380159854888916;0.0;0.0;0.0
1061;0.0;0.0;0.0;-0.5309439897537231;-0.1571359932422638;1.1575360298156738;0.0;0.0;0.0
1063;0.0;0.0;0.0;-0.5387519598007202;-0.16884799301624298;1.1292319297790527;0.0;0.0;0.0
1066;-0.6631919741630554;-0.030499998480081558;1.0238239765167236;-0.569983959197998;-0.16494399309158325;1.1663199663162231;-6.321875095367432;18.66375160217285;-9.318750381469727
1068;0.0;0.0;0.0;-0.5572959780693054;-0.1844639927148819;1.1614400148391724;0.0;0.0;0.0
1070;0.0;0.0;0.0;-0.5768159627914429;-0.16103999316692352;1.1614400148391724;0.0;0.0;0.0
1072;0.0;0.0;0.0;-0.5963360071182251;-0.1727519929409027;1.1780319213867188;0.0;0.0;0.0
1074;-0.7056480050086975;-0.03001200035214424;1.0343159437179565;-0.5924319624900818;-0.17665599286556244;1.1458239555358887;-10.031875610351562;13.763750076293945;-3.5787501335144043
1076;0.0;0.0;0.0;-0.5885279774665833;-0.1844639927148819;1.1624159812927246;0.0;0.0;0.0
1078;0.0;0.0;0.0;-0.5963360071182251;-0.17665599286556244;1.1663199663162231;0.0;0.0;0.0
1080;0.0;0.0;0.0;-0.6197599768638611;-0.1844639927148819;1.1575360298156738;0.0;0.0;0.0
1083;-0.7249239683151245;-0.05172799900174141;1.035048007965088;-0.6002399921417236;-0.20398399233818054;1.1702239513397217;-11.57187557220459;6.833749771118164;2.651250123977661
1085;0.0;0.0;0.0;-0.5856000185012817;-0.17665599286556244;1.1536319255828857;0.0;0.0;0.0
1087;0.0;0.0;0.0;-0.6051200032234192;-0.20398399233818054;1.1702239513397217;0.0;0.0;0.0
1089;0.0;0.0;0.0;-0.6051200032234192;-0.18836799263954163;1.1702239513397217;0.0;0.0;0.0
1091;-0.7227280139923096;-0.05514399707317352;1.046515941619873;-0.6168320178985596;-0.18836799263954163;1.1819360256195068;-11.151875495910645;0.04374999925494194;10.211250305175781
1093;0.0;0.0;0.0;-0.5973119735717773;-0.17665599286556244;1.1858400106430054;0.0;0.0;0.0
1095;0.0;0.0;0.0;-0.6285439729690552;-0.19617599248886108;1.1946239471435547;0.0;0.0;0.0
1097;0.0;0.0;0.0;-0.5934079885482788;-0.2235039919614792;1.1858400106430054;0.0;0.0;0.0
1100;-0.7317559719085693;-0.058559998869895935;1.0643279552459717;-0.5660799741744995;-0.20398399233818054;1.1946239471435547;-11.291875839233398;-5.766250133514404;18.96125030517578
1102;0.0;0.0;0.0;-0.5582720041275024;-0.2000799924135208;1.2024319171905518;0.0;0.0;0.0
1104;0.0;0.0;0.0;-0.5309439897537231;-0.19617599248886108;1.1780319213867188;0.0;0.0;0.0
1106;0.0;0.0;0.0;-0.5153279900550842;-0.19227199256420135;1.2063360214233398;0.0;0.0;0.0
1108;-0.6646559834480286;-0.0710039958357811;1.0765279531478882;-0.47628799080848694;-0.20788799226284027;1.2024319171905518;-10.591875076293945;-10.736249923706055;26.801250457763672
1110;0.0;0.0;0.0;-0.44896000623703003;-0.19617599248886108;1.2190239429473877;0.0;0.0;0.0
1112;0.0;0.0;0.0;-0.4450559914112091;-0.2000799924135208;1.214143991470337;0.0;0.0;0.0
1114;0.0;0.0;0.0;-0.4333440065383911;-0.19227199256420135;1.2102400064468384;0.0;0.0;0.0
1117;-0.582427978515625;-0.06783200055360794;1.1031240224838257;-0.4294399917125702;-0.2117919921875;1.23854398727417;-8.91187572479248;-12.206250190734863;35.55125045776367
1119;0.0;0.0;0.0;-0.4060159921646118;-0.21569599211215973;1.2346400022506714;0.0;0.0;0.0
1121;0.0;0.0;0.0;-0.37966400384902954;-0.22740799188613892;1.2307360172271729;0.0;0.0;0.0
1123;0.0;0.0;0.0;-0.36795198917388916;-0.23521599173545837;1.2268320322036743;0.0;0.0;0.0
1125;-0.5258200168609619;-0.09149999916553497;1.1092239618301392;-0.34062400460243225;-0.21959999203681946;1.2190239429473877;-6.531875133514404;-11.99625015258789;42.971248626708984
1127;0.0;0.0;0.0;-0.35233598947525024;-0.22740799188613892;1.2102400064468384;0.0;0.0;0.0
1129;0.0;0.0;0.0;-0.3211039900779724;-0.23131199181079865;1.214143991470337;0.0;0.0;0.0
1131;0.0;0.0;0.0;-0.27425599098205566;-0.2391199916601181;1.2307360172271729;0.0;0.0;0.0
1134;-0.43846797943115234;-0.11272799968719482;1.1062959432601929;-0.2508319914340973;-0.24692799150943756;1.23854398727417;-1.4918750524520874;-10.526249885559082;49.76124954223633
1136;0.0;0.0;0.0;-0.2117919921875;-0.24302399158477783;1.2102400064468384;0.0;0.0;0.0
1138;0.0;0.0;0.0;-0.1727519929409027;-0.2664479911327362;1.2229279279708862;0.0;0.0;0.0
1140;0.0;0.0;0.0;-0.16884799301624298;-0.2898719906806946;1.2229279279708862;0.0;0.0;0.0
1142;-0.3306199908256531;-0.1298079937696457;1.097999930381775;-0.15323199331760406;-0.27425599098205566;1.1985279321670532;4.948124885559082;-5.90625;55.92124938964844
1144;0.0;0.0;0.0;-0.15323199331760406;-0.2820639908313751;1.1946239471435547;0.0;0.0;0.0
1146;0.0;0.0;0.0;-0.13078400492668152;-0.2664479911327362;1.2024319171905518;0.0;0.0;0.0
1148;0.0;0.0;0.0;-0.0605119988322258;-0.2781600058078766;1.1907199621200562;0.0;0.0;0.0
1151;-0.24351198971271515;-0.1395680010318756;1.0728679895401;-0.10735999792814255;-0.2781600058078766;1.1741279363632202;12.158124923706055;2.143749952316284;59.42124938964844
1153;0.0;0.0;0.0;-0.05660799890756607;-0.25863999128341675;1.1858400106430054;0.0;0.0;0.0
1155;0.0;0.0;0.0;-0.044895999133586884;-0.27035200595855713;1.1780319213867188;0.0;0.0;0.0
1157;0.0;0.0;0.0;-0.029279999434947968;-0.2508319914340973;1.1780319213867188;0.0;0.0;0.0
1159;-0.17470400035381317;-0.12321999669075012;1.0557879209518433;-0.01756799966096878;-0.2391199916601181;1.1624159812927246;19.228124618530273;9.563750267028809;62.08124923706055
1161;0.0;0.0;0.0;0.0019519999623298645;-0.25863999128341675;1.1575360298156738;0.0;0.0;0.0
1163;0.0;0.0;0.0;0.009759999811649323;-0.2547360062599182;1.1614400148391724;0.0;0.0;0.0
1165;0.0;0.0;0.0;0.040991999208927155;-0.6646559834480286;0.937936007976532;0.0;0.0;0.0
1168;-0.04367600008845329;-0.2579079866409302;0.9650200009346008;0.4060159921646118;-0.3757599890232086;1.044319987297058;26.928125381469727;14.5337495803833;64.95124816894531
1170;0.0;0.0;0.0;-0.16494399309158325;0.022447999566793442;1.3244320154190063;0.0;0.0;0.0
1172;0.0;0.0;0.0;-0.09857599437236786;-0.12199999392032623;1.2190239429473877;0.0;0.0;0.0
1174;0.0;0.0;0.0;0.0878399983048439;-0.1571359932422638;1.1741279363632202;0.0;0.0;0.0
1176;-0.11541199684143066;0.012443999759852886;1.0757960081100464;0.1454239934682846;-0.22740799188613892;1.0892159938812256;37.638126373291016;20.41375160217285;64.39125061035156
1178;0.0;0.0;0.0;0.20788799226284027;-0.11028799414634705;1.1458239555358887;0.0;0.0;0.0
1180;0.0;0.0;0.0;0.2235039919614792;-0.24302399158477783;1.1009279489517212;0.0;0.0;0.0
1182;0.0;0.0;0.0;0.3054879903793335;-0.32500800490379333;1.0033279657363892;0.0;0.0;0.0
1185;0.09955199807882309;-0.09125600010156631;0.9616039991378784;0.17665599286556244;-0.23131199181079865;1.0892159938812256;33.7181282043457;16.563751220703125;55.221248626708984
1187;0.0;0.0;0.0;0.16494399309158325;-0.16884799301624298;1.1370400190353394;0.0;0.0;0.0
1189;0.0;0.0;0.0;0.1571359932422638;-0.17665599286556244;1.1292319297790527;0.0;0.0;0.0
1191;0.0;0.0;0.0;0.18055999279022217;-0.1298079937696457;1.1497279405593872;0.0;0.0;0.0
1193;0.04928799718618393;-0.029767999425530434;1.022603988647461;0.22740799188613892;-0.11028799414634705;1.1458239555358887;34.558128356933594;2.423750162124634;64.8812484741211
1195;0.0;0.0;0.0;0.25863999128341675;-0.10247999429702759;1.1741279363632202;0.0;0.0;0.0
1197;0.0;0.0;0.0;0.31329599022865295;-0.08686399459838867;1.1087360382080078;0.0;0.0;0.0
1199;0.0;0.0;0.0;0.3484320044517517;-0.12590399384498596;1.0765279531478882;0.0;0.0;0.0
1202;0.20227599143981934;0.007075999863445759;0.9918599724769592;0.5895040035247803;-0.4108960032463074;0.937936007976532;25.808124542236328;0.8837500214576721;57.39125061035156
1204;0.0;0.0;0.0;0.5192319750785828;-0.01659199967980385;1.1165440082550049;0.0;0.0;0.0
1206;0.0;0.0;0.0;0.13078400492668152;-0.05563199892640114;1.1858400106430054;0.0;0.0;0.0
1208;0.0;0.0;0.0;0.10345599800348282;-0.19227199256420135;1.0843359231948853;0.0;0.0;0.0
1210;0.14981599152088165;-0.010491999797523022;0.9833199977874756;0.044895999133586884;-0.16494399309158325;1.1009279489517212;18.73812484741211;-0.7262499928474426;76.64125061035156
1212;0.0;0.0;0.0;0.17665599286556244;-0.3211039900779724;0.9711199998855591;0.0;0.0;0.0
1214;0.0;0.0;0.0;0.33671998977661133;-0.2937760055065155;0.9301279783248901;0.0;0.0;0.0
1216;0.0;0.0;0.0;0.5582720041275024;-0.31329599022865295;0.8862079977989197;0.0;0.0;0.0
1219;0.2100839912891388;-0.15371999144554138;0.8449719548225403;0.5348479747772217;-0.2898719906806946;0.9389119744300842;13.278124809265137;0.11374999582767487;55.29125213623047
1221;0.0;0.0;0.0;0.6041439771652222;-0.29767999053001404;0.9428159594535828;0.0;0.0;0.0
1223;0.0;0.0;0.0;0.5231360197067261;-0.2391199916601181;0.9877119660377502;0.0;0.0;0.0
1225;0.0;0.0;0.0;0.4411519765853882;-0.21959999203681946;1.019919991493225;0.0;0.0;0.0
1227;0.3928399980068207;-0.12321999669075012;0.8647359609603882;0.44896000623703003;-0.26254400610923767;1.0160160064697266;19.578125;5.853749752044678;56.76124954223633
1229;0.0;0.0;0.0;0.3630719780921936;-0.04001599922776222;1.2268320322036743;0.0;0.0;0.0
1231;0.0;0.0;0.0;0.49190399050712585;-0.028303999453783035;1.214143991470337;0.0;0.0;0.0
1233;0.0;0.0;0.0;0.35624000430107117;-0.07124799489974976;1.1614400148391724;0.0;0.0;0.0
1236;0.2810879945755005;0.05709599703550339;1.0487120151519775;0.3445279896259308;-0.13371199369430542;1.1253279447555542;17.198123931884766;11.173749923706055;62.221248626708984
1238;0.0;0.0;0.0;0.2781600058078766;-0.13371199369430542;1.1292319297790527;0.0;0.0;0.0
1240;0.0;0.0;0.0;0.2937760055065155;-0.16494399309158325;1.1048319339752197;0.0;0.0;0.0
1242;0.0;0.0;0.0;0.31329599022865295;-0.24302399158477783;1.0687199831008911;0.0;0.0;0.0
1244;0.17372798919677734;-0.04660400003194809;0.9755119681358337;0.3640480041503906;-0.24302399158477783;1.0521279573440552;2.4981250762939453;2.283750057220459;78.39125061035156
1246;0.0;0.0;0.0;0.4060159921646118;-0.2391199916601181;1.0560319423675537;0.0;0.0;0.0
1248;0.0;0.0;0.0;0.4294399917125702;-0.2391199916601181;1.012112021446228;0.0;0.0;0.0
1251;0.0;0.0;0.0;0.5348479747772217;-0.5358240008354187;0.9262239933013916;0.0;0.0;0.0
1253;0.35867998003959656;-0.16323599219322205;0.8945040106773376;0.5885279774665833;-0.18055999279022217;1.1048319339752197;-2.3318748474121094;-2.266249895095825;76.99124908447266
1255;0.0;0.0;0.0;0.5856000185012817;-0.4577440023422241;0.9711199998855591;0.0;0.0;0.0
1257;0.0;0.0;0.0;0.6705119609832764;-0.4030880033969879;0.9389119744300842;0.0;0.0;0.0
1259;0.0;0.0;0.0;0.6588000059127808;-0.3172000050544739;1.0726239681243896;0.0;0.0;0.0
1261;0.5141080021858215;-0.23131199181079865;0.8908439874649048;0.7603039741516113;-0.35624000430107117;1.036512017250061;3.6181252002716064;3.333750009536743;63.62125015258789
1263;0.0;0.0;0.0;0.7056480050086975;-0.3093920052051544;1.0687199831008911;0.0;0.0;0.0
1265;0.0;0.0;0.0;0.6783199906349182;-0.27425599098205566;1.1048319339752197;0.0;0.0;0.0
1267;0.0;0.0;0.0;0.6627039909362793;-0.26254400610923767;1.1331360340118408;0.0;0.0;0.0
1270;0.561199963092804;-0.14883999526500702;0.9669719934463501;0.6431840062141418;-0.20398399233818054;1.1458239555358887;8.308124542236328;4.033750057220459;52.21125030517578
1272;0.0;0.0;0.0;0.6744160056114197;-0.23521599173545837;1.1536319255828857;0.0;0.0;0.0
1274;0.0;0.0;0.0;0.7017439603805542;-0.2508319914340973;1.1458239555358887;0.0;0.0;0.0
1276;0.0;0.0;0.0;0.7134559750556946;-0.20398399233818054;1.1536319255828857;0.0;0.0;0.0
1278;0.5738880038261414;-0.0954039990901947;1.0223599672317505;0.7603039741516113;-0.22740799188613892;1.1048319339752197;3.6881251335144043;-8.916250228881836;46.61125183105469
1280;0.0;0.0;0.0;0.7681120038032532;-0.2508319914340973;1.1214239597320557;0.0;0.0;0.0
1282;0.0;0.0;0.0;0.822767972946167;-0.25863999128341675;1.0892159938812256;0.0;0.0;0.0
1285;0.0;0.0;0.0;0.8539999723434448;-0.27425599098205566;1.0931199789047241;0.0;0.0;0.0
1287;0.700767993927002;-0.1327359974384308;0.9750239849090576;0.8998720049858093;-0.3211039900779724;1.0804319381713867;-0.7918750047683716;-20.256248474121094;42.62125015258789
1289;0.0;0.0;0.0;0.9115839600563049;-0.2898719906806946;1.0687199831008911;0.0;0.0;0.0
1291;0.0;0.0;0.0;0.9232959747314453;-0.3328160047531128;1.0521279573440552;0.0;0.0;0.0
1293;0.0;0.0;0.0;0.9311040043830872;-0.32500800490379333;1.0726239681243896;0.0;0.0;0.0
1295;0.7886079549789429;-0.17494799196720123;0.9518439769744873;0.9271999597549438;-0.32891198992729187;1.0726239681243896;-0.2318750023841858;-22.2862491607666;38.28125
1297;0.0;0.0;0.0;0.9467200040817261;-0.32500800490379333;1.0726239681243896;0.0;0.0;0.0
1299;0.0;0.0;0.0;0.9506239891052246;-0.3093920052051544;1.0931199789047241;0.0;0.0;0.0
1302;0.0;0.0;0.0;0.9350079894065857;-0.34062400460243225;1.085312008857727;0.0;0.0;0.0
1304;0.8259400129318237;-0.1820240020751953;0.9689239859580994;0.9740479588508606;-0.31329599022865295;1.1048319339752197;2.2881250381469727;-20.74625015258789;33.94124984741211
1306;0.0;0.0;0.0;0.9818559885025024;-0.32891198992729187;1.1136159896850586;0.0;0.0;0.0
1308;0.0;0.0;0.0;1.0013760328292847;-0.3328160047531128;1.1009279489517212;0.0;0.0;0.0
1310;0.0;0.0;0.0;1.0130879878997803;-0.32891198992729187;1.0765279531478882;0.0;0.0;0.0
1312;0.8820599913597107;-0.18373200297355652;0.9796599745750427;1.0677440166473389;-0.32891198992729187;1.0648159980773926;4.10812520980835;-19.76624870300293;30.511249542236328
1315;0.0;0.0;0.0;1.044319987297058;-0.3328160047531128;1.0726239681243896;0.0;0.0;0.0
1316;0.0;0.0;0.0;1.044319987297058;-0.31329599022865295;1.0843359231948853;0.0;0.0;0.0
1319;0.0;0.0;0.0;1.0872639417648315;-0.32891198992729187;1.0648159980773926;0.0;0.0;0.0
1321;0.9547719955444336;-0.1925159990787506;0.9598959684371948;1.1106879711151123;-0.3328160047531128;1.044319987297058;4.388124942779541;-17.24625015258789;24.9112491607666
1323;0.0;0.0;0.0;1.1184959411621094;-0.32891198992729187;1.0726239681243896;0.0;0.0;0.0
1325;0.0;0.0;0.0;1.122399926185608;-0.35624000430107117;1.044319987297058;0.0;0.0;0.0
1327;0.0;0.0;0.0;1.126304030418396;-0.3445279896259308;1.0277279615402222;0.0;0.0;0.0
1329;1.0043039321899414;-0.1995919942855835;0.9293959736824036;1.1419199705123901;-0.3054879903793335;1.0404160022735596;3.968125104904175;-12.206250190734863;16.021249771118164
1331;0.0;0.0;0.0;1.165343999862671;-0.34062400460243225;1.0648159980773926;0.0;0.0;0.0
1333;0.0;0.0;0.0;1.1604639291763306;-0.3445279896259308;1.044319987297058;0.0;0.0;0.0
1336;0.0;0.0;0.0;1.1497279405593872;-0.32500800490379333;1.036512017250061;0.0;0.0;0.0
1338;1.0333399772644043;-0.19910399615764618;0.929639995098114;1.1682720184326172;-0.36795198917388916;1.0560319423675537;2.63812518119812;-5.90625;6.081250190734863
1340;0.0;0.0;0.0;1.1419199705123901;-0.35233598947525024;1.0404160022735596;0.0;0.0;0.0
1342;0.0;0.0;0.0;1.1458239555358887;-0.4108960032463074;1.0316319465637207;0.0;0.0;0.0
1344;0.0;0.0;0.0;1.1380159854888916;-0.36795198917388916;1.060912013053894;0.0;0.0;0.0
1346;1.020651936531067;-0.23082399368286133;0.9345200061798096;1.09116792678833;-0.3757599890232086;1.0765279531478882;0.9581249952316284;1.09375;-1.4787499904632568
1348;0.0;0.0;0.0;1.134112000465393;-0.4147999882698059;1.0648159980773926;0.0;0.0;0.0
1350;0.0;0.0;0.0;1.1145919561386108;-0.3757599890232086;1.0687199831008911;0.0;0.0;0.0
1353;0.0;0.0;0.0;1.1067839860916138;-0.40699198842048645;1.044319987297058;0.0;0.0;0.0
1355;0.9835639595985413;-0.24692799150943756;0.9445239901542664;1.0482239723205566;-0.3484320044517517;1.0765279531478882;-0.37187498807907104;10.613749504089355;-7.848750114440918
1357;0.0;0.0;0.0;1.0482239723205566;-0.34062400460243225;1.0726239681243896;0.0;0.0;0.0
1359;0.0;0.0;0.0;1.09116792678833;-0.36795198917388916;1.1048319339752197;0.0;0.0;0.0
1361;0.0;0.0;0.0;1.0599359273910522;-0.3835679888725281;1.0687199831008911;0.0;0.0;0.0
1363;0.9396439790725708;-0.23228800296783447;0.9679479598999023;1.0169919729232788;-0.4108960032463074;1.0931199789047241;-0.6518750190734863;17.193750381469727;-11.208749771118164
1365;0.0;0.0;0.0;0.9935680031776428;-0.40699198842048645;1.0804319381713867;0.0;0.0;0.0
1367;0.0;0.0;0.0;0.9935680031776428;-0.41870400309562683;1.0892159938812256;0.0;0.0;0.0
1370;0.0;0.0;0.0;1.0052800178527832;-0.4147999882698059;1.0726239681243896;0.0;0.0;0.0
1372;0.8910880088806152;-0.2715719938278198;0.9694119691848755;1.0247999429702759;-0.4108960032463074;1.1048319339752197;1.0981249809265137;18.80375099182129;-16.108749389648438
1374;0.0;0.0;0.0;0.9779520034790039;-0.43432000279426575;1.0892159938812256;0.0;0.0;0.0
1376;0.0;0.0;0.0;0.985759973526001;-0.40699198842048645;1.0970239639282227;0.0;0.0;0.0
1378;0.0;0.0;0.0;0.962336003780365;-0.4030880033969879;1.1214239597320557;0.0;0.0;0.0
1380;0.8508279919624329;-0.280599981546402;0.9828319549560547;0.9506239891052246;-0.40699198842048645;1.0970239639282227;4.388124942779541;19.293750762939453;-21.638750076293945
1382;0.0;0.0;0.0;0.962336003780365;-0.4108960032463074;1.1136159896850586;0.0;0.0;0.0
1384;0.0;0.0;0.0;0.9271999597549438;-0.4304159879684448;1.1253279447555542;0.0;0.0;0.0
1387;0.0;0.0;0.0;0.9271999597549438;-0.4030880033969879;1.1136159896850586;0.0;0.0;0.0
1389;0.8091039657592773;-0.27206000685691833;0.9860039949417114;0.8764479756355286;-0.41870400309562683;1.1048319339752197;6.348124980926514;19.993751525878906;-27.168750762939453
1391;0.0;0.0;0.0;0.9154880046844482;-0.40699198842048645;1.0931199789047241;0.0;0.0;0.0
1393;0.0;0.0;0.0;0.87254399061203;-0.4147999882698059;1.0970239639282227;0.0;0.0;0.0
1395;0.0;0.0;0.0;0.8647359609603882;-0.3757599890232086;1.0843359231948853;0.0;0.0;0.0
1397;0.7517639994621277;-0.2654719948768616;0.9794159531593323;0.8032479882240295;-0.39528000354766846;1.0765279531478882;7.748125076293945;19.083751678466797;-33.9587516784668
1400;0.0;0.0;0.0;0.822767972946167;-0.39137598872184753;1.0970239639282227;0.0;0.0;0.0
1401;0.0;0.0;0.0;0.8149600028991699;-0.399183988571167;1.1136159896850586;0.0;0.0;0.0
1404;0.0;0.0;0.0;0.8344799876213074;-0.35624000430107117;1.1253279447555542;0.0;0.0;0.0
1406;0.6958879828453064;-0.24643999338150024;0.9952759742736816;0.7915359735488892;-0.3601439893245697;1.1253279447555542;7.678124904632568;14.743749618530273;-41.37874984741211
1408;0.0;0.0;0.0;0.749567985534668;-0.36795198917388916;1.1497279405593872;0.0;0.0;0.0
1410;0.0;0.0;0.0;0.7300480008125305;-0.35233598947525024;1.1497279405593872;0.0;0.0;0.0
1412;0.0;0.0;0.0;0.7417600154876709;-0.3757599890232086;1.1702239513397217;0.0;0.0;0.0
1414;0.6283000111579895;-0.22594399750232697;1.0311440229415894;0.7456640005111694;-0.3484320044517517;1.1536319255828857;4.878125190734863;9.773750305175781;-47.118751525878906
1416;0.0;0.0;0.0;0.733951985836029;-0.35233598947525024;1.1741279363632202;0.0;0.0;0.0
1418;0.0;0.0;0.0;0.7183359861373901;-0.35233598947525024;1.1536319255828857;0.0;0.0;0.0
1421;0.0;0.0;0.0;0.7729920148849487;-0.3484320044517517;1.1497279405593872;0.0;0.0;0.0
1423;0.6253719925880432;-0.21716000139713287;1.0299240350723267;0.749567985534668;-0.36795198917388916;1.1458239555358887;1.3081250190734863;5.783750057220459;-51.87874984741211
1425;0.0;0.0;0.0;0.7290719747543335;-0.34062400460243225;1.1458239555358887;0.0;0.0;0.0
1427;0.0;0.0;0.0;0.7563999891281128;-0.35624000430107117;1.1624159812927246;0.0;0.0;0.0
1429;0.0;0.0;0.0;0.7212640047073364;-0.34062400460243225;1.1614400148391724;0.0;0.0;0.0
1431;0.6341559886932373;-0.21227999031543732;1.0384639501571655;0.7681120038032532;-0.3640480041503906;1.1419199705123901;0.18812501430511475;4.803750038146973;-54.04875183105469
1434;0.0;0.0;0.0;0.7642079591751099;-0.3757599890232086;1.1331360340118408;0.0;0.0;0.0
1435;0.0;0.0;0.0;0.7368800044059753;-0.37966400384902954;1.1458239555358887;0.0;0.0;0.0
1438;0.0;0.0;0.0;0.7173599600791931;-0.3484320044517517;1.1575360298156738;0.0;0.0;0.0
1440;0.6212239861488342;-0.22740799188613892;1.036512017250061;0.7446879744529724;-0.35624000430107117;1.1702239513397217;-0.6518750190734863;12.293749809265137;-60.48875045776367
1442;0.0;0.0;0.0;0.733951985836029;-0.3211039900779724;1.1614400148391724;0.0;0.0;0.0
1444;0.0;0.0;0.0;0.7417600154876709;-0.35624000430107117;1.1780319213867188;0.0;0.0;0.0
1446;0.0;0.0;0.0;0.7261439561843872;-0.3328160047531128;1.1741279363632202;0.0;0.0;0.0
1448;0.5997520089149475;-0.2152079939842224;1.0587159395217896;0.6792960166931152;-0.33671998977661133;1.1858400106430054;0.6781249642372131;18.943750381469727;-66.57875061035156
1451;0.0;0.0;0.0;0.6753919720649719;-0.3328160047531128;1.214143991470337;0.0;0.0;0.0
1452;0.0;0.0;0.0;0.6558719873428345;-0.3172000050544739;1.214143991470337;0.0;0.0;0.0
1455;0.0;0.0;0.0;0.6090239882469177;-0.34062400460243225;1.2063360214233398;0.0;0.0;0.0
1457;0.5292360186576843;-0.20032399892807007;1.083847999572754;0.5934079885482788;-0.33671998977661133;1.2229279279708862;1.9381250143051147;23.77375030517578;-70.42874908447266
1459;0.0;0.0;0.0;0.611952006816864;-0.31329599022865295;1.2307360172271729;0.0;0.0;0.0
1461;0.0;0.0;0.0;0.562175989151001;-0.3172000050544739;1.214143991470337;0.0;0.0;0.0
1463;0.0;0.0;0.0;0.5777919888496399;-0.32891198992729187;1.2024319171905518;0.0;0.0;0.0
1465;0.4567679762840271;-0.18544000387191772;1.0955599546432495;0.5426560044288635;-0.32891198992729187;1.1946239471435547;2.2881250381469727;28.953750610351562;-75.18875122070312
1467;0.0;0.0;0.0;0.5348479747772217;-0.32891198992729187;1.2063360214233398;0.0;0.0;0.0
1470;0.0;0.0;0.0;0.5192319750785828;-0.31329599022865295;1.2102400064468384;0.0;0.0;0.0
1472;0.0;0.0;0.0;0.5270400047302246;-0.27425599098205566;1.2268320322036743;0.0;0.0;0.0
1474;0.40357598662376404;-0.1722639948129654;1.0909240245819092;0.4684799909591675;-0.3054879903793335;1.2190239429473877;4.10812520980835;32.803749084472656;-78.47875213623047
1476;0.0;0.0;0.0;0.4450559914112091;-0.30158400535583496;1.1858400106430054;0.0;0.0;0.0
1478;0.0;0.0;0.0;0.4138239920139313;-0.3172000050544739;1.2024319171905518;0.0;0.0;0.0
1480;0.0;0.0;0.0;0.42163199186325073;-0.28596800565719604;1.1946239471435547;0.0;0.0;0.0
1482;0.2954840064048767;-0.16299200057983398;1.0818959474563599;0.38649600744247437;-0.2937760055065155;1.189743995666504;8.028124809265137;36.09375;-81.34874725341797
1485;0.0;0.0;0.0;0.4177280068397522;-0.2898719906806946;1.1946239471435547;0.0;0.0;0.0
1487;0.0;0.0;0.0;0.3786879777908325;-0.26254400610923767;1.1985279321670532;0.0;0.0;0.0
1489;0.0;0.0;0.0;0.38259199261665344;-0.2937760055065155;1.214143991470337;0.0;0.0;0.0
1491;0.253028005361557;-0.1390800029039383;1.0826280117034912;0.35233598947525024;-0.2664479911327362;1.1985279321670532;14.118124961853027;34.27375030517578;-83.8687515258789
1493;0.0;0.0;0.0;0.33671998977661133;-0.25863999128341675;1.2024319171905518;0.0;0.0;0.0
1495;0.0;0.0;0.0;0.3172000050544739;-0.23521599173545837;1.1985279321670532;0.0;0.0;0.0
1497;0.0;0.0;0.0;0.28596800565719604;-0.2547360062599182;1.1946239471435547;0.0;0.0;0.0
1499;0.17494799196720123;-0.11150799691677094;1.0787240266799927;0.23131199181079865;-0.2508319914340973;1.1780319213867188;18.318124771118164;31.543750762939453;-85.54875183105469
1501;0.0;0.0;0.0;0.2508319914340973;-0.2391199916601181;1.1741279363632202;0.0;0.0;0.0
1504;0.0;0.0;0.0;0.19617599248886108;-0.23131199181079865;1.1819360256195068;0.0;0.0;0.0
1506;0.0;0.0;0.0;0.1727519929409027;-0.2391199916601181;1.1702239513397217;0.0;0.0;0.0
1508;0.08271599560976028;-0.09272000193595886;1.0604239702224731;0.1844639927148819;-0.25863999128341675;1.1858400106430054;20.558124542236328;25.52375030517578;-87.99874877929688
1510;0.0;0.0;0.0;0.15323199331760406;-0.2000799924135208;1.1702239513397217;0.0;0.0;0.0
1512;0.0;0.0;0.0;0.07612799853086472;-0.1844639927148819;1.1458239555358887;0.0;0.0;0.0
1514;0.0;0.0;0.0;0.11126399785280228;-0.19227199256420135;1.1741279363632202;0.0;0.0;0.0
1516;-0.011711999773979187;-0.06417199969291687;1.0455399751663208;0.06441599875688553;-0.18055999279022217;1.1536319255828857;20.908124923706055;16.84375;-89.32875061035156
1518;0.0;0.0;0.0;0.05270399898290634;-0.18055999279022217;1.1614400148391724;0.0;0.0;0.0
1521;0.0;0.0;0.0;0.0019519999623298645;-0.13371199369430542;1.1663199663162231;0.0;0.0;0.0
1523;0.0;0.0;0.0;0.02537599951028824;-0.14151999354362488;1.1663199663162231;0.0;0.0;0.0
1525;-0.09686800092458725;-0.02757199853658676;1.0401719808578491;0.02537599951028824;-0.16103999316692352;1.1536319255828857;18.948123931884766;5.643749713897705;-88.90875244140625
1527;0.0;0.0;0.0;-0.029279999434947968;-0.1571359932422638;1.1702239513397217;0.0;0.0;0.0
1529;0.0;0.0;0.0;-0.040991999208927155;-0.18055999279022217;1.1575360298156738;0.0;0.0;0.0
1531;0.0;0.0;0.0;-0.02537599951028824;-0.16494399309158325;1.1536319255828857;0.0;0.0;0.0
1533;-0.14932799339294434;-0.030988000333309174;1.0243120193481445;-0.037087999284267426;-0.18055999279022217;1.1497279405593872;14.468124389648438;-3.7362499237060547;-87.85874938964844
1535;0.0;0.0;0.0;-0.09174399822950363;-0.19617599248886108;1.1214239597320557;0.0;0.0;0.0
1538;0.0;0.0;0.0;-0.08393599838018417;-0.18055999279022217;1.1380159854888916;0.0;0.0;0.0
1540;0.0;0.0;0.0;-0.07222399860620499;-0.18055999279022217;1.1458239555358887;0.0;0.0;0.0
1542;-0.19617599248886108;-0.0500199981033802;1.016260027885437;-0.044895999133586884;-0.19227199256420135;1.1175199747085571;9.42812442779541;-6.326250076293945;-86.10874938964844
1544;0.0;0.0;0.0;-0.08686399459838867;-0.1844639927148819;1.1214239597320557;0.0;0.0;0.0
1546;0.0;0.0;0.0;-0.08686399459838867;-0.21569599211215973;1.0726239681243896;0.0;0.0;0.0
1548;0.0;0.0;0.0;-0.08686399459838867;-0.19617599248886108;1.1136159896850586;0.0;0.0;0.0
1550;-0.20520399510860443;-0.057339999824762344;0.9918599724769592;-0.0907679945230484;-0.18836799263954163;1.1009279489517212;6.488125324249268;-1.9862499237060547;-82.60874938964844
1553;0.0;0.0;0.0;-0.12199999392032623;-0.16494399309158325;1.0892159938812256;0.0;0.0;0.0
1555;0.0;0.0;0.0;-0.14151999354362488;-0.16884799301624298;1.0804319381713867;0.0;0.0;0.0
1557;0.0;0.0;0.0;-0.1483519971370697;-0.16884799301624298;1.0970239639282227;0.0;0.0;0.0
1559;-0.26449599862098694;-0.04172400012612343;0.9708759784698486;-0.1756799966096878;-0.16884799301624298;1.0804319381713867;7.958125114440918;5.503749847412109;-76.79875183105469
1561;0.0;0.0;0.0;-0.19910399615764618;-0.1571359932422638;1.0648159980773926;0.0;0.0;0.0
1563;0.0;0.0;0.0;-0.2420479953289032;-0.14151999354362488;1.0726239681243896;0.0;0.0;0.0
1565;0.0;0.0;0.0;-0.24985599517822266;-0.16494399309158325;1.0560319423675537;0.0;0.0;0.0
1567;-0.3601439893245697;-0.019519999623298645;0.9494040012359619;-0.2967039942741394;-0.12590399384498596;1.0687199831008911;12.08812427520752;11.243749618530273;-70.91874694824219
1570;0.0;0.0;0.0;-0.27718400955200195;-0.12199999392032623;1.0687199831008911;0.0;0.0;0.0
1572;0.0;0.0;0.0;-0.284991979598999;-0.1298079937696457;1.0560319423675537;0.0;0.0;0.0
1574;0.0;0.0;0.0;-0.3123199939727783;-0.09857599437236786;1.0521279573440552;0.0;0.0;0.0
1576;-0.42626798152923584;0.022447999566793442;0.928663969039917;-0.3201279938220978;-0.10247999429702759;1.0521279573440552;16.078125;13.203749656677246;-65.17874908447266
1578;0.0;0.0;0.0;-0.32500800490379333;-0.07905599474906921;1.036512017250061;0.0;0.0;0.0
1580;0.0;0.0;0.0;-0.35624000430107117;-0.08686399459838867;1.012112021446228;0.0;0.0;0.0
1582;0.0;0.0;0.0;-0.36795198917388916;-0.04391999915242195;0.9955199956893921;0.0;0.0;0.0
1584;-0.4684799909591675;0.056120000779628754;0.8979200124740601;-0.3757599890232086;-0.05563199892640114;1.0072319507598877;17.75812530517578;12.573749542236328;-58.528751373291016
1587;0.0;0.0;0.0;-0.4021120071411133;-0.07515199482440948;0.9711199998855591;0.0;0.0;0.0
1589;0.0;0.0;0.0;-0.39430397748947144;-0.07124799489974976;0.9789279699325562;0.0;0.0;0.0
1591;0.0;0.0;0.0;-0.39820799231529236;-0.05172799900174141;0.9955199956893921;0.0;0.0;0.0
1593;-0.5163040161132812;0.07441999763250351;0.8718119859695435;-0.4021120071411133;-0.04001599922776222;0.9916160106658936;16.848125457763672;9.213749885559082;-52.368751525878906
1595;0.0;0.0;0.0;-0.41284799575805664;-0.032207999378442764;0.9955199956893921;0.0;0.0;0.0
1597;0.0;0.0;0.0;-0.4167519807815552;-0.04001599922776222;0.9916160106658936;0.0;0.0;0.0
1599;0.0;0.0;0.0;-0.4206559956073761;-0.05563199892640114;0.9994239807128906;0.0;0.0;0.0
1601;-0.5416799783706665;0.08857199549674988;0.8730319738388062;-0.40113598108291626;-0.0634399950504303;0.9994239807128906;12.368124961853027;4.173749923706055;-46.908748626708984
1604;0.0;0.0;0.0;-0.42455998063087463;-0.05172799900174141;0.9916160106658936;0.0;0.0;0.0
1606;0.0;0.0;0.0;-0.4167519807815552;-0.04001599922776222;0.9994239807128906;0.0;0.0;0.0
1608;0.0;0.0;0.0;-0.3972319960594177;-0.08686399459838867;0.9877119660377502;0.0;0.0;0.0
1610;-0.5404599905014038;0.07905599474906921;0.8788880109786987;-0.42455998063087463;-0.07515199482440948;1.0072319507598877;4.808125019073486;0.5337499976158142;-42.28874969482422
1612;0.0;0.0;0.0;-0.4333440065383911;-0.08686399459838867;1.0072319507598877;0.0;0.0;0.0
1614;0.0;0.0;0.0;-0.4684799909591675;-0.07905599474906921;0.9994239807128906;0.0;0.0;0.0
1616;0.0;0.0;0.0;-0.4450559914112091;-0.0907679945230484;1.0072319507598877;0.0;0.0;0.0
1618;-0.5692520141601562;0.057583998888731;0.8886479735374451;-0.4411519765853882;-0.08295999467372894;1.0316319465637207;-2.2618749141693115;-1.9162499904632568;-37.528751373291016
1621;0.0;0.0;0.0;-0.4450559914112091;-0.07124799489974976;1.0238239765167236;0.0;0.0;0.0
1623;0.0;0.0;0.0;-0.45286399126052856;-0.08295999467372894;1.0648159980773926;0.0;0.0;0.0
1625;0.0;0.0;0.0;-0.45286399126052856;-0.10247999429702759;1.0560319423675537;0.0;0.0;0.0
1627;-0.5794999599456787;0.048312000930309296;0.9169519543647766;-0.4411519765853882;-0.10638399422168732;1.0316319465637207;-6.741875171661377;-5.976250171661377;-32.55875015258789
1629;0.0;0.0;0.0;-0.45286399126052856;-0.10247999429702759;1.0277279615402222;0.0;0.0;0.0
1631;0.0;0.0;0.0;-0.4684799909591675;-0.12590399384498596;1.0404160022735596;0.0;0.0;0.0
1633;0.0;0.0;0.0;-0.460671991109848;-0.14151999354362488;1.0277279615402222;0.0;0.0;0.0
1635;-0.5902360081672668;0.02147199958562851;0.9225639700889587;-0.44896000623703003;-0.1454239934682846;1.0316319465637207;-8.141875267028809;-8.706250190734863;-26.748750686645508
1638;0.0;0.0;0.0;-0.45286399126052856;-0.12199999392032623;1.044319987297058;0.0;0.0;0.0
1640;0.0;0.0;0.0;-0.472383975982666;-0.13761599361896515;1.0482239723205566;0.0;0.0;0.0
1642;0.0;0.0;0.0;-0.45286399126052856;-0.14151999354362488;1.0316319465637207;0.0;0.0;0.0
1644;-0.5807200074195862;0.007319999858736992;0.9271999597549438;-0.4411519765853882;-0.14151999354362488;1.0560319423675537;-6.181874752044678;-8.146249771118164;-21.21875
1646;0.0;0.0;0.0;-0.42553597688674927;-0.1180959939956665;1.0599359273910522;0.0;0.0;0.0
1648;0.0;0.0;0.0;-0.43724799156188965;-0.13371199369430542;1.0843359231948853;0.0;0.0;0.0
1650;0.0;0.0;0.0;-0.4567679762840271;-0.1298079937696457;1.0804319381713867;0.0;0.0;0.0
1652;-0.5902360081672668;0.003903999924659729;0.9462319612503052;-0.4958080053329468;-0.11419199407100677;1.0931199789047241;-3.241874933242798;-4.576250076293945;-15.05875015258789
1655;0.0;0.0;0.0;-0.4958080053329468;-0.1454239934682846;1.0970239639282227;0.0;0.0;0.0
1657;0.0;0.0;0.0;-0.49190399050712585;-0.16494399309158325;1.0882400274276733;0.0;0.0;0.0
1659;0.0;0.0;0.0;-0.5231360197067261;-0.12590399384498596;1.0765279531478882;0.0;0.0;0.0
1661;-0.6324479579925537;-0.0009759999811649323;0.961359977722168;-0.5231360197067261;-0.14151999354362488;1.0726239681243896;-0.5818750262260437;-1.0762499570846558;-8.338749885559082
1663;0.0;0.0;0.0;-0.5231360197067261;-0.12199999392032623;1.085312008857727;0.0;0.0;0.0
1665;0.0;0.0;0.0;-0.562175989151001;-0.1298079937696457;1.0892159938812256;0.0;0.0;0.0
1667;0.0;0.0;0.0;-0.5504639744758606;-0.13761599361896515;1.0843359231948853;0.0;0.0;0.0
1670;-0.6710000038146973;0.00634399987757206;0.9601399898529053;-0.5777919888496399;-0.11028799414634705;1.0765279531478882;1.5181249380111694;1.8637501001358032;-1.1987500190734863
1672;0.0;0.0;0.0;-0.5777919888496399;-0.11419199407100677;1.0892159938812256;0.0;0.0;0.0
1674;0.0;0.0;0.0;-0.5777919888496399;-0.10638399422168732;1.0560319423675537;0.0;0.0;0.0
1676;0.0;0.0;0.0;-0.5856000185012817;-0.10247999429702759;1.0482239723205566;0.0;0.0;0.0
1678;-0.7024759650230408;0.02147199958562851;0.945743978023529;-0.569983959197998;-0.10247999429702759;1.0482239723205566;3.4781250953674316;2.913750171661377;6.501250267028809
1680;0.0;0.0;0.0;-0.5738880038261414;-0.09467199444770813;1.0726239681243896;0.0;0.0;0.0
1682;0.0;0.0;0.0;-0.6090239882469177;-0.11419199407100677;1.0482239723205566;0.0;0.0;0.0
1684;0.0;0.0;0.0;-0.6129279732704163;-0.10247999429702759;1.0238239765167236;0.0;0.0;0.0
1686;-0.7227280139923096;0.030499998480081558;0.9267119765281677;-0.5934079885482788;-0.10638399422168732;1.0482239723205566;5.018125057220459;1.8637501001358032;14.3412504196167
1689;0.0;0.0;0.0;-0.6051200032234192;-0.09467199444770813;1.0316319465637207;0.0;0.0;0.0
1691;0.0;0.0;0.0;-0.5856000185012817;-0.09857599437236786;1.0404160022735596;0.0;0.0;0.0
1693;0.0;0.0;0.0;-0.5856000185012817;-0.10638399422168732;1.012112021446228;0.0;0.0;0.0
1695;-0.7173599600791931;0.029767999425530434;0.901091992855072;-0.6168320178985596;-0.12590399384498596;1.0316319465637207;5.85812520980835;0.6037499904632568;22.46125030517578
1697;0.0;0.0;0.0;-0.5934079885482788;-0.09857599437236786;1.0316319465637207;0.0;0.0;0.0
1699;0.0;0.0;0.0;-0.6012159585952759;-0.0907679945230484;0.9877119660377502;0.0;0.0;0.0
1701;0.0;0.0;0.0;-0.5816959738731384;-0.12199999392032623;1.0072319507598877;0.0;0.0;0.0
1703;-0.7310239672660828;0.02903600037097931;0.8801079988479614;-0.5856000185012817;-0.10247999429702759;0.9916160106658936;6.348124980926514;2.0037500858306885;31.001249313354492
1706;0.0;0.0;0.0;-0.5543680191040039;-0.11419199407100677;1.0238239765167236;0.0;0.0;0.0
1708;0.0;0.0;0.0;-0.5231360197067261;-0.07124799489974976;1.036512017250061;0.0;0.0;0.0
1710;0.0;0.0;0.0;-0.5192319750785828;-0.07124799489974976;1.0238239765167236;0.0;0.0;0.0
1712;-0.6724640130996704;0.05807200074195862;0.8925519585609436;-0.5036159753799438;-0.0634399950504303;1.0355359315872192;5.438125133514404;3.8237500190734863;40.80125045776367
1714;0.0;0.0;0.0;-0.4684799909591675;-0.07905599474906921;1.0316319465637207;0.0;0.0;0.0
1716;0.0;0.0;0.0;-0.44896000623703003;-0.06734399497509003;1.0277279615402222;0.0;0.0;0.0
1718;0.0;0.0;0.0;-0.45286399126052856;-0.06734399497509003;1.019919991493225;0.0;0.0;0.0
1720;-0.5892599821090698;0.07222399860620499;0.9101200103759766;-0.4294399917125702;-0.0907679945230484;1.0316319465637207;2.708125114440918;5.643749713897705;50.251251220703125
1723;0.0;0.0;0.0;-0.3903999924659729;-0.07515199482440948;1.0404160022735596;0.0;0.0;0.0
1725;0.0;0.0;0.0;-0.37966400384902954;-0.08686399459838867;1.019919991493225;0.0;0.0;0.0
1727;0.0;0.0;0.0;-0.3601439893245697;-0.07905599474906921;1.0238239765167236;0.0;0.0;0.0
1729;-0.505079984664917;0.058559998869895935;0.9159759879112244;-0.3484320044517517;-0.0634399950504303;1.0355359315872192;-0.16187499463558197;7.463749885559082;57.60124969482422
1731;0.0;0.0;0.0;-0.34062400460243225;-0.09857599437236786;1.0687199831008911;0.0;0.0;0.0
1733;0.0;0.0;0.0;-0.3172000050544739;-0.08686399459838867;1.0599359273910522;0.0;0.0;0.0
1735;0.0;0.0;0.0;-0.29767999053001404;-0.0907679945230484;1.0599359273910522;0.0;0.0;0.0
1737;-0.4304159879684448;0.05563199892640114;0.9303719997406006;-0.24692799150943756;-0.07905599474906921;1.0687199831008911;-1.8418750762939453;8.44374942779541;62.92124938964844
1740;0.0;0.0;0.0;-0.2235039919614792;-0.08295999467372894;1.0765279531478882;0.0;0.0;0.0
1742;0.0;0.0;0.0;-0.22740799188613892;-0.0907679945230484;1.1009279489517212;0.0;0.0;0.0
1744;0.0;0.0;0.0;-0.19617599248886108;-0.10247999429702759;1.0843359231948853;0.0;0.0;0.0
1746;-0.34135597944259644;0.047335997223854065;0.9567239880561829;-0.16494399309158325;-0.09467199444770813;1.0765279531478882;-2.3318748474121094;7.533750057220459;67.12125396728516
1748;0.0;0.0;0.0;-0.13859200477600098;-0.0907679945230484;1.1009279489517212;0.0;0.0;0.0
1750;0.0;0.0;0.0;-0.12297599762678146;-0.09857599437236786;1.1136159896850586;0.0;0.0;0.0
1752;0.0;0.0;0.0;-0.10345599800348282;-0.12199999392032623;1.1009279489517212;0.0;0.0;0.0
1754;-0.2593719959259033;0.0348920002579689;0.9703879952430725;-0.09564799815416336;-0.0907679945230484;1.0687199831008911;-1.771875023841858;5.993749618530273;69.85124969482422
1757;0.0;0.0;0.0;-0.07222399860620499;-0.11028799414634705;1.1087360382080078;0.0;0.0;0.0
1759;0.0;0.0;0.0;-0.05270399898290634;-0.10247999429702759;1.1253279447555542;0.0;0.0;0.0
1761;0.0;0.0;0.0;-0.040991999208927155;-0.1180959939956665;1.1253279447555542;0.0;0.0;0.0
1763;-0.1878799945116043;0.020983999595046043;0.9896639585494995;-0.040991999208927155;-0.10638399422168732;1.1292319297790527;-0.37187498807907104;4.103749752044678;71.60124969482422
1765;0.0;0.0;0.0;0.009759999811649323;-0.13371199369430542;1.1214239597320557;0.0;0.0;0.0
1767;0.0;0.0;0.0;-0.009759999811649323;-0.11028799414634705;1.1380159854888916;0.0;0.0;0.0
1769;0.0;0.0;0.0;0.029279999434947968;-0.15323199331760406;1.1458239555358887;0.0;0.0;0.0
1771;-0.12883199751377106;0.0019519999623298645;1.0152839422225952;-0.009759999811649323;-0.14932799339294434;1.1419199705123901;1.168125033378601;2.143749952316284;72.65125274658203
1774;0.0;0.0;0.0;0.0331839993596077;-0.1454239934682846;1.1292319297790527;0.0;0.0;0.0
1776;0.0;0.0;0.0;0.04879999905824661;-0.16103999316692352;1.1292319297790527;0.0;0.0;0.0
1778;0.0;0.0;0.0;0.07612799853086472;-0.1727519929409027;1.1419199705123901;0.0;0.0;0.0
1780;-0.06539200246334076;-0.02537599951028824;1.0201640129089355;0.1180959939956665;-0.18055999279022217;1.1175199747085571;2.708125114440918;2.84375;72.79125213623047
1782;0.0;0.0;0.0;0.10735999792814255;-0.1844639927148819;1.1331360340118408;0.0;0.0;0.0
1784;0.0;0.0;0.0;0.08393599838018417;-0.1727519929409027;1.1087360382080078;0.0;0.0;0.0
1786;0.0;0.0;0.0;0.11419199407100677;-0.2000799924135208;1.0970239639282227;0.0;0.0;0.0
1788;-0.018055999651551247;-0.05929199978709221;0.9991799592971802;0.11126399785280228;-0.21569599211215973;1.0970239639282227;5.508125305175781;7.603749752044678;72.72125244140625
1791;0.0;0.0;0.0;0.12590399384498596;-0.2117919921875;1.0970239639282227;0.0;0.0;0.0
1793;0.0;0.0;0.0;0.0878399983048439;-0.24302399158477783;1.1048319339752197;0.0;0.0;0.0
1795;0.0;0.0;0.0;0.09564799815416336;-0.21569599211215973;1.1087360382080078;0.0;0.0;0.0
1797;-0.020495999604463577;-0.0773480013012886;0.9860039949417114;0.12199999392032623;-0.19227199256420135;1.1048319339752197;9.848124504089355;13.833749771118164;73.00125122070312
1799;0.0;0.0;0.0;0.13371199369430542;-0.19617599248886108;1.0931199789047241;0.0;0.0;0.0
1801;0.0;0.0;0.0;0.09955199807882309;-0.1727519929409027;1.1214239597320557;0.0;0.0;0.0
1803;0.0;0.0;0.0;0.11419199407100677;-0.18836799263954163;1.1175199747085571;0.0;0.0;0.0
1805;-0.019763998687267303;-0.05831599980592728;0.9916160106658936;0.1180959939956665;-0.1844639927148819;1.0892159938812256;13.068124771118164;17.82375144958496;74.40125274658203
1808;0.0;0.0;0.0;0.10735999792814255;-0.18836799263954163;1.1009279489517212;0.0;0.0;0.0
1810;0.0;0.0;0.0;0.11419199407100677;-0.20398399233818054;1.0843359231948853;0.0;0.0;0.0
1812;0.0;0.0;0.0;0.13371199369430542;-0.18836799263954163;1.0843359231948853;0.0;0.0;0.0
1814;0.0058559998869895935;-0.05538799986243248;0.9674599766731262;0.13371199369430542;-0.17665599286556244;1.0599359273910522;14.118124961853027;19.7137508392334;76.15125274658203
1816;0.0;0.0;0.0;0.16884799301624298;-0.19617599248886108;1.0648159980773926;0.0;0.0;0.0
1818;0.0;0.0;0.0;0.18836799263954163;-0.16103999316692352;1.0726239681243896;0.0;0.0;0.0
1820;0.0;0.0;0.0;0.18055999279022217;-0.1571359932422638;1.0687199831008911;0.0;0.0;0.0
1822;0.050995998084545135;-0.03660000115633011;0.9537959694862366;0.19617599248886108;-0.1571359932422638;1.0687199831008911;13.558124542236328;20.973751068115234;76.92124938964844
1825;0.0;0.0;0.0;0.2235039919614792;-0.1454239934682846;1.0599359273910522;0.0;0.0;0.0
1827;0.0;0.0;0.0;0.23521599173545837;-0.16884799301624298;1.0843359231948853;0.0;0.0;0.0
1829;0.0;0.0;0.0;0.24692799150943756;-0.1454239934682846;1.0599359273910522;0.0;0.0;0.0
1831;0.11541199684143066;-0.024643998593091965;0.9576999545097351;0.25863999128341675;-0.1454239934682846;1.0892159938812256;10.618124961853027;20.34375;77.06124877929688
1833;0.0;0.0;0.0;0.28596800565719604;-0.14932799339294434;1.0892159938812256;0.0;0.0;0.0
1835;0.0;0.0;0.0;0.2820639908313751;-0.16884799301624298;1.0843359231948853;0.0;0.0;0.0
1837;0.0;0.0;0.0;0.29767999053001404;-0.14932799339294434;1.0765279531478882;0.0;0.0;0.0
1839;0.1576239913702011;-0.030988000333309174;0.9616039991378784;0.2937760055065155;-0.16494399309158325;1.0931199789047241;5.928124904632568;19.293750762939453;75.66124725341797
1842;0.0;0.0;0.0;0.3093920052051544;-0.18055999279022217;1.0931199789047241;0.0;0.0;0.0
1844;0.0;0.0;0.0;0.3211039900779724;-0.16494399309158325;1.0726239681243896;0.0;0.0;0.0
1846;0.0;0.0;0.0;0.32891198992729187;-0.18055999279022217;1.0892159938812256;0.0;0.0;0.0
1848;0.19593200087547302;-0.028547998517751694;0.9659959673881531;0.35233598947525024;-0.18055999279022217;1.0726239681243896;2.218125104904175;15.233750343322754;73.21125030517578
1850;0.0;0.0;0.0;0.3718560039997101;-0.1454239934682846;1.0931199789047241;0.0;0.0;0.0
1852;0.0;0.0;0.0;0.3533119857311249;-0.17665599286556244;1.1136159896850586;0.0;0.0;0.0
1854;0.0;0.0;0.0;0.3640480041503906;-0.18836799263954163;1.1009279489517212;0.0;0.0;0.0
1856;0.23131199181079865;-0.04196799919009209;0.9735599756240845;0.37966400384902954;-0.19617599248886108;1.0970239639282227;1.0981249809265137;4.523749828338623;71.1812515258789
1859;0.0;0.0;0.0;0.3835679888725281;-0.21959999203681946;1.1009279489517212;0.0;0.0;0.0
1861;0.0;0.0;0.0;0.3835679888725281;-0.2117919921875;1.1087360382080078;0.0;0.0;0.0
1863;0.0;0.0;0.0;0.3572160005569458;-0.2235039919614792;1.1009279489517212;0.0;0.0;0.0
1865;0.24180398881435394;-0.0697840005159378;0.9845399856567383;0.37966400384902954;-0.19617599248886108;1.1253279447555542;0.328125;-7.236250400543213;68.52124786376953
1867;0.0;0.0;0.0;0.39430397748947144;-0.19227199256420135;1.0970239639282227;0.0;0.0;0.0
1869;0.0;0.0;0.0;0.4684799909591675;-0.2235039919614792;1.1048319339752197;0.0;0.0;0.0
1871;0.0;0.0;0.0;0.5114240050315857;-0.2547360062599182;1.0970239639282227;0.0;0.0;0.0
1873;0.3311080038547516;-0.08173999935388565;0.9872239828109741;0.5270400047302246;-0.23131199181079865;1.1048319339752197;-1.1418750286102295;-15.916250228881836;66.14125061035156
1876;0.0;0.0;0.0;0.5036159753799438;-0.21959999203681946;1.0892159938812256;0.0;0.0;0.0
1878;0.0;0.0;0.0;0.5231360197067261;-0.2391199916601181;1.0804319381713867;0.0;0.0;0.0
1880;0.0;0.0;0.0;0.4840959906578064;-0.26254400610923767;1.0892159938812256;0.0;0.0;0.0
1882;0.39064398407936096;-0.10735999792814255;0.9686799645423889;0.5231360197067261;-0.2235039919614792;1.0892159938812256;-1.9118750095367432;-19.136249542236328;66.14125061035156
1884;0.0;0.0;0.0;0.5553439855575562;-0.2664479911327362;1.0804319381713867;0.0;0.0;0.0
1886;0.0;0.0;0.0;0.6021919846534729;-0.25863999128341675;1.0404160022735596;0.0;0.0;0.0
1888;0.0;0.0;0.0;0.6207360029220581;-0.28596800565719604;1.0687199831008911;0.0;0.0;0.0
1891;0.4706760048866272;-0.12956400215625763;0.9491599798202515;0.6753919720649719;-0.27425599098205566;1.0843359231948853;-0.861875057220459;-19.346248626708984;63.2712516784668
1893;0.0;0.0;0.0;0.6753919720649719;-0.2781600058078766;1.0726239681243896;0.0;0.0;0.0
1895;0.0;0.0;0.0;0.6675840020179749;-0.22740799188613892;1.0599359273910522;0.0;0.0;0.0
1897;0.0;0.0;0.0;0.7105280160903931;-0.2664479911327362;1.0687199831008911;0.0;0.0;0.0
1899;0.5494880080223083;-0.13102799654006958;0.9430599808692932;0.6988160014152527;-0.25863999128341675;1.0892159938812256;0.2581250071525574;-16.126249313354492;60.681251525878906
1901;0.0;0.0;0.0;0.7212640047073364;-0.2664479911327362;1.0726239681243896;0.0;0.0;0.0
1903;0.0;0.0;0.0;0.7134559750556946;-0.26254400610923767;1.0726239681243896;0.0;0.0;0.0
1905;0.0;0.0;0.0;0.732975959777832;-0.2664479911327362;1.0892159938812256;0.0;0.0;0.0
1908;0.6097559928894043;-0.13249199092388153;0.961359977722168;0.7563999891281128;-0.2508319914340973;1.0970239639282227;-0.2318750023841858;-11.366250038146973;57.39125061035156
1910;0.0;0.0;0.0;0.7642079591751099;-0.2781600058078766;1.0931199789047241;0.0;0.0;0.0
1912;0.0;0.0;0.0;0.8032479882240295;-0.2547360062599182;1.0765279531478882;0.0;0.0;0.0
1914;0.0;0.0;0.0;0.8461920022964478;-0.25863999128341675;1.0892159938812256;0.0;0.0;0.0
1916;0.6746599674224854;-0.13176000118255615;0.9628239870071411;0.8647359609603882;-0.2664479911327362;1.0482239723205566;-1.70187509059906;-9.336250305175781;54.381248474121094
1918;0.0;0.0;0.0;0.8803519606590271;-0.2898719906806946;1.085312008857727;0.0;0.0;0.0
1920;0.0;0.0;0.0;0.888159990310669;-0.2820639908313751;1.0726239681243896;0.0;0.0;0.0
1922;0.0;0.0;0.0;0.8920639753341675;-0.2898719906806946;1.0843359231948853;0.0;0.0;0.0
1925;0.7649399638175964;-0.1512800008058548;0.9594079852104187;0.9154880046844482;-0.2937760055065155;1.0687199831008911;-3.241874933242798;-7.65625;50.881248474121094
1927;0.0;0.0;0.0;0.9350079894065857;-0.3172000050544739;1.0726239681243896;0.0;0.0;0.0
1929;0.0;0.0;0.0;0.9545279741287231;-0.3093920052051544;1.0726239681243896;0.0;0.0;0.0
1931;0.0;0.0;0.0;0.9740479588508606;-0.32500800490379333;1.0804319381713867;0.0;0.0;0.0
1933;0.8244760036468506;-0.1722639948129654;0.9589200019836426;0.9584319591522217;-0.3093920052051544;1.0892159938812256;-4.501874923706055;-4.226250171661377;45.841251373291016
1935;0.0;0.0;0.0;0.9974719882011414;-0.3484320044517517;1.0843359231948853;0.0;0.0;0.0
1937;0.0;0.0;0.0;0.9974719882011414;-0.3328160047531128;1.0892159938812256;0.0;0.0;0.0
1940;0.0;0.0;0.0;1.0326080322265625;-0.3172000050544739;1.0648159980773926;0.0;0.0;0.0
1942;0.8796199560165405;-0.1903200000524521;0.9681919813156128;1.0169919729232788;-0.34062400460243225;1.1009279489517212;-5.831874847412109;-0.65625;39.821250915527344
1944;0.0;0.0;0.0;1.0482239723205566;-0.3328160047531128;1.0843359231948853;0.0;0.0;0.0
1946;0.0;0.0;0.0;1.0599359273910522;-0.3445279896259308;1.1087360382080078;0.0;0.0;0.0
1948;0.0;0.0;0.0;1.036512017250061;-0.3328160047531128;1.0843359231948853;0.0;0.0;0.0
1950;0.9130479693412781;-0.20617999136447906;0.9840520024299622;1.0482239723205566;-0.3601439893245697;1.1126400232315063;-7.021874904632568;1.7937500476837158;33.17124938964844
1952;0.0;0.0;0.0;1.0208959579467773;-0.35624000430107117;1.1175199747085571;0.0;0.0;0.0
1954;0.0;0.0;0.0;1.0638400316238403;-0.3718560039997101;1.1370400190353394;0.0;0.0;0.0
1956;0.0;0.0;0.0;1.09116792678833;-0.3835679888725281;1.1292319297790527;0.0;0.0;0.0
1959;0.9359839558601379;-0.23131199181079865;0.9967399835586548;1.0560319423675537;-0.37966400384902954;1.1331360340118408;-7.651875019073486;2.4937500953674316;25.471250534057617
1961;0.0;0.0;0.0;1.0872639417648315;-0.3718560039997101;1.1087360382080078;0.0;0.0;0.0
1963;0.0;0.0;0.0;1.0560319423675537;-0.3835679888725281;1.1331360340118408;0.0;0.0;0.0
1965;0.0;0.0;0.0;1.0560319423675537;-0.39528000354766846;1.1214239597320557;0.0;0.0;0.0
1967;0.936959981918335;-0.24473199248313904;1.0030839443206787;1.0638400316238403;-0.387472003698349;1.1087360382080078;-7.231874942779541;0.8837500214576721;18.471250534057617
1969;0.0;0.0;0.0;1.0648159980773926;-0.387472003698349;1.1048319339752197;0.0;0.0;0.0
1971;0.0;0.0;0.0;1.0570080280303955;-0.39137598872184753;1.1292319297790527;0.0;0.0;0.0
1973;0.0;0.0;0.0;1.0765279531478882;-0.4030880033969879;1.1253279447555542;0.0;0.0;0.0
1976;0.9418399930000305;-0.2593719959259033;1.0011320114135742;1.115567922592163;-0.387472003698349;1.1214239597320557;-5.481874942779541;-3.3162500858306885;10.211250305175781
1978;0.0;0.0;0.0;1.0531039237976074;-0.399183988571167;1.1253279447555542;0.0;0.0;0.0
1980;0.0;0.0;0.0;1.0804319381713867;-0.41870400309562683;1.1253279447555542;0.0;0.0;0.0
1982;0.0;0.0;0.0;1.0882400274276733;-0.4147999882698059;1.1214239597320557;0.0;0.0;0.0
1984;0.9596520066261292;-0.27498799562454224;1.002351999282837;1.107759952545166;-0.4421280026435852;1.1175199747085571;-3.661875009536743;-7.516250133514404;1.6012500524520874
1986;0.0;0.0;0.0;1.083359956741333;-0.4108960032463074;1.1331360340118408;0.0;0.0;0.0
1988;0.0;0.0;0.0;1.0794559717178345;-0.42260798811912537;1.1087360382080078;0.0;0.0;0.0
1990;0.0;0.0;0.0;1.1028800010681152;-0.4265120029449463;1.1214239597320557;0.0;0.0;0.0
1993;0.9645319581031799;-0.2820639908313751;1.0016199350357056;1.0794559717178345;-0.4147999882698059;1.1175199747085571;-2.051874876022339;-10.876250267028809;-7.918749809265137
1995;0.0;0.0;0.0;1.09116792678833;-0.40699198842048645;1.1136159896850586;0.0;0.0;0.0
1997;0.0;0.0;0.0;1.083359956741333;-0.4030880033969879;1.1292319297790527;0.0;0.0;0.0
1999;0.0;0.0;0.0;1.0794559717178345;-0.41870400309562683;1.1214239597320557;0.0;0.0;0.0
2001;0.9513559937477112;-0.2669360041618347;1.0043039321899414;1.0326080322265625;-0.4147999882698059;1.1214239597320557;-0.861875057220459;-13.81624984741211;-18.068750381469727
2003;0.0;0.0;0.0;1.0482239723205566;-0.3640480041503906;1.1214239597320557;0.0;0.0;0.0
2005;0.0;0.0;0.0;1.0404160022735596;-0.39528000354766846;1.1253279447555542;0.0;0.0;0.0
2007;0.0;0.0;0.0;1.0404160022735596;-0.3757599890232086;1.1292319297790527;0.0;0.0;0.0
2010;0.924515962600708;-0.2508319914340973;1.0069879293441772;1.0208959579467773;-0.36795198917388916;1.1497279405593872;-0.2318750023841858;-16.47624969482422;-27.518749237060547
2012;0.0;0.0;0.0;1.0091840028762817;-0.3835679888725281;1.1458239555358887;0.0;0.0;0.0
2014;0.0;0.0;0.0;1.0013760328292847;-0.37966400384902954;1.1087360382080078;0.0;0.0;0.0
2016;0.0;0.0;0.0;1.0013760328292847;-0.3757599890232086;1.1214239597320557;0.0;0.0;0.0
2018;0.8964560031890869;-0.236191987991333;1.007964015007019;0.9896639585494995;-0.3601439893245697;1.1136159896850586;-0.2318750023841858;-18.296249389648438;-35.498748779296875
2020;0.0;0.0;0.0;0.9974719882011414;-0.3640480041503906;1.1087360382080078;0.0;0.0;0.0
2022;0.0;0.0;0.0;0.985759973526001;-0.36795198917388916;1.1136159896850586;0.0;0.0;0.0
2024;0.0;0.0;0.0;0.9584319591522217;-0.35233598947525024;1.1253279447555542;0.0;0.0;0.0
2027;0.8676639795303345;-0.22081999480724335;0.9962520003318787;0.9779520034790039;-0.3601439893245697;1.0970239639282227;0.048124998807907104;-17.806249618530273;-41.868751525878906
2029;0.0;0.0;0.0;0.9701439738273621;-0.3484320044517517;1.1087360382080078;0.0;0.0;0.0
2031;0.0;0.0;0.0;0.9428159594535828;-0.35624000430107117;1.0804319381713867;0.0;0.0;0.0
2033;0.0;0.0;0.0;0.9467200040817261;-0.3601439893245697;1.1048319339752197;0.0;0.0;0.0
2035;0.8225240111351013;-0.21203599870204926;0.9921039938926697;0.9271999597549438;-0.33671998977661133;1.0970239639282227;0.46812501549720764;-14.376250267028809;-47.60874938964844
2037;0.0;0.0;0.0;0.9086560010910034;-0.3640480041503906;1.1458239555358887;0.0;0.0;0.0
2039;0.0;0.0;0.0;0.8735199570655823;-0.29767999053001404;1.1009279489517212;0.0;0.0;0.0
2041;0.0;0.0;0.0;0.8930400013923645;-0.3484320044517517;1.0970239639282227;0.0;0.0;0.0
2044;0.7712839841842651;-0.19764000177383423;0.9906399846076965;0.8666880130767822;-0.32891198992729187;1.1214239597320557;0.18812501430511475;-8.986249923706055;-53.278751373291016
2046;0.0;0.0;0.0;0.84716796875;-0.32500800490379333;1.1214239597320557;0.0;0.0;0.0
2048;0.0;0.0;0.0;0.8042240142822266;-0.3172000050544739;1.0970239639282227;0.0;0.0;0.0
2050;0.0;0.0;0.0;0.7729920148849487;-0.32891198992729187;1.0970239639282227;0.0;0.0;0.0
2052;0.7032079696655273;-0.18690399825572968;0.9830759763717651;0.7768959999084473;-0.29767999053001404;1.1009279489517212;0.18812501430511475;-4.296250343322754;-57.89875030517578
2054;0.0;0.0;0.0;0.7563999891281128;-0.31329599022865295;1.1136159896850586;0.0;0.0;0.0
2056;0.0;0.0;0.0;0.7407839894294739;-0.28596800565719604;1.1214239597320557;0.0;0.0;0.0
2059;0.0;0.0;0.0;0.7017439603805542;-0.3211039900779724;1.0892159938812256;0.0;0.0;0.0
2061;0.607804000377655;-0.17348399758338928;0.9789279699325562;0.6900320053100586;-0.3093920052051544;1.0804319381713867;0.18812501430511475;-2.1262500286102295;-62.938751220703125
2063;0.0;0.0;0.0;0.6509919762611389;-0.3054879903793335;1.1048319339752197;0.0;0.0;0.0
2065;0.0;0.0;0.0;0.6197599768638611;-0.3054879903793335;1.1009279489517212;0.0;0.0;0.0
2067;0.0;0.0;0.0;0.5856000185012817;-0.28596800565719604;1.1009279489517212;0.0;0.0;0.0
2069;0.5041040182113647;-0.1495719999074936;0.9811239838600159;0.5465599894523621;-0.2664479911327362;1.1009279489517212;-0.5818750262260437;-2.6862499713897705;-67.41874694824219
2071;0.0;0.0;0.0;0.5543680191040039;-0.26254400610923767;1.1087360382080078;0.0;0.0;0.0
2073;0.0;0.0;0.0;0.5543680191040039;-0.24692799150943756;1.1136159896850586;0.0;0.0;0.0
2075;0.0;0.0;0.0;0.5153279900550842;-0.2508319914340973;1.1087360382080078;0.0;0.0;0.0
2078;0.41870400309562683;-0.1210239976644516;1.0001559257507324;0.48019200563430786;-0.25863999128341675;1.1214239597320557;-3.101874828338623;-5.486250400543213;-70.63874816894531
2080;0.0;0.0;0.0;0.48019200563430786;-0.23131199181079865;1.1253279447555542;0.0;0.0;0.0
2082;0.0;0.0;0.0;0.472383975982666;-0.24302399158477783;1.1331360340118408;0.0;0.0;0.0
2084;0.0;0.0;0.0;0.460671991109848;-0.24692799150943756;1.1370400190353394;0.0;0.0;0.0
2086;0.34574800729751587;-0.10565199702978134;1.006011962890625;0.4333440065383911;-0.26254400610923767;1.1214239597320557;-5.831874847412109;-9.9662504196167;-72.66874694824219
2088;0.0;0.0;0.0;0.4138239920139313;-0.24302399158477783;1.1253279447555542;0.0;0.0;0.0
2090;0.0;0.0;0.0;0.3903999924659729;-0.2235039919614792;1.1253279447555542;0.0;0.0;0.0
2092;0.0;0.0;0.0;0.4138239920139313;-0.2508319914340973;1.1536319255828857;0.0;0.0;0.0
2095;0.293287992477417;-0.10979999601840973;1.0104039907455444;0.39820799231529236;-0.26254400610923767;1.1292319297790527;-7.301875114440918;-14.516250610351562;-74.83875274658203
2097;0.0;0.0;0.0;0.37088000774383545;-0.22740799188613892;1.1419199705123901;0.0;0.0;0.0
2099;0.0;0.0;0.0;0.35624000430107117;-0.23521599173545837;1.1419199705123901;0.0;0.0;0.0
2101;0.0;0.0;0.0;0.3172000050544739;-0.2508319914340973;1.1419199705123901;0.0;0.0;0.0
2103;0.23131199181079865;-0.10979999601840973;1.0201640129089355;0.32500800490379333;-0.2547360062599182;1.1419199705123901;-7.931874752044678;-17.386249542236328;-77.14875030517578
2105;0.0;0.0;0.0;0.2898719906806946;-0.26254400610923767;1.1419199705123901;0.0;0.0;0.0
2107;0.0;0.0;0.0;0.27425599098205566;-0.26254400610923767;1.1536319255828857;0.0;0.0;0.0
2110;0.0;0.0;0.0;0.27425599098205566;-0.2547360062599182;1.1614400148391724;0.0;0.0;0.0
2112;0.1617719978094101;-0.10931199789047241;1.034071922302246;0.26254400610923767;-0.22740799188613892;1.1458239555358887;-7.581874847412109;-19.206249237060547;-78.26875305175781
2114;0.0;0.0;0.0;0.2547360062599182;-0.2391199916601181;1.1497279405593872;0.0;0.0;0.0
2116;0.0;0.0;0.0;0.23521599173545837;-0.2508319914340973;1.1458239555358887;0.0;0.0;0.0
2118;0.0;0.0;0.0;0.21569599211215973;-0.23131199181079865;1.1497279405593872;0.0;0.0;0.0
2120;0.10345599800348282;-0.10516399890184402;1.0296800136566162;0.2000799924135208;-0.2508319914340973;1.1497279405593872;-6.111875057220459;-19.97624969482422;-77.35874938964844
2122;0.0;0.0;0.0;0.2000799924135208;-0.22740799188613892;1.1136159896850586;0.0;0.0;0.0
2124;0.0;0.0;0.0;0.22740799188613892;-0.2547360062599182;1.1136159896850586;0.0;0.0;0.0
2127;0.0;0.0;0.0;0.14151999354362488;-0.24302399158477783;1.1048319339752197;0.0;0.0;0.0
2129;0.0605119988322258;-0.1012599989771843;1.006500005722046;0.16103999316692352;-0.23521599173545837;1.1087360382080078;-3.9418749809265137;-17.666250228881836;-76.72875213623047
2131;0.0;0.0;0.0;0.1454239934682846;-0.2508319914340973;1.1136159896850586;0.0;0.0;0.0
2133;0.0;0.0;0.0;0.12590399384498596;-0.22740799188613892;1.1009279489517212;0.0;0.0;0.0
2135;0.0;0.0;0.0;0.13761599361896515;-0.19227199256420135;1.1048319339752197;0.0;0.0;0.0
2137;0.01634800061583519;-0.08393599838018417;0.9962520003318787;0.12590399384498596;-0.18055999279022217;1.1136159896850586;-1.5618749856948853;-13.4662504196167;-76.93875122070312
2139;0.0;0.0;0.0;0.12199999392032623;-0.17665599286556244;1.1214239597320557;0.0;0.0;0.0
2141;0.0;0.0;0.0;0.09174399822950363;-0.16884799301624298;1.1370400190353394;0.0;0.0;0.0
2144;0.0;0.0;0.0;0.10247999429702759;-0.16494399309158325;1.1214239597320557;0.0;0.0;0.0
2146;-0.02537599951028824;-0.040991999208927155;0.9950319528579712;0.06831999868154526;-0.1727519929409027;1.0931199789047241;-0.5118750333786011;-10.24625015258789;-77.07875061035156
2148;0.0;0.0;0.0;0.06831999868154526;-0.16494399309158325;1.1175199747085571;0.0;0.0;0.0
2150;0.0;0.0;0.0;0.0605119988322258;-0.16884799301624298;1.0931199789047241;0.0;0.0;0.0
2152;0.0;0.0;0.0;0.029279999434947968;-0.16103999316692352;1.0687199831008911;0.0;0.0;0.0
2154;-0.08051999658346176;-0.01781199872493744;0.9698999524116516;-0.02147199958562851;-0.1298079937696457;1.085312008857727;0.048124998807907104;-10.24625015258789;-76.51875305175781
2156;0.0;0.0;0.0;-0.013663999736309052;-0.13371199369430542;1.0560319423675537;0.0;0.0;0.0
2158;0.0;0.0;0.0;-0.029279999434947968;-0.10247999429702759;1.0804319381713867;0.0;0.0;0.0
2161;0.0;0.0;0.0;-0.029279999434947968;-0.09857599437236786;1.0687199831008911;0.0;0.0;0.0
2163;-0.15933199226856232;0.019276000559329987;0.9552599787712097;-0.0878399983048439;-0.09857599437236786;1.0931199789047241;0.8181250095367432;-15.426250457763672;-75.95874786376953
2165;0.0;0.0;0.0;-0.06831999868154526;-0.11028799414634705;1.0843359231948853;0.0;0.0;0.0
2167;0.0;0.0;0.0;-0.07612799853086472;-0.09467199444770813;1.0599359273910522;0.0;0.0;0.0
2169;0.0;0.0;0.0;-0.07612799853086472;-0.07515199482440948;1.0404160022735596;0.0;0.0;0.0
2171;-0.19519999623298645;0.03635599836707115;0.9472079873085022;-0.09955199807882309;-0.11028799414634705;1.0560319423675537;-0.02187499962747097;-22.636249542236328;-76.16874694824219
2173;0.0;0.0;0.0;-0.09564799815416336;-0.09857599437236786;1.044319987297058;0.0;0.0;0.0
2175;0.0;0.0;0.0;-0.11907199770212173;-0.10638399422168732;1.0726239681243896;0.0;0.0;0.0
2178;0.0;0.0;0.0;-0.1298079937696457;-0.09467199444770813;1.0521279573440552;0.0;0.0;0.0
2180;-0.2357039898633957;0.044652000069618225;0.9396439790725708;-0.12297599762678146;-0.09467199444770813;1.0804319381713867;-2.471874952316284;-27.60624885559082;-74.34874725341797
2182;0.0;0.0;0.0;-0.14151999354362488;-0.07515199482440948;1.0599359273910522;0.0;0.0;0.0
2184;0.0;0.0;0.0;-0.1454239934682846;-0.0907679945230484;1.0804319381713867;0.0;0.0;0.0
2186;0.0;0.0;0.0;-0.14932799339294434;-0.12590399384498596;1.0804319381713867;0.0;0.0;0.0
2188;-0.2757200002670288;0.039772000163793564;0.9506239891052246;-0.18055999279022217;-0.07905599474906921;1.0892159938812256;-6.461874961853027;-29.216249465942383;-71.33875274658203
2190;0.0;0.0;0.0;-0.2117919921875;-0.08295999467372894;1.0843359231948853;0.0;0.0;0.0
2192;0.0;0.0;0.0;-0.20788799226284027;-0.10638399422168732;1.0843359231948853;0.0;0.0;0.0
2195;0.0;0.0;0.0;-0.2235039919614792;-0.12199999392032623;1.085312008857727;0.0;0.0;0.0
2197;-0.3350119888782501;0.02025200054049492;0.9591639637947083;-0.24302399158477783;-0.14151999354362488;1.0687199831008911;-11.151875495910645;-26.90625;-67.20874786376953
2199;0.0;0.0;0.0;-0.23131199181079865;-0.1298079937696457;1.0931199789047241;0.0;0.0;0.0
2201;0.0;0.0;0.0;-0.23521599173545837;-0.12199999392032623;1.1175199747085571;0.0;0.0;0.0
2203;0.0;0.0;0.0;-0.24302399158477783;-0.14151999354362488;1.1331360340118408;0.0;0.0;0.0
2205;-0.36844000220298767;-0.00317199993878603;0.9906399846076965;-0.27425599098205566;-0.11419199407100677;1.1214239597320557;-15.351875305175781;-20.326250076293945;-63.35874938964844
2207;0.0;0.0;0.0;-0.2898719906806946;-0.1727519929409027;1.1331360340118408;0.0;0.0;0.0
2210;0.0;0.0;0.0;-0.3093920052051544;-0.1454239934682846;1.1536319255828857;0.0;0.0;0.0
2212;0.0;0.0;0.0;-0.32891198992729187;-0.11419199407100677;1.1536319255828857;0.0;0.0;0.0
2214;-0.4306599795818329;-0.007319999858736992;1.0250439643859863;-0.3328160047531128;-0.14151999354362488;1.1575360298156738;-17.661874771118164;-11.366250038146973;-56.98875045776367
2216;0.0;0.0;0.0;-0.33671998977661133;-0.14151999354362488;1.1575360298156738;0.0;0.0;0.0
2218;0.0;0.0;0.0;-0.35233598947525024;-0.16494399309158325;1.1575360298156738;0.0;0.0;0.0
2220;0.0;0.0;0.0;-0.36795198917388916;-0.14932799339294434;1.1536319255828857;0.0;0.0;0.0
2222;-0.47384798526763916;-0.018055999651551247;1.0379760265350342;-0.3786879777908325;-0.14932799339294434;1.1575360298156738;-16.121875762939453;-4.226250171661377;-50.19874954223633
2225;0.0;0.0;0.0;-0.37966400384902954;-0.14932799339294434;1.1614400148391724;0.0;0.0;0.0
2226;0.0;0.0;0.0;-0.3718560039997101;-0.1727519929409027;1.1575360298156738;0.0;0.0;0.0
2229;0.0;0.0;0.0;-0.3835679888725281;-0.16884799301624298;1.1497279405593872;0.0;0.0;0.0
2231;-0.5099599957466125;-0.02513200044631958;1.038219928741455;-0.4138239920139313;-0.16884799301624298;1.1702239513397217;-11.291875839233398;1.8637501001358032;-43.618751525878906
2233;0.0;0.0;0.0;-0.42553597688674927;-0.1571359932422638;1.1780319213867188;0.0;0.0;0.0
2235;0.0;0.0;0.0;-0.43724799156188965;-0.16494399309158325;1.1458239555358887;0.0;0.0;0.0
2237;0.0;0.0;0.0;-0.46457600593566895;-0.14151999354362488;1.1614400148391724;0.0;0.0;0.0
2239;-0.5685200095176697;-0.01756799966096878;1.0394400358200073;-0.4684799909591675;-0.14932799339294434;1.1575360298156738;-5.481874942779541;5.993749618530273;-38.01874923706055
2241;0.0;0.0;0.0;-0.47921597957611084;-0.1180959939956665;1.1780319213867188;0.0;0.0;0.0
2243;0.0;0.0;0.0;-0.5065439939498901;-0.12199999392032623;1.1575360298156738;0.0;0.0;0.0
2246;0.0;0.0;0.0;-0.5299679636955261;-0.13371199369430542;1.1536319255828857;0.0;0.0;0.0
2248;-0.6324479579925537;0.0029279999434947968;1.0355359315872192;-0.537775993347168;-0.14932799339294434;1.1370400190353394;-0.861875057220459;6.413749694824219;-32.76874923706055
2250;0.0;0.0;0.0;-0.5533919930458069;-0.10638399422168732;1.1575360298156738;0.0;0.0;0.0
2252;0.0;0.0;0.0;-0.5651040077209473;-0.1298079937696457;1.1331360340118408;0.0;0.0;0.0
2254;0.0;0.0;0.0;-0.6041439771652222;-0.13761599361896515;1.1497279405593872;0.0;0.0;0.0
2256;-0.6963759660720825;0.010979999788105488;1.0247999429702759;-0.5846239924430847;-0.12590399384498596;1.1497279405593872;1.238124966621399;5.923749923706055;-27.238750457763672
2258;0.0;0.0;0.0;-0.6431840062141418;-0.12590399384498596;1.1419199705123901;0.0;0.0;0.0
2260;0.0;0.0;0.0;-0.6090239882469177;-0.14151999354362488;1.1126400232315063;0.0;0.0;0.0
2263;0.0;0.0;0.0;-0.6783199906349182;-0.12590399384498596;1.1292319297790527;0.0;0.0;0.0
2265;-0.7581079602241516;0.01634800061583519;1.0116239786148071;-0.6470879912376404;-0.10638399422168732;1.1253279447555542;0.9581249952316284;7.323750019073486;-21.42875099182129
2267;0.0;0.0;0.0;-0.6744160056114197;-0.09857599437236786;1.1292319297790527;0.0;0.0;0.0
2269;0.0;0.0;0.0;-0.6783199906349182;-0.10638399422168732;1.1048319339752197;0.0;0.0;0.0
2271;0.0;0.0;0.0;-0.709551990032196;-0.12590399384498596;1.1048319339752197;0.0;0.0;0.0
2273;-0.8200839757919312;0.021715998649597168;0.9994239807128906;-0.6783199906349182;-0.11028799414634705;1.1331360340118408;-0.09187500178813934;9.493749618530273;-13.37874984741211
2275;0.0;0.0;0.0;-0.732975959777832;-0.1180959939956665;1.1370400190353394;0.0;0.0;0.0
2277;0.0;0.0;0.0;-0.7173599600791931;-0.07905599474906921;1.1136159896850586;0.0;0.0;0.0
2280;0.0;0.0;0.0;-0.7407839894294739;-0.09467199444770813;1.1048319339752197;0.0;0.0;0.0
2282;-0.8586359620094299;0.030988000333309174;0.9928359985351562;-0.725167989730835;-0.11419199407100677;1.1048319339752197;-0.5118750333786011;11.173749923706055;-3.088750123977661
2284;0.0;0.0;0.0;-0.732975959777832;-0.07905599474906921;1.1136159896850586;0.0;0.0;0.0
2286;0.0;0.0;0.0;-0.7446879744529724;-0.08295999467372894;1.1136159896850586;0.0;0.0;0.0
2288;0.0;0.0;0.0;-0.7056480050086975;-0.0907679945230484;1.1009279489517212;0.0;0.0;0.0
2290;-0.8498519659042358;0.05197199806571007;0.9882000088691711;-0.7017439603805542;-0.05953599885106087;1.1136159896850586;0.2581250071525574;13.203749656677246;9.581250190734863
2292;0.0;0.0;0.0;-0.7134559750556946;-0.10638399422168732;1.0970239639282227;0.0;0.0;0.0
2294;0.0;0.0;0.0;-0.6705119609832764;-0.07905599474906921;1.1009279489517212;0.0;0.0;0.0
2297;0.0;0.0;0.0;-0.6314719915390015;-0.08686399459838867;1.1136159896850586;0.0;0.0;0.0
2299;-0.8061760067939758;0.05904799699783325;0.9840520024299622;-0.6509919762611389;-0.0634399950504303;1.0970239639282227;2.218125104904175;15.233750343322754;23.301250457763672
2301;0.0;0.0;0.0;-0.6285439729690552;-0.07124799489974976;1.1175199747085571;0.0;0.0;0.0
2303;0.0;0.0;0.0;-0.6129279732704163;-0.06734399497509003;1.0804319381713867;0.0;0.0;0.0
2305;0.0;0.0;0.0;-0.5934079885482788;-0.08686399459838867;1.1136159896850586;0.0;0.0;0.0
2307;-0.7402960062026978;0.062463998794555664;0.9830759763717651;-0.5816959738731384;-0.08686399459838867;1.1087360382080078;4.598124980926514;16.423749923706055;35.341251373291016
2310;0.0;0.0;0.0;-0.5777919888496399;-0.08295999467372894;1.1048319339752197;0.0;0.0;0.0
2311;0.0;0.0;0.0;-0.5426560044288635;-0.07124799489974976;1.1009279489517212;0.0;0.0;0.0
2314;0.0;0.0;0.0;-0.5075199604034424;-0.07905599474906921;1.1087360382080078;0.0;0.0;0.0
2316;-0.6700239777565002;0.056120000779628754;0.982587993144989;-0.5270400047302246;-0.07905599474906921;1.1126400232315063;5.928124904632568;17.403751373291016;44.161251068115234
2318;0.0;0.0;0.0;-0.4840959906578064;-0.0907679945230484;1.1175199747085571;0.0;0.0;0.0
2320;0.0;0.0;0.0;-0.4840959906578064;-0.05563199892640114;1.0931199789047241;0.0;0.0;0.0
2322;0.0;0.0;0.0;-0.4684799909591675;-0.0907679945230484;1.0970239639282227;0.0;0.0;0.0
2324;-0.6014599800109863;0.053679998964071274;0.9879559874534607;-0.43724799156188965;-0.07905599474906921;1.1136159896850586;6.278125286102295;18.52375030517578;50.46125030517578
2326;0.0;0.0;0.0;-0.4450559914112091;-0.08295999467372894;1.1214239597320557;0.0;0.0;0.0
2329;0.0;0.0;0.0;-0.3903999924659729;-0.06734399497509003;1.1214239597320557;0.0;0.0;0.0
2331;0.0;0.0;0.0;-0.4021120071411133;-0.07905599474906921;1.1126400232315063;0.0;0.0;0.0
2333;-0.5397279858589172;0.05392399802803993;0.9979599714279175;-0.4021120071411133;-0.06734399497509003;1.1087360382080078;6.068125247955322;18.033750534057617;55.85124969482422
2335;0.0;0.0;0.0;-0.3718560039997101;-0.07124799489974976;1.1087360382080078;0.0;0.0;0.0
2337;0.0;0.0;0.0;-0.3445279896259308;-0.09467199444770813;1.1253279447555542;0.0;0.0;0.0
2339;0.0;0.0;0.0;-0.3328160047531128;-0.07905599474906921;1.1253279447555542;0.0;0.0;0.0
2341;-0.4789719879627228;0.049531999975442886;0.9969840049743652;-0.3211039900779724;-0.08686399459838867;1.1087360382080078;6.69812536239624;17.193750381469727;61.311248779296875
2343;0.0;0.0;0.0;-0.2937760055065155;-0.09857599437236786;1.1136159896850586;0.0;0.0;0.0
2346;0.0;0.0;0.0;-0.28596800565719604;-0.08686399459838867;1.1009279489517212;0.0;0.0;0.0
2348;0.0;0.0;0.0;-0.27035200595855713;-0.07515199482440948;1.1214239597320557;0.0;0.0;0.0
2350;-0.4072359800338745;0.04879999905824661;0.9896639585494995;-0.2664479911327362;-0.07905599474906921;1.1136159896850586;8.728124618530273;16.703750610351562;66.70124816894531
2352;0.0;0.0;0.0;-0.2117919921875;-0.08295999467372894;1.0892159938812256;0.0;0.0;0.0
2354;0.0;0.0;0.0;-0.18836799263954163;-0.0634399950504303;1.0892159938812256;0.0;0.0;0.0
2356;0.0;0.0;0.0;-0.19227199256420135;-0.10247999429702759;1.1048319339752197;0.0;0.0;0.0
2358;-0.33550000190734863;0.0500199981033802;0.9842959642410278;-0.18836799263954163;-0.08686399459838867;1.0765279531478882;11.458125114440918;16.493751525878906;71.46125030517578
2361;0.0;0.0;0.0;-0.13371199369430542;-0.11028799414634705;1.0931199789047241;0.0;0.0;0.0
2363;0.0;0.0;0.0;-0.13859200477600098;-0.10247999429702759;1.0765279531478882;0.0;0.0;0.0
2365;0.0;0.0;0.0;-0.12297599762678146;-0.10638399422168732;1.1087360382080078;0.0;0.0;0.0
