Timestamp(ms);LG-Accel x(g);LG-Accel y(g);LG-Accel z(g);HG-Accel x(g);HG-Accel y(g);HG-Accel z(g);Gyro x(dps);Gyro y(dps);Gyro z(dps)
64;0.0;0.0;0.0;0.14054399728775024;-0.13468798995018005;1.0560319423675537;0.0;0.0;0.0
66;0.0;0.0;0.0;0.13663999736309052;-0.14640000462532043;1.0804319381713867;0.0;0.0;0.0
68;0.0;0.0;0.0;0.11711999773979187;-0.15811198949813843;1.0638400316238403;0.0;0.0;0.0
70;0.0;0.0;0.0;0.12883199751377106;-0.15811198949813843;1.0726239681243896;0.0;0.0;0.0
72;0.0;0.0;0.0;0.12199999392032623;-0.13859200477600098;1.0599359273910522;0.0;0.0;0.0
74;0.0;0.0;0.0;0.14054399728775024;-0.1600639969110489;1.0570080280303955;0.0;0.0;0.0
76;0.0;0.0;0.0;0.1180959939956665;-0.11711999773979187;1.0901919603347778;0.0;0.0;0.0
78;0.0;0.0;0.0;0.12492799758911133;-0.13663999736309052;1.073599934577942;0.0;0.0;0.0
81;0.008051999844610691;-0.004635999910533428;0.9513559937477112;0.12883199751377106;-0.1327359974384308;1.0696959495544434;0.0;0.0;0.0
83;0.0;0.0;0.0;0.1483519971370697;-0.10931199789047241;1.0657919645309448;0.0;0.0;0.0
85;0.0;0.0;0.0;0.11419199407100677;-0.1327359974384308;1.085312008857727;0.0;0.0;0.0
87;0.0;0.0;0.0;0.14054399728775024;-0.11711999773979187;1.0696959495544434;0.0;0.0;0.0
89;0.02122800052165985;0.015615999698638916;0.9569680094718933;0.16787199676036835;-0.11711999773979187;1.073599934577942;0.0;0.0;0.0
91;0.0;0.0;0.0;0.15518400073051453;-0.12492799758911133;1.0745760202407837;0.0;0.0;0.0
93;0.0;0.0;0.0;0.17470400035381317;-0.08979199826717377;1.0862879753112793;0.0;0.0;0.0
96;0.0;0.0;0.0;0.19422399997711182;-0.10150399804115295;1.1028800010681152;0.0;0.0;0.0
98;0.046115998178720474;0.027084000408649445;0.961359977722168;0.1786080002784729;-0.11321599781513214;1.0823839902877808;0.0;0.0;0.0
100;0.0;0.0;0.0;0.19812799990177155;-0.12883199751377106;1.0950720310211182;0.0;0.0;0.0
102;0.0;0.0;0.0;0.22155199944972992;-0.10540799796581268;1.0823839902877808;0.0;0.0;0.0
104;0.0;0.0;0.0;0.1903200000524521;-0.09759999811649323;1.066767930984497;0.0;0.0;0.0
106;0.06954000145196915;0.029279999434947968;0.9450119733810425;0.20203199982643127;-0.08588799834251404;1.0540800094604492;0.0;0.0;0.0
108;0.0;0.0;0.0;0.2332639992237091;-0.10540799796581268;1.0706720352172852;0.0;0.0;0.0
110;0.0;0.0;0.0;0.23716799914836884;-0.10150399804115295;1.0540800094604492;0.0;0.0;0.0
112;0.0;0.0;0.0;0.24887999892234802;-0.08588799834251404;1.0384639501571655;0.0;0.0;0.0
115;0.1163880005478859;0.04513999819755554;0.9281759858131409;0.27620798349380493;-0.08979199826717377;1.0579839944839478;0.0;0.0;0.0
117;0.0;0.0;0.0;0.2840159833431244;-0.04684799909591675;1.0501760244369507;0.0;0.0;0.0
119;0.0;0.0;0.0;0.260591983795166;-0.08588799834251404;1.0784800052642822;0.0;0.0;0.0
121;0.0;0.0;0.0;0.29572799801826477;-0.058559998869895935;1.0501760244369507;0.0;0.0;0.0
123;0.16128399968147278;0.07124799489974976;0.9393999576568604;0.33086398243904114;-0.062463998794555664;1.0745760202407837;-4.388124942779541;11.983124732971191;-3.9025001525878906
125;0.0;0.0;0.0;0.3230559825897217;-0.04294399917125702;1.0706720352172852;0.0;0.0;0.0
127;0.0;0.0;0.0;0.3113439977169037;-0.062463998794555664;1.0501760244369507;0.0;0.0;0.0
130;0.0;0.0;0.0;0.33476799726486206;-0.031231999397277832;1.0628639459609985;0.0;0.0;0.0
132;0.19934800267219543;0.08515600115060806;0.9472079873085022;0.34647998213768005;-0.04684799909591675;1.0784800052642822;-5.228125095367432;10.233124732971191;0.08749999850988388
134;0.0;0.0;0.0;0.3542879819869995;-0.04294399917125702;1.0628639459609985;0.0;0.0;0.0
136;0.0;0.0;0.0;0.36111998558044434;-0.07807999849319458;1.066767930984497;0.0;0.0;0.0
138;0.0;0.0;0.0;0.38844799995422363;-0.0663679987192154;1.042367935180664;0.0;0.0;0.0
140;0.24765999615192413;0.07710400223731995;0.9372040033340454;0.3962559998035431;-0.062463998794555664;1.0384639501571655;-7.538125038146973;7.993124961853027;4.077499866485596
142;0.0;0.0;0.0;0.4079679846763611;-0.07417599856853485;1.0462720394134521;0.0;0.0;0.0
144;0.0;0.0;0.0;0.41577598452568054;-0.07807999849319458;1.0462720394134521;0.0;0.0;0.0
147;0.0;0.0;0.0;0.423583984375;-0.08588799834251404;1.017967939376831;0.0;0.0;0.0
149;0.29646000266075134;0.05538799986243248;0.921343982219696;0.4079679846763611;-0.08588799834251404;1.0462720394134521;-9.778124809265137;7.293124675750732;7.367499828338623
151;0.0;0.0;0.0;0.4391999840736389;-0.10931199789047241;1.0296800136566162;0.0;0.0;0.0
153;0.0;0.0;0.0;0.48214399814605713;-0.08979199826717377;1.0384639501571655;0.0;0.0;0.0
155;0.0;0.0;0.0;0.5016639828681946;-0.1327359974384308;1.0335839986801147;0.0;0.0;0.0
157;0.35989999771118164;0.029279999434947968;0.9071919918060303;0.5485119819641113;-0.1327359974384308;1.0257760286331177;-11.808124542236328;7.853124618530273;7.4375
159;0.0;0.0;0.0;0.5524159669876099;-0.14054399728775024;1.0013760328292847;0.0;0.0;0.0
161;0.0;0.0;0.0;0.5602239966392517;-0.14054399728775024;1.0296800136566162;0.0;0.0;0.0
164;0.0;0.0;0.0;0.5446079969406128;-0.14444799721240997;1.0462720394134521;0.0;0.0;0.0
166;0.42553597688674927;-0.003659999929368496;0.9030439853668213;0.5758399963378906;-0.16787199676036835;1.0501760244369507;-11.948124885559082;10.373125076293945;8.34749984741211
168;0.0;0.0;0.0;0.5953599810600281;-0.1600639969110489;1.0218719244003296;0.0;0.0;0.0
170;0.0;0.0;0.0;0.5992639660835266;-0.16396799683570862;1.042367935180664;0.0;0.0;0.0
172;0.0;0.0;0.0;0.6070719957351685;-0.1756799966096878;1.0374879837036133;0.0;0.0;0.0
174;0.4770199954509735;-0.01781199872493744;0.905239999294281;0.6217119693756104;-0.1600639969110489;1.0462720394134521;-10.758124351501465;13.593124389648438;7.507500171661377
176;0.0;0.0;0.0;0.6031680107116699;-0.12492799758911133;1.0540800094604492;0.0;0.0;0.0
178;0.0;0.0;0.0;0.6568480134010315;-0.15225599706172943;1.0745760202407837;0.0;0.0;0.0
181;0.0;0.0;0.0;0.6451359987258911;-0.11711999773979187;1.0579839944839478;0.0;0.0;0.0
183;0.517524003982544;-0.011711999773979187;0.9345200061798096;0.684175968170166;-0.13663999736309052;1.0706720352172852;-8.098124504089355;16.04312515258789;7.4375
185;0.0;0.0;0.0;0.6685599684715271;-0.1327359974384308;1.042367935180664;0.0;0.0;0.0
187;0.0;0.0;0.0;0.7036960124969482;-0.12492799758911133;1.0628639459609985;0.0;0.0;0.0
189;0.0;0.0;0.0;0.676367998123169;-0.12492799758911133;1.0618879795074463;0.0;0.0;0.0
191;0.5638839602470398;0.0009759999811649323;0.9462319612503052;0.7154079675674438;-0.1483519971370697;1.066767930984497;-5.298125267028809;17.653125762939453;7.647500038146973
193;0.0;0.0;0.0;0.7427359819412231;-0.14054399728775024;1.0784800052642822;0.0;0.0;0.0
195;0.0;0.0;0.0;0.7193120121955872;-0.12492799758911133;1.0862879753112793;0.0;0.0;0.0
198;0.0;0.0;0.0;0.7388319969177246;-0.12883199751377106;1.0950720310211182;0.0;0.0;0.0
200;0.5970680117607117;0.012199999764561653;0.9547719955444336;0.7466399669647217;-0.12492799758911133;1.0901919603347778;-3.0581250190734863;18.143125534057617;7.927499771118164
202;0.0;0.0;0.0;0.7583519816398621;-0.1210239976644516;1.0989760160446167;0.0;0.0;0.0
204;0.0;0.0;0.0;0.750544011592865;-0.10540799796581268;1.0950720310211182;0.0;0.0;0.0
206;0.0;0.0;0.0;0.7466399669647217;-0.1210239976644516;1.0862879753112793;0.0;0.0;0.0
208;0.6348879933357239;0.012931999750435352;0.9647759795188904;0.7349280118942261;-0.14444799721240997;1.0784800052642822;-2.568125009536743;18.913124084472656;8.27750015258789
210;0.0;0.0;0.0;0.7817760109901428;-0.12883199751377106;1.0784800052642822;0.0;0.0;0.0
212;0.0;0.0;0.0;0.7583519816398621;-0.1483519971370697;1.0950720310211182;0.0;0.0;0.0
215;0.0;0.0;0.0;0.7661600112915039;-0.14054399728775024;1.0823839902877808;0.0;0.0;0.0
217;0.6507480144500732;-0.004879999905824661;0.9681919813156128;0.7778719663619995;-0.15615999698638916;1.0989760160446167;-2.9881250858306885;20.873125076293945;8.837499618530273
219;0.0;0.0;0.0;0.7778719663619995;-0.13663999736309052;1.0950720310211182;0.0;0.0;0.0
221;0.0;0.0;0.0;0.7388319969177246;-0.1600639969110489;1.115567922592163;0.0;0.0;0.0
223;0.0;0.0;0.0;0.7700639963150024;-0.17958399653434753;1.0989760160446167;0.0;0.0;0.0
225;0.6326919794082642;-0.02147199958562851;0.9811239838600159;0.7466399669647217;-0.1600639969110489;1.1106879711151123;-3.338125228881836;22.973125457763672;9.257499694824219
227;0.0;0.0;0.0;0.7388319969177246;-0.1756799966096878;1.1350879669189453;0.0;0.0;0.0
229;0.0;0.0;0.0;0.7427359819412231;-0.16396799683570862;1.1633919477462769;0.0;0.0;0.0
232;0.0;0.0;0.0;0.7036960124969482;-0.20691199600696564;1.1350879669189453;0.0;0.0;0.0
234;0.5904799699783325;-0.040748000144958496;1.0187000036239624;0.6880800127983093;-0.20691199600696564;1.1799839735031128;-3.898125171661377;24.373125076293945;9.817500114440918
236;0.0;0.0;0.0;0.6724640130996704;-0.19129599630832672;1.1838879585266113;0.0;0.0;0.0
238;0.0;0.0;0.0;0.6802719831466675;-0.21081599593162537;1.1760799884796143;0.0;0.0;0.0
240;0.0;0.0;0.0;0.6334239840507507;-0.2147199958562851;1.2004799842834473;0.0;0.0;0.0
242;0.5397279858589172;-0.06783200055360794;1.0660359859466553;0.6646559834480286;-0.2147199958562851;1.2326879501342773;-4.388124942779541;23.323123931884766;10.867500305175781
244;0.0;0.0;0.0;0.6100000143051147;-0.19910399615764618;1.2160959243774414;0.0;0.0;0.0
246;0.0;0.0;0.0;0.6178079843521118;-0.23423999547958374;1.2287839651107788;0.0;0.0;0.0
249;0.0;0.0;0.0;0.6256160140037537;-0.23423999547958374;1.2287839651107788;0.0;0.0;0.0
251;0.4997119903564453;-0.10247999429702759;1.1084920167922974;0.6060959696769714;-0.284991979598999;1.2492799758911133;-4.178124904632568;20.033124923706055;12.477499961853027
253;0.0;0.0;0.0;0.5943840146064758;-0.27327999472618103;1.2209759950637817;0.0;0.0;0.0
255;0.0;0.0;0.0;0.6217119693756104;-0.284991979598999;1.2570879459381104;0.0;0.0;0.0
257;0.0;0.0;0.0;0.5982879996299744;-0.2693759799003601;1.2404959201812744;0.0;0.0;0.0
259;0.48677998781204224;-0.1437159925699234;1.1228879690170288;0.6070719957351685;-0.30060797929763794;1.2531839609146118;-2.4981250762939453;15.973125457763672;14.717499732971191
261;0.0;0.0;0.0;0.5758399963378906;-0.29280000925064087;1.2453759908676147;0.0;0.0;0.0
263;0.0;0.0;0.0;0.6100000143051147;-0.30060797929763794;1.2365919351577759;0.0;0.0;0.0
266;0.0;0.0;0.0;0.5992639660835266;-0.3201279938220978;1.2326879501342773;0.0;0.0;0.0
268;0.4672600030899048;-0.17543599009513855;1.1199599504470825;0.5914559960365295;-0.3123199939727783;1.2365919351577759;0.861875057220459;12.263124465942383;16.1875
270;0.0;0.0;0.0;0.5563200116157532;-0.3240320086479187;1.2570879459381104;0.0;0.0;0.0
272;0.0;0.0;0.0;0.5524159669876099;-0.3357439935207367;1.2453759908676147;0.0;0.0;0.0
274;0.0;0.0;0.0;0.5485119819641113;-0.30451199412345886;1.2209759950637817;0.0;0.0;0.0
276;0.4396879971027374;-0.18861199915409088;1.1228879690170288;0.5563200116157532;-0.33183997869491577;1.2492799758911133;4.431874752044678;8.903124809265137;15.137499809265137
279;0.0;0.0;0.0;0.49775999784469604;-0.3201279938220978;1.2248799800872803;0.0;0.0;0.0
280;0.0;0.0;0.0;0.5172799825668335;-0.3357439935207367;1.2648959159851074;0.0;0.0;0.0
283;0.0;0.0;0.0;0.5289919972419739;-0.3240320086479187;1.2609919309616089;0.0;0.0;0.0
285;0.4084559977054596;-0.18763600289821625;1.1319159269332886;0.5328959822654724;-0.3084160089492798;1.2570879459381104;6.531875133514404;4.563124656677246;12.337499618530273
287;0.0;0.0;0.0;0.5172799825668335;-0.3240320086479187;1.2531839609146118;0.0;0.0;0.0
289;0.0;0.0;0.0;0.5055679678916931;-0.31622397899627686;1.2697759866714478;0.0;0.0;0.0
291;0.0;0.0;0.0;0.4899519979953766;-0.3240320086479187;1.2365919351577759;0.0;0.0;0.0
293;0.3850319981575012;-0.18592800199985504;1.1253279447555542;0.47433599829673767;-0.3240320086479187;1.2570879459381104;7.231874942779541;-0.9668750166893005;8.207499504089355
296;0.0;0.0;0.0;0.49775999784469604;-0.33183997869491577;1.2160959243774414;0.0;0.0;0.0
297;0.0;0.0;0.0;0.48604798316955566;-0.3201279938220978;1.2326879501342773;0.0;0.0;0.0
300;0.0;0.0;0.0;0.48214399814605713;-0.3357439935207367;1.2121919393539429;0.0;0.0;0.0
302;0.3577039837837219;-0.1878799945116043;1.099463939666748;0.47043198347091675;-0.3240320086479187;1.2004799842834473;7.301875114440918;-6.07687520980835;3.0974998474121094
304;0.0;0.0;0.0;0.47433599829673767;-0.28889599442481995;1.1877919435501099;0.0;0.0;0.0
306;0.0;0.0;0.0;0.44310399889945984;-0.3123199939727783;1.2082879543304443;0.0;0.0;0.0
308;0.0;0.0;0.0;0.45481598377227783;-0.31622397899627686;1.2043839693069458;0.0;0.0;0.0
310;0.32256799936294556;-0.1803160011768341;1.0772600173950195;0.41967999935150146;-0.3084160089492798;1.1877919435501099;6.951874732971191;-10.13687515258789;-2.7825000286102295
312;0.0;0.0;0.0;0.41967999935150146;-0.28889599442481995;1.1721760034561157;0.0;0.0;0.0
315;0.0;0.0;0.0;0.40406399965286255;-0.284991979598999;1.1760799884796143;0.0;0.0;0.0
317;0.0;0.0;0.0;0.4079679846763611;-0.2967039942741394;1.1877919435501099;0.0;0.0;0.0
319;0.29304400086402893;-0.15737999975681305;1.0657919645309448;0.41577598452568054;-0.28889599442481995;1.1965759992599487;6.181874752044678;-13.426875114440918;-7.892499923706055
321;0.0;0.0;0.0;0.37673598527908325;-0.27718400955200195;1.1760799884796143;0.0;0.0;0.0
323;0.0;0.0;0.0;0.38844799995422363;-0.2654719948768616;1.1965759992599487;0.0;0.0;0.0
325;0.0;0.0;0.0;0.3689279854297638;-0.24985599517822266;1.1516799926757812;0.0;0.0;0.0
327;0.26962000131607056;-0.12834399938583374;1.0565199851989746;0.39235198497772217;-0.24595199525356293;1.1838879585266113;4.571875095367432;-16.36687469482422;-10.762499809265137
330;0.0;0.0;0.0;0.3669759929180145;-0.27718400955200195;1.1868159770965576;0.0;0.0;0.0
332;0.0;0.0;0.0;0.38551998138427734;-0.3123199939727783;1.1136159896850586;0.0;0.0;0.0
334;0.0;0.0;0.0;0.3699039816856384;-0.1756799966096878;1.182911992073059;0.0;0.0;0.0
336;0.24521999061107635;-0.11443600058555603;1.034071922302246;0.31622397899627686;-0.230335995554924;1.1790080070495605;3.5218749046325684;-18.606874465942383;-10.90250015258789
338;0.0;0.0;0.0;0.35819199681282043;-0.2537599802017212;1.146799921989441;0.0;0.0;0.0
340;0.0;0.0;0.0;0.34355199337005615;-0.19910399615764618;1.150704026222229;0.0;0.0;0.0
342;0.0;0.0;0.0;0.35916799306869507;-0.22252799570560455;1.1145919561386108;0.0;0.0;0.0
344;0.22081999480724335;-0.09296400099992752;1.028216004371643;0.3357439935207367;-0.21081599593162537;1.1184959411621094;1.5618749856948853;-20.986875534057617;-10.202500343322754
346;0.0;0.0;0.0;0.30353599786758423;-0.2030079960823059;1.1350879669189453;0.0;0.0;0.0
349;0.0;0.0;0.0;0.29572799801826477;-0.22643199563026428;1.1272799968719482;0.0;0.0;0.0
351;0.0;0.0;0.0;0.2996319830417633;-0.23814399540424347;1.115567922592163;0.0;0.0;0.0
353;0.1820240020751953;-0.09101200103759766;1.0001559257507324;0.2723039984703064;-0.23423999547958374;1.1028800010681152;1.211875081062317;-23.086875915527344;-7.472500324249268
355;0.0;0.0;0.0;0.2723039984703064;-0.22643199563026428;1.1067839860916138;0.0;0.0;0.0
357;0.0;0.0;0.0;0.2683999836444855;-0.23814399540424347;1.0862879753112793;0.0;0.0;0.0
359;0.0;0.0;0.0;0.2723039984703064;-0.22252799570560455;1.0823839902877808;0.0;0.0;0.0
361;0.14932799339294434;-0.10369999706745148;0.9667279720306396;0.2723039984703064;-0.24985599517822266;1.0501760244369507;2.7518749237060547;-25.11687469482422;-7.472500324249268
364;0.0;0.0;0.0;0.25278398394584656;-0.24595199525356293;1.09116792678833;0.0;0.0;0.0
366;0.0;0.0;0.0;0.2566879987716675;-0.27327999472618103;1.066767930984497;0.0;0.0;0.0
368;0.0;0.0;0.0;0.2683999836444855;-0.22252799570560455;1.0579839944839478;0.0;0.0;0.0
370;0.13810399174690247;-0.10906799882650375;0.949891984462738;0.25278398394584656;-0.23423999547958374;1.0579839944839478;4.431874752044678;-25.466875076293945;-8.452500343322754
372;0.0;0.0;0.0;0.26449599862098694;-0.24985599517822266;1.0579839944839478;0.0;0.0;0.0
374;0.0;0.0;0.0;0.24887999892234802;-0.22643199563026428;1.0579839944839478;0.0;0.0;0.0
376;0.0;0.0;0.0;0.2840159833431244;-0.21862399578094482;1.0462720394134521;0.0;0.0;0.0
378;0.13834799826145172;-0.09418399631977081;0.9347639679908752;0.2566879987716675;-0.2030079960823059;1.0579839944839478;3.9418749809265137;-24.626874923706055;-9.922499656677246
380;0.0;0.0;0.0;0.24107199907302856;-0.21862399578094482;1.0501760244369507;0.0;0.0;0.0
383;0.0;0.0;0.0;0.260591983795166;-0.22252799570560455;1.0296800136566162;0.0;0.0;0.0
385;0.0;0.0;0.0;0.2566879987716675;-0.2147199958562851;1.0335839986801147;0.0;0.0;0.0
387;0.1332239955663681;-0.08442399650812149;0.9145119786262512;0.2566879987716675;-0.2147199958562851;1.0130879878997803;2.1918749809265137;-23.296875;-9.71250057220459
389;0.0;0.0;0.0;0.2566879987716675;-0.2147199958562851;1.0257760286331177;0.0;0.0;0.0
391;0.0;0.0;0.0;0.24887999892234802;-0.22643199563026428;0.9847840070724487;0.0;0.0;0.0
393;0.0;0.0;0.0;0.25278398394584656;-0.22643199563026428;1.0130879878997803;0.0;0.0;0.0
395;0.12883199751377106;-0.07661599665880203;0.8835240006446838;0.26449599862098694;-0.19910399615764618;0.9847840070724487;1.421875;-21.266876220703125;-12.862500190734863
397;0.0;0.0;0.0;0.27620798349380493;-0.2030079960823059;1.0091840028762817;0.0;0.0;0.0
400;0.0;0.0;0.0;0.2723039984703064;-0.23814399540424347;1.0052800178527832;0.0;0.0;0.0
402;0.0;0.0;0.0;0.26449599862098694;-0.22643199563026428;1.0218719244003296;0.0;0.0;0.0
404;0.12614800035953522;-0.07246799767017365;0.888159990310669;0.205935999751091;-0.17958399653434753;1.0257760286331177;1.6318750381469727;-18.606874465942383;-12.862500190734863
406;0.0;0.0;0.0;0.2176479995250702;-0.19519999623298645;1.042367935180664;0.0;0.0;0.0
408;0.0;0.0;0.0;0.20983999967575073;-0.18348799645900726;1.0384639501571655;0.0;0.0;0.0
410;0.0;0.0;0.0;0.18251200020313263;-0.16787199676036835;1.042367935180664;0.0;0.0;0.0
412;0.08198399841785431;-0.047335997223854065;0.9128040075302124;0.18641600012779236;-0.187391996383667;1.0618879795074463;0.16187499463558197;-16.576875686645508;-12.512499809265137
415;0.0;0.0;0.0;0.18251200020313263;-0.15615999698638916;1.0335839986801147;0.0;0.0;0.0
417;0.0;0.0;0.0;0.1903200000524521;-0.1756799966096878;1.0462720394134521;0.0;0.0;0.0
419;0.0;0.0;0.0;0.17080000042915344;-0.15615999698638916;1.0540800094604492;0.0;0.0;0.0
421;0.044652000069618225;-0.02757199853658676;0.929639995098114;0.1668960005044937;-0.16396799683570862;1.0706720352172852;-2.4281251430511475;-16.50687599182129;-12.022500038146973
423;0.0;0.0;0.0;0.14737600088119507;-0.16396799683570862;1.0862879753112793;0.0;0.0;0.0
425;0.0;0.0;0.0;0.1395680010318756;-0.16396799683570862;1.0540800094604492;0.0;0.0;0.0
427;0.0;0.0;0.0;0.16299200057983398;-0.1756799966096878;1.0706720352172852;0.0;0.0;0.0
429;0.022204000502824783;-0.03367199748754501;0.9506239891052246;0.12785600125789642;-0.18348799645900726;1.0501760244369507;-6.488125324249268;-17.4168758392334;-11.742500305175781
432;0.0;0.0;0.0;0.13176000118255615;-0.2147199958562851;1.0745760202407837;0.0;0.0;0.0
434;0.0;0.0;0.0;0.1239520013332367;-0.187391996383667;1.09116792678833;0.0;0.0;0.0
436;0.0;0.0;0.0;0.11614400148391724;-0.19519999623298645;1.0784800052642822;0.0;0.0;0.0
438;0.0026839999482035637;-0.059779997915029526;0.9545279741287231;0.13566400110721588;-0.2030079960823059;1.0628639459609985;-9.918124198913574;-18.746875762939453;-11.672499656677246
440;0.0;0.0;0.0;0.11321599781513214;-0.2147199958562851;1.0784800052642822;0.0;0.0;0.0
442;0.0;0.0;0.0;0.13176000118255615;-0.23423999547958374;1.0823839902877808;0.0;0.0;0.0
444;0.0;0.0;0.0;0.12004800140857697;-0.23814399540424347;1.0628639459609985;0.0;0.0;0.0
446;-0.003903999924659729;-0.08393599838018417;0.9501360058784485;0.13176000118255615;-0.23814399540424347;1.0618879795074463;-11.458125114440918;-18.816875457763672;-11.672499656677246
449;0.0;0.0;0.0;0.1395680010318756;-0.2576639950275421;1.042367935180664;0.0;0.0;0.0
451;0.0;0.0;0.0;0.14347200095653534;-0.230335995554924;1.066767930984497;0.0;0.0;0.0
453;0.0;0.0;0.0;0.1395680010318756;-0.2537599802017212;1.0501760244369507;0.0;0.0;0.0
455;0.010003999806940556;-0.10247999429702759;0.9318360090255737;0.17080000042915344;-0.23814399540424347;1.0257760286331177;-10.968124389648438;-17.4168758392334;-12.022500038146973
457;0.0;0.0;0.0;0.17080000042915344;-0.23423999547958374;1.0374879837036133;0.0;0.0;0.0
459;0.0;0.0;0.0;0.17080000042915344;-0.2654719948768616;1.0335839986801147;0.0;0.0;0.0
461;0.0;0.0;0.0;0.13176000118255615;-0.23814399540424347;1.0540800094604492;0.0;0.0;0.0
463;0.029279999434947968;-0.10613999515771866;0.9164639711380005;0.15518400073051453;-0.24985599517822266;1.0823839902877808;-8.938124656677246;-13.216875076293945;-12.512499809265137
466;0.0;0.0;0.0;0.13176000118255615;-0.23423999547958374;1.0501760244369507;0.0;0.0;0.0
468;0.0;0.0;0.0;0.1395680010318756;-0.22643199563026428;1.0462720394134521;0.0;0.0;0.0
470;0.0;0.0;0.0;0.10150399804115295;-0.2537599802017212;1.0745760202407837;0.0;0.0;0.0
472;0.008295999839901924;-0.10199199616909027;0.9362279772758484;0.1239520013332367;-0.2420479953289032;1.09116792678833;-6.978125095367432;-7.056875228881836;-13.002500534057617
474;0.0;0.0;0.0;0.0936959981918335;-0.22643199563026428;1.0706720352172852;0.0;0.0;0.0
476;0.0;0.0;0.0;0.10540799796581268;-0.23814399540424347;1.0989760160446167;0.0;0.0;0.0
478;0.0;0.0;0.0;0.08198399841785431;-0.2147199958562851;1.1028800010681152;0.0;0.0;0.0
480;-0.026839999482035637;-0.08735200017690659;0.9555040001869202;0.0936959981918335;-0.22643199563026428;1.0745760202407837;-5.088125228881836;-2.0868749618530273;-13.702500343322754
483;0.0;0.0;0.0;0.08979199826717377;-0.21081599593162537;1.0784800052642822;0.0;0.0;0.0
485;0.0;0.0;0.0;0.03903999924659729;-0.21862399578094482;1.1145919561386108;0.0;0.0;0.0
487;0.0;0.0;0.0;0.03903999924659729;-0.19129599630832672;1.0950720310211182;0.0;0.0;0.0
489;-0.06831999868154526;-0.07197999954223633;0.9752680063247681;0.023423999547958374;-0.19910399615764618;1.1233760118484497;-2.3581252098083496;2.463124990463257;-13.982500076293945
491;0.0;0.0;0.0;0.015615999698638916;-0.19519999623298645;1.1311839818954468;0.0;0.0;0.0
493;0.0;0.0;0.0;-0.015615999698638916;-0.19910399615764618;1.1477760076522827;0.0;0.0;0.0
495;0.0;0.0;0.0;0.003903999924659729;-0.17177599668502808;1.139967918395996;0.0;0.0;0.0
497;-0.12712399661540985;-0.054899998009204865;1.013819932937622;-0.03903999924659729;-0.19519999623298645;1.1477760076522827;0.02187499962747097;5.473124980926514;-12.932499885559082
500;0.0;0.0;0.0;-0.054655998945236206;-0.19129599630832672;1.1760799884796143;0.0;0.0;0.0
502;0.0;0.0;0.0;-0.07807999849319458;-0.19129599630832672;1.1682720184326172;0.0;0.0;0.0
504;0.0;0.0;0.0;-0.0663679987192154;-0.19129599630832672;1.1555839776992798;0.0;0.0;0.0
506;-0.18177999556064606;-0.047335997223854065;1.0457839965820312;-0.0663679987192154;-0.17958399653434753;1.1926720142364502;0.9318750500679016;6.453125;-11.46250057220459
508;0.0;0.0;0.0;-0.10150399804115295;-0.20691199600696564;1.1926720142364502;0.0;0.0;0.0
510;0.0;0.0;0.0;-0.1210239976644516;-0.18348799645900726;1.1721760034561157;0.0;0.0;0.0
512;0.0;0.0;0.0;-0.11321599781513214;-0.18348799645900726;1.2170720100402832;0.0;0.0;0.0
514;-0.23423999547958374;-0.04416399821639061;1.0613999366760254;-0.12492799758911133;-0.1756799966096878;1.2082879543304443;1.3518750667572021;6.313124656677246;-9.432499885559082
517;0.0;0.0;0.0;-0.1903200000524521;-0.15615999698638916;1.2082879543304443;0.0;0.0;0.0
519;0.0;0.0;0.0;-0.22155199944972992;-0.15225599706172943;1.2209759950637817;0.0;0.0;0.0
521;0.0;0.0;0.0;-0.21374399960041046;-0.15615999698638916;1.2365919351577759;0.0;0.0;0.0
523;-0.3264719843864441;-0.029279999434947968;1.0887279510498047;-0.23716799914836884;-0.13663999736309052;1.2326879501342773;1.071874976158142;4.9131245613098145;-8.522500038146973
525;0.0;0.0;0.0;-0.2683999836444855;-0.14444799721240997;1.2121919393539429;0.0;0.0;0.0
527;0.0;0.0;0.0;-0.27620798349380493;-0.14054399728775024;1.2531839609146118;0.0;0.0;0.0
529;0.0;0.0;0.0;-0.2996319830417633;-0.16787199676036835;1.2365919351577759;0.0;0.0;0.0
531;-0.40406399965286255;-0.019276000559329987;1.1089799404144287;-0.29182398319244385;-0.16787199676036835;1.2248799800872803;-1.3081250190734863;2.1131250858306885;-8.802499771118164
534;0.0;0.0;0.0;-0.33086398243904114;-0.12883199751377106;1.2492799758911133;0.0;0.0;0.0
536;0.0;0.0;0.0;-0.350383996963501;-0.14444799721240997;1.2444000244140625;0.0;0.0;0.0
538;0.0;0.0;0.0;-0.3659999966621399;-0.11321599781513214;1.2531839609146118;0.0;0.0;0.0
540;-0.4643319845199585;-0.009271999821066856;1.1380159854888916;-0.350383996963501;-0.15225599706172943;1.2775839567184448;-5.928124904632568;-1.106874942779541;-9.012499809265137
542;0.0;0.0;0.0;-0.38942399621009827;-0.1327359974384308;1.2932000160217285;0.0;0.0;0.0
544;0.0;0.0;0.0;-0.36209598183631897;-0.16787199676036835;1.309791922569275;0.0;0.0;0.0
546;0.0;0.0;0.0;-0.37380799651145935;-0.1483519971370697;1.2775839567184448;0.0;0.0;0.0
548;-0.49531999230384827;-0.014883999712765217;1.1672959327697754;-0.3777119815349579;-0.15225599706172943;1.28929603099823;-11.948124885559082;-5.866875171661377;-6.84250020980835
551;0.0;0.0;0.0;-0.39235198497772217;-0.1327359974384308;1.3019839525222778;0.0;0.0;0.0
553;0.0;0.0;0.0;-0.423583984375;-0.1483519971370697;1.2814879417419434;0.0;0.0;0.0
555;0.0;0.0;0.0;-0.4352959990501404;-0.14444799721240997;1.2775839567184448;0.0;0.0;0.0
557;-0.5446079969406128;0.0004879999905824661;1.170956015586853;-0.4509119987487793;-0.10540799796581268;1.285391926765442;-18.598125457763672;-10.626874923706055;-3.0625
559;0.0;0.0;0.0;-0.4782399833202362;-0.1327359974384308;1.2531839609146118;0.0;0.0;0.0
561;0.0;0.0;0.0;-0.45481598377227783;-0.1327359974384308;1.2531839609146118;0.0;0.0;0.0
563;0.0;0.0;0.0;-0.44310399889945984;-0.1483519971370697;1.2326879501342773;0.0;0.0;0.0
565;-0.5770599842071533;-0.00951599981635809;1.132159948348999;-0.4391999840736389;-0.16396799683570862;1.2453759908676147;-23.428125381469727;-14.896875381469727;-2.1525001525878906
568;0.0;0.0;0.0;-0.41967999935150146;-0.17177599668502808;1.2082879543304443;0.0;0.0;0.0
570;0.0;0.0;0.0;-0.47043198347091675;-0.15225599706172943;1.2004799842834473;0.0;0.0;0.0
572;0.0;0.0;0.0;-0.4626239836215973;-0.14444799721240997;1.2004799842834473;0.0;0.0;0.0
574;-0.5743759870529175;-0.013907999731600285;1.081164002418518;-0.4626239836215973;-0.11711999773979187;1.1877919435501099;-25.248125076293945;-16.646875381469727;-2.1525001525878906
576;0.0;0.0;0.0;-0.47043198347091675;-0.10931199789047241;1.1760799884796143;0.0;0.0;0.0
578;0.0;0.0;0.0;-0.4626239836215973;-0.1210239976644516;1.1594879627227783;0.0;0.0;0.0
580;0.0;0.0;0.0;-0.47043198347091675;-0.10931199789047241;1.1438720226287842;0.0;0.0;0.0
582;-0.6070719957351685;0.015371999703347683;1.0416359901428223;-0.45871999859809875;-0.10931199789047241;1.1350879669189453;-23.358123779296875;-14.406875610351562;-5.442500114440918
585;0.0;0.0;0.0;-0.49775999784469604;-0.10931199789047241;1.1555839776992798;0.0;0.0;0.0
587;0.0;0.0;0.0;-0.4938559830188751;-0.10931199789047241;1.1438720226287842;0.0;0.0;0.0
589;0.0;0.0;0.0;-0.45871999859809875;-0.08979199826717377;1.1350879669189453;0.0;0.0;0.0
591;-0.6080479621887207;0.034648001194000244;1.0125999450683594;-0.47043198347091675;-0.10150399804115295;1.1194720268249512;-17.75812530517578;-12.796875;-10.832500457763672
593;0.0;0.0;0.0;-0.47043198347091675;-0.09759999811649323;1.1067839860916138;0.0;0.0;0.0
595;0.0;0.0;0.0;-0.44310399889945984;-0.10540799796581268;1.1106879711151123;0.0;0.0;0.0
597;0.0;0.0;0.0;-0.4626239836215973;-0.10540799796581268;1.0989760160446167;0.0;0.0;0.0
599;-0.586575984954834;0.031231999397277832;0.9796599745750427;-0.44310399889945984;-0.10931199789047241;1.0823839902877808;-9.218124389648438;-10.066875457763672;-16.852500915527344
602;0.0;0.0;0.0;-0.4079679846763611;-0.1210239976644516;1.066767930984497;0.0;0.0;0.0
604;0.0;0.0;0.0;-0.40406399965286255;-0.09759999811649323;1.0862879753112793;0.0;0.0;0.0
606;0.0;0.0;0.0;-0.38844799995422363;-0.11321599781513214;1.0989760160446167;0.0;0.0;0.0
608;-0.5228919982910156;0.02903600037097931;0.9589200019836426;-0.34647998213768005;-0.10540799796581268;1.0745760202407837;0.7918750047683716;-6.566875457763672;-19.792499542236328
610;0.0;0.0;0.0;-0.36209598183631897;-0.08588799834251404;1.0745760202407837;0.0;0.0;0.0
612;0.0;0.0;0.0;-0.3542879819869995;-0.08198399841785431;1.0579839944839478;0.0;0.0;0.0
614;0.0;0.0;0.0;-0.3777119815349579;-0.03903999924659729;1.0706720352172852;0.0;0.0;0.0
616;-0.48897600173950195;0.06392800062894821;0.9452559947967529;-0.3542879819869995;-0.023423999547958374;1.0462720394134521;9.401875495910645;-1.2468750476837158;-19.582500457763672
619;0.0;0.0;0.0;-0.3659999966621399;-0.04684799909591675;1.0706720352172852;0.0;0.0;0.0
621;0.0;0.0;0.0;-0.3659999966621399;-0.003903999924659729;1.0462720394134521;0.0;0.0;0.0
623;0.0;0.0;0.0;-0.3777119815349579;-0.023423999547958374;1.042367935180664;0.0;0.0;0.0
625;-0.48214399814605713;0.12004800140857697;0.9313479661941528;-0.350383996963501;0.015615999698638916;1.0462720394134521;15.701875686645508;3.513124942779541;-18.462499618530273
627;0.0;0.0;0.0;-0.3386719822883606;-0.007807999849319458;1.066767930984497;0.0;0.0;0.0
629;0.0;0.0;0.0;-0.3269599974155426;0.023423999547958374;1.0384639501571655;0.0;0.0;0.0
631;0.0;0.0;0.0;-0.30743998289108276;0.015615999698638916;1.0052800178527832;0.0;0.0;0.0
633;-0.45530399680137634;0.15347599983215332;0.9132919907569885;-0.2879199981689453;0.04294399917125702;1.0296800136566162;19.13187599182129;7.153124809265137;-17.13249969482422
636;0.0;0.0;0.0;-0.28011199831962585;0.031231999397277832;1.017967939376831;0.0;0.0;0.0
638;0.0;0.0;0.0;-0.28011199831962585;0.058559998869895935;1.0335839986801147;0.0;0.0;0.0
640;0.0;0.0;0.0;-0.24887999892234802;0.054655998945236206;1.0384639501571655;0.0;0.0;0.0
642;-0.3967439830303192;0.17933999001979828;0.9098759889602661;-0.24107199907302856;0.058559998869895935;1.042367935180664;20.81187629699707;9.673125267028809;-14.612500190734863
644;0.0;0.0;0.0;-0.2176479995250702;0.07027199864387512;1.0296800136566162;0.0;0.0;0.0
646;0.0;0.0;0.0;-0.22155199944972992;0.08588799834251404;1.042367935180664;0.0;0.0;0.0
648;0.0;0.0;0.0;-0.22545599937438965;0.0936959981918335;1.0784800052642822;0.0;0.0;0.0
650;-0.346235990524292;0.2147199958562851;0.9342759847640991;-0.20983999967575073;0.0936959981918335;1.0784800052642822;20.60187530517578;11.003125190734863;-10.0625
653;0.0;0.0;0.0;-0.2176479995250702;0.10150399804115295;1.0706720352172852;0.0;0.0;0.0
655;0.0;0.0;0.0;-0.2176479995250702;0.10150399804115295;1.0862879753112793;0.0;0.0;0.0
657;0.0;0.0;0.0;-0.205935999751091;0.08588799834251404;1.0784800052642822;0.0;0.0;0.0
659;-0.32793599367141724;0.22740799188613892;0.9557479619979858;-0.18641600012779236;0.0936959981918335;1.0706720352172852;17.801876068115234;11.073124885559082;-3.9025001525878906
661;0.0;0.0;0.0;-0.16299200057983398;0.0663679987192154;1.0745760202407837;0.0;0.0;0.0
663;0.0;0.0;0.0;-0.15908800065517426;0.09759999811649323;1.0862879753112793;0.0;0.0;0.0
665;0.0;0.0;0.0;-0.16299200057983398;0.062463998794555664;1.0901919603347778;0.0;0.0;0.0
667;-0.2984119951725006;0.2147199958562851;0.9545279741287231;-0.16299200057983398;0.07027199864387512;1.066767930984497;14.51187515258789;10.163125038146973;2.5374999046325684
670;0.0;0.0;0.0;-0.14737600088119507;0.0663679987192154;1.0540800094604492;0.0;0.0;0.0
672;0.0;0.0;0.0;-0.12883199751377106;0.054655998945236206;1.0618879795074463;0.0;0.0;0.0
674;0.0;0.0;0.0;-0.11711999773979187;0.04684799909591675;1.0745760202407837;0.0;0.0;0.0
676;-0.24741598963737488;0.18861199915409088;0.9518439769744873;-0.07417599856853485;0.03903999924659729;1.0823839902877808;11.361875534057617;9.603124618530273;9.047499656677246
678;0.0;0.0;0.0;-0.058559998869895935;0.023423999547958374;1.0950720310211182;0.0;0.0;0.0
680;0.0;0.0;0.0;-0.04294399917125702;0.03903999924659729;1.0618879795074463;0.0;0.0;0.0
682;0.0;0.0;0.0;-0.03513599932193756;0.027327999472618103;1.0862879753112793;0.0;0.0;0.0
684;-0.1739719957113266;0.1693359911441803;0.9594079852104187;-0.023423999547958374;0.011711999773979187;1.0862879753112793;8.491875648498535;8.973124504089355;15.487500190734863
687;0.0;0.0;0.0;-0.004879999905824661;0.004879999905824661;1.0989760160446167;0.0;0.0;0.0
689;0.0;0.0;0.0;0.010735999792814255;0.00878399983048439;1.0950720310211182;0.0;0.0;0.0
691;0.0;0.0;0.0;0.0302559994161129;-0.018543999642133713;1.0950720310211182;0.0;0.0;0.0
693;-0.10613999515771866;0.13859200477600098;0.9667279720306396;0.045871999114751816;-0.03415999934077263;1.0950720310211182;5.621874809265137;9.183124542236328;21.297500610351562
695;0.0;0.0;0.0;0.07320000231266022;-0.02635199949145317;1.0989760160446167;0.0;0.0;0.0
697;0.0;0.0;0.0;0.10345599800348282;-0.07710400223731995;1.066767930984497;0.0;0.0;0.0
699;0.0;0.0;0.0;0.08881600201129913;-0.07320000231266022;1.0862879753112793;0.0;0.0;0.0
701;-0.04391999915242195;0.0832040011882782;0.9647759795188904;0.12004800140857697;-0.09272000193595886;1.0706720352172852;3.5218749046325684;9.463125228881836;25.077499389648438
704;0.0;0.0;0.0;0.1239520013332367;-0.0936959981918335;1.0823839902877808;0.0;0.0;0.0
706;0.0;0.0;0.0;0.15518400073051453;-0.08979199826717377;1.0784800052642822;0.0;0.0;0.0
708;0.0;0.0;0.0;0.11614400148391724;-0.12492799758911133;1.0706720352172852;0.0;0.0;0.0
710;0.0029279999434947968;0.026839999482035637;0.9606279730796814;0.1512800008058548;-0.12492799758911133;1.0823839902877808;3.241874933242798;10.093124389648438;26.477500915527344
712;0.0;0.0;0.0;0.12785600125789642;-0.1327359974384308;1.09116792678833;0.0;0.0;0.0
714;0.0;0.0;0.0;0.15518400073051453;-0.1327359974384308;1.0618879795074463;0.0;0.0;0.0
716;0.0;0.0;0.0;0.14737600088119507;-0.1600639969110489;1.0862879753112793;0.0;0.0;0.0
718;0.024887999519705772;-0.012199999764561653;0.9611159563064575;0.1512800008058548;-0.16787199676036835;1.0823839902877808;4.431874752044678;11.773124694824219;26.197500228881836
721;0.0;0.0;0.0;0.16201600432395935;-0.15908800065517426;1.1067839860916138;0.0;0.0;0.0
723;0.0;0.0;0.0;0.17372798919677734;-0.1668960005044937;1.0784800052642822;0.0;0.0;0.0
725;0.0;0.0;0.0;0.18934398889541626;-0.1786080002784729;1.0950720310211182;0.0;0.0;0.0
727;0.06148799881339073;-0.023423999547958374;0.9691680073738098;0.20105600357055664;-0.14347200095653534;1.0823839902877808;7.371874809265137;12.54312515258789;25.707500457763672
729;0.0;0.0;0.0;0.21276798844337463;-0.13566400110721588;1.1067839860916138;0.0;0.0;0.0
731;0.0;0.0;0.0;0.2635200023651123;-0.1668960005044937;1.1067839860916138;0.0;0.0;0.0
733;0.0;0.0;0.0;0.2596159875392914;-0.22545599937438965;1.0628639459609985;0.0;0.0;0.0
736;0.12492799758911133;-0.030499998480081558;0.9645319581031799;0.27132800221443176;-0.16299200057983398;1.0823839902877808;10.801875114440918;12.963125228881836;25.497499465942383
738;0.0;0.0;0.0;0.25278398394584656;-0.14054399728775024;1.0823839902877808;0.0;0.0;0.0
740;0.0;0.0;0.0;0.27620798349380493;-0.17958399653434753;1.0950720310211182;0.0;0.0;0.0
742;0.0;0.0;0.0;0.26449599862098694;-0.13663999736309052;1.09116792678833;0.0;0.0;0.0
744;0.1449359953403473;-0.01195599976927042;0.9672159552574158;0.2683999836444855;-0.1483519971370697;1.0706720352172852;14.861875534057617;13.453125;25.217500686645508
746;0.0;0.0;0.0;0.29572799801826477;-0.1327359974384308;1.0745760202407837;0.0;0.0;0.0
748;0.0;0.0;0.0;0.2879199981689453;-0.14444799721240997;1.0579839944839478;0.0;0.0;0.0
750;0.0;0.0;0.0;0.30353599786758423;-0.14054399728775024;1.0579839944839478;0.0;0.0;0.0
753;0.17787599563598633;-0.006587999872863293;0.9591639637947083;0.33476799726486206;-0.12492799758911133;1.0540800094604492;14.721875190734863;12.05312442779541;21.857500076293945
755;0.0;0.0;0.0;0.37673598527908325;-0.11711999773979187;1.0628639459609985;0.0;0.0;0.0
757;0.0;0.0;0.0;0.3845439851284027;-0.1210239976644516;1.0579839944839478;0.0;0.0;0.0
759;0.0;0.0;0.0;0.41967999935150146;-0.13663999736309052;1.0745760202407837;0.0;0.0;0.0
761;0.2579079866409302;0.0;0.9364719986915588;0.4274879992008209;-0.1210239976644516;1.0618879795074463;12.201875686645508;12.05312442779541;15.697500228881836
763;0.0;0.0;0.0;0.43139198422431946;-0.12492799758911133;1.0628639459609985;0.0;0.0;0.0
765;0.0;0.0;0.0;0.4470079839229584;-0.14054399728775024;1.066767930984497;0.0;0.0;0.0
767;0.0;0.0;0.0;0.4899519979953766;-0.12883199751377106;1.042367935180664;0.0;0.0;0.0
770;0.34013599157333374;0.0;0.9342759847640991;0.48604798316955566;-0.11711999773979187;1.0579839944839478;7.861875057220459;13.80312442779541;13.107500076293945
772;0.0;0.0;0.0;0.5016639828681946;-0.09759999811649323;1.0540800094604492;0.0;0.0;0.0
774;0.0;0.0;0.0;0.49775999784469604;-0.10540799796581268;1.1067839860916138;0.0;0.0;0.0
776;0.0;0.0;0.0;0.4938559830188751;-0.10540799796581268;1.0989760160446167;0.0;0.0;0.0
778;0.3781999945640564;0.03367199748754501;0.9601399898529053;0.5055679678916931;-0.07417599856853485;1.09116792678833;2.8918750286102295;15.133125305175781;14.157500267028809
780;0.0;0.0;0.0;0.4938559830188751;-0.08979199826717377;1.1067839860916138;0.0;0.0;0.0
782;0.0;0.0;0.0;0.513375997543335;-0.07417599856853485;1.1194720268249512;0.0;0.0;0.0
784;0.0;0.0;0.0;0.5172799825668335;-0.0936959981918335;1.1438720226287842;0.0;0.0;0.0
787;0.3916199803352356;0.04806799814105034;0.9974719882011414;0.5446079969406128;-0.1210239976644516;1.1233760118484497;-3.4781250953674316;14.713125228881836;17.447500228881836
789;0.0;0.0;0.0;0.49775999784469604;-0.1210239976644516;1.1272799968719482;0.0;0.0;0.0
791;0.0;0.0;0.0;0.5250880122184753;-0.13663999736309052;1.1389919519424438;0.0;0.0;0.0
793;0.0;0.0;0.0;0.5328959822654724;-0.1210239976644516;1.1272799968719482;0.0;0.0;0.0
795;0.40699198842048645;0.0;1.0147960186004639;0.5563200116157532;-0.16396799683570862;1.1350879669189453;-9.218124389648438;13.733124732971191;19.75749969482422
797;0.0;0.0;0.0;0.5914559960365295;-0.19519999623298645;1.1233760118484497;0.0;0.0;0.0
799;0.0;0.0;0.0;0.5758399963378906;-0.19519999623298645;1.1438720226287842;0.0;0.0;0.0
801;0.0;0.0;0.0;0.5602239966392517;-0.22252799570560455;1.1311839818954468;0.0;0.0;0.0
804;0.4567679762840271;-0.06880799680948257;1.0125999450683594;0.5953599810600281;-0.24985599517822266;1.1233760118484497;-11.668124198913574;13.103124618530273;20.59749984741211
806;0.0;0.0;0.0;0.6060959696769714;-0.24595199525356293;1.1194720268249512;0.0;0.0;0.0
808;0.0;0.0;0.0;0.587552011013031;-0.23814399540424347;1.1311839818954468;0.0;0.0;0.0
810;0.0;0.0;0.0;0.5797439813613892;-0.2576639950275421;1.1350879669189453;0.0;0.0;0.0
812;0.45993998646736145;-0.11882799863815308;1.0247999429702759;0.5250880122184753;-0.24985599517822266;1.1799839735031128;-9.918124198913574;13.943124771118164;20.457500457763672
814;0.0;0.0;0.0;0.5602239966392517;-0.27327999472618103;1.1721760034561157;0.0;0.0;0.0
816;0.0;0.0;0.0;0.5641279816627502;-0.2810879945755005;1.1838879585266113;0.0;0.0;0.0
818;0.0;0.0;0.0;0.5992639660835266;-0.3123199939727783;1.1760799884796143;0.0;0.0;0.0
821;0.45237597823143005;-0.14420399069786072;1.0521279573440552;0.6031680107116699;-0.3123199939727783;1.1682720184326172;-7.048125267028809;12.683124542236328;14.017499923706055
823;0.0;0.0;0.0;0.587552011013031;-0.284991979598999;1.1877919435501099;0.0;0.0;0.0
825;0.0;0.0;0.0;0.6256160140037537;-0.28889599442481995;1.1760799884796143;0.0;0.0;0.0
827;0.0;0.0;0.0;0.6451359987258911;-0.30451199412345886;1.1965759992599487;0.0;0.0;0.0
829;0.5065439939498901;-0.1546960026025772;1.0555440187454224;0.6646559834480286;-0.28889599442481995;1.1633919477462769;-3.0581250190734863;10.653124809265137;9.467499732971191
831;0.0;0.0;0.0;0.676367998123169;-0.284991979598999;1.1633919477462769;0.0;0.0;0.0
833;0.0;0.0;0.0;0.66075199842453;-0.2654719948768616;1.1721760034561157;0.0;0.0;0.0
835;0.0;0.0;0.0;0.6529439687728882;-0.2810879945755005;1.1516799926757812;0.0;0.0;0.0
838;0.5387519598007202;-0.1390800029039383;1.0394400358200073;0.676367998123169;-0.2537599802017212;1.1633919477462769;1.0018750429153442;8.623125076293945;5.337500095367432
840;0.0;0.0;0.0;0.66075199842453;-0.2654719948768616;1.1555839776992798;0.0;0.0;0.0
842;0.0;0.0;0.0;0.6568480134010315;-0.23423999547958374;1.1799839735031128;0.0;0.0;0.0
844;0.0;0.0;0.0;0.6958879828453064;-0.23814399540424347;1.1682720184326172;0.0;0.0;0.0
846;0.5428999662399292;-0.10833600163459778;1.0413919687271118;0.6802719831466675;-0.2576639950275421;1.1516799926757812;4.081874847412109;6.663125038146973;0.9275000095367432
848;0.0;0.0;0.0;0.6919839978218079;-0.22252799570560455;1.1682720184326172;0.0;0.0;0.0
850;0.0;0.0;0.0;0.7036960124969482;-0.2420479953289032;1.1594879627227783;0.0;0.0;0.0
852;0.0;0.0;0.0;0.7075999975204468;-0.22643199563026428;1.1682720184326172;0.0;0.0;0.0
855;0.575107991695404;-0.09198799729347229;1.0362679958343506;0.7075999975204468;-0.21862399578094482;1.1682720184326172;4.221874713897705;5.753124713897705;-3.4825000762939453
857;0.0;0.0;0.0;0.7388319969177246;-0.2030079960823059;1.1477760076522827;0.0;0.0;0.0
859;0.0;0.0;0.0;0.7310239672660828;-0.21862399578094482;1.139967918395996;0.0;0.0;0.0
861;0.0;0.0;0.0;0.7075999975204468;-0.23814399540424347;1.1350879669189453;0.0;0.0;0.0
863;0.6004840135574341;-0.07685999572277069;1.0306559801101685;0.7154079675674438;-0.19519999623298645;1.1477760076522827;3.5218749046325684;4.773124694824219;-5.932499885559082
865;0.0;0.0;0.0;0.7115039825439453;-0.17958399653434753;1.1438720226287842;0.0;0.0;0.0
867;0.0;0.0;0.0;0.7310239672660828;-0.19129599630832672;1.1594879627227783;0.0;0.0;0.0
869;0.0;0.0;0.0;0.7310239672660828;-0.19129599630832672;1.1760799884796143;0.0;0.0;0.0
872;0.6051200032234192;-0.058803997933864594;1.0394400358200073;0.7349280118942261;-0.19910399615764618;1.1555839776992798;2.8218748569488525;3.8631250858306885;-7.122499942779541
874;0.0;0.0;0.0;0.7075999975204468;-0.19910399615764618;1.1965759992599487;0.0;0.0;0.0
876;0.0;0.0;0.0;0.7271199822425842;-0.1756799966096878;1.1965759992599487;0.0;0.0;0.0
878;0.0;0.0;0.0;0.7271199822425842;-0.18348799645900726;1.1926720142364502;0.0;0.0;0.0
880;0.5965799689292908;-0.050995998084545135;1.0557879209518433;0.7075999975204468;-0.19519999623298645;1.1877919435501099;1.9818750619888306;1.7631250619888306;-5.792500019073486
882;0.0;0.0;0.0;0.6997919678688049;-0.18348799645900726;1.1682720184326172;0.0;0.0;0.0
884;0.0;0.0;0.0;0.7466399669647217;-0.18348799645900726;1.1760799884796143;0.0;0.0;0.0
886;0.0;0.0;0.0;0.7232159972190857;-0.19519999623298645;1.1838879585266113;0.0;0.0;0.0
889;0.6046319603919983;-0.060999996960163116;1.0523719787597656;0.7271199822425842;-0.19519999623298645;1.1877919435501099;2.3318748474121094;-0.7568749785423279;-2.3625001907348633
891;0.0;0.0;0.0;0.7427359819412231;-0.19910399615764618;1.1682720184326172;0.0;0.0;0.0
893;0.0;0.0;0.0;0.7349280118942261;-0.24595199525356293;1.1721760034561157;0.0;0.0;0.0
895;0.0;0.0;0.0;0.7310239672660828;-0.21081599593162537;1.1838879585266113;0.0;0.0;0.0
897;0.619271993637085;-0.07149200141429901;1.0462720394134521;0.7427359819412231;-0.21862399578094482;1.1799839735031128;4.361875057220459;-2.7168750762939453;1.977500081062317
899;0.0;0.0;0.0;0.7115039825439453;-0.2030079960823059;1.1672959327697754;0.0;0.0;0.0
901;0.0;0.0;0.0;0.7310239672660828;-0.20691199600696564;1.1965759992599487;0.0;0.0;0.0
904;0.0;0.0;0.0;0.6919839978218079;-0.21862399578094482;1.1965759992599487;0.0;0.0;0.0
906;0.5999959707260132;-0.07344400137662888;1.0560319423675537;0.6958879828453064;-0.230335995554924;1.1799839735031128;5.761875152587891;-5.306875228881836;5.267499923706055
908;0.0;0.0;0.0;0.7193120121955872;-0.2147199958562851;1.1965759992599487;0.0;0.0;0.0
910;0.0;0.0;0.0;0.6919839978218079;-0.20691199600696564;1.2082879543304443;0.0;0.0;0.0
912;0.0;0.0;0.0;0.684175968170166;-0.21081599593162537;1.1838879585266113;0.0;0.0;0.0
914;0.5746200084686279;-0.07832399755716324;1.065303921699524;0.6997919678688049;-0.22252799570560455;1.1799839735031128;4.921875;-8.526875495910645;5.6875
916;0.0;0.0;0.0;0.7036960124969482;-0.22643199563026428;1.1760799884796143;0.0;0.0;0.0
918;0.0;0.0;0.0;0.7115039825439453;-0.22252799570560455;1.1633919477462769;0.0;0.0;0.0
920;0.0;0.0;0.0;0.6958879828453064;-0.24595199525356293;1.1555839776992798;0.0;0.0;0.0
923;0.5816959738731384;-0.09686800092458725;1.0531039237976074;0.6919839978218079;-0.2420479953289032;1.1477760076522827;3.4518749713897705;-13.006875038146973;4.847499847412109
925;0.0;0.0;0.0;0.7193120121955872;-0.2576639950275421;1.1516799926757812;0.0;0.0;0.0
927;0.0;0.0;0.0;0.7466399669647217;-0.2537599802017212;1.1438720226287842;0.0;0.0;0.0
929;0.0;0.0;0.0;0.7271199822425842;-0.2576639950275421;1.1555839776992798;0.0;0.0;0.0
931;0.6021919846534729;-0.11614400148391724;1.0299240350723267;0.7466399669647217;-0.2537599802017212;1.1272799968719482;2.8218748569488525;-16.926876068115234;3.377500057220459
933;0.0;0.0;0.0;0.7700639963150024;-0.2576639950275421;1.1272799968719482;0.0;0.0;0.0
935;0.0;0.0;0.0;0.7349280118942261;-0.30060797929763794;1.1194720268249512;0.0;0.0;0.0
937;0.0;0.0;0.0;0.7544479966163635;-0.2537599802017212;1.1311839818954468;0.0;0.0;0.0
940;0.619271993637085;-0.12175599485635757;1.007964015007019;0.7544479966163635;-0.26156800985336304;1.1194720268249512;2.541874885559082;-18.046875;0.7174999713897705
942;0.0;0.0;0.0;0.7661600112915039;-0.24985599517822266;1.1233760118484497;0.0;0.0;0.0
944;0.0;0.0;0.0;0.7271199822425842;-0.24985599517822266;1.1311839818954468;0.0;0.0;0.0
946;0.0;0.0;0.0;0.750544011592865;-0.2537599802017212;1.1516799926757812;0.0;0.0;0.0
948;0.6153680086135864;-0.11614400148391724;1.0128439664840698;0.7427359819412231;-0.2537599802017212;1.1555839776992798;1.211875081062317;-17.13687515258789;-3.0625
950;0.0;0.0;0.0;0.7154079675674438;-0.2537599802017212;1.1555839776992798;0.0;0.0;0.0
952;0.0;0.0;0.0;0.6997919678688049;-0.27327999472618103;1.1633919477462769;0.0;0.0;0.0
955;0.0;0.0;0.0;0.684175968170166;-0.27327999472618103;1.1633919477462769;0.0;0.0;0.0
957;0.5819399952888489;-0.1239520013332367;1.0372439622879028;0.676367998123169;-0.2654719948768616;1.1721760034561157;-1.6581250429153442;-16.296875;-7.402500152587891
959;0.0;0.0;0.0;0.6519680023193359;-0.2683999836444855;1.1838879585266113;0.0;0.0;0.0
961;0.0;0.0;0.0;0.636352002620697;-0.2840159833431244;1.1965759992599487;0.0;0.0;0.0
963;0.0;0.0;0.0;0.6285439729690552;-0.29182398319244385;1.1877919435501099;0.0;0.0;0.0
965;0.5165479779243469;-0.14273999631404877;1.0592039823532104;0.6100000143051147;-0.2879199981689453;1.1799839735031128;-4.528125286102295;-18.046875;-11.882499694824219
967;0.0;0.0;0.0;0.6021919846534729;-0.3152479827404022;1.2082879543304443;0.0;0.0;0.0
969;0.0;0.0;0.0;0.586575984954834;-0.29572799801826477;1.1877919435501099;0.0;0.0;0.0
972;0.0;0.0;0.0;0.5553439855575562;-0.30743998289108276;1.1682720184326172;0.0;0.0;0.0
974;0.46335598826408386;-0.15860000252723694;1.0589599609375;0.5709599852561951;-0.30353599786758423;1.1721760034561157;-5.928124904632568;-21.826875686645508;-16.502500534057617
976;0.0;0.0;0.0;0.5553439855575562;-0.29182398319244385;1.1594879627227783;0.0;0.0;0.0
978;0.0;0.0;0.0;0.5358240008354187;-0.30743998289108276;1.1555839776992798;0.0;0.0;0.0
980;0.0;0.0;0.0;0.5670560002326965;-0.2840159833431244;1.1555839776992798;0.0;0.0;0.0
982;0.43773600459098816;-0.16543199121952057;1.038707971572876;0.5397279858589172;-0.30353599786758423;1.1272799968719482;-5.438125133514404;-24.906875610351562;-20.352500915527344
984;0.0;0.0;0.0;0.5670560002326965;-0.29572799801826477;1.1721760034561157;0.0;0.0;0.0
986;0.0;0.0;0.0;0.5397279858589172;-0.2879199981689453;1.1194720268249512;0.0;0.0;0.0
989;0.0;0.0;0.0;0.5436319708824158;-0.2840159833431244;1.1477760076522827;0.0;0.0;0.0
991;0.41919198632240295;-0.16543199121952057;1.0189440250396729;0.5045920014381409;-0.2996319830417633;1.1350879669189453;-2.9181251525878906;-26.656875610351562;-22.3125
993;0.0;0.0;0.0;0.513375997543335;-0.3240320086479187;1.1272799968719482;0.0;0.0;0.0
995;0.0;0.0;0.0;0.5094720125198364;-0.28889599442481995;1.1272799968719482;0.0;0.0;0.0
997;0.0;0.0;0.0;0.5016639828681946;-0.2810879945755005;1.1106879711151123;0.0;0.0;0.0
999;0.38600799441337585;-0.15786799788475037;1.00381600856781;0.49775999784469604;-0.2654719948768616;1.1067839860916138;1.211875081062317;-27.63687515258789;-21.892499923706055
1001;0.0;0.0;0.0;0.45871999859809875;-0.2654719948768616;1.1233760118484497;0.0;0.0;0.0
1003;0.0;0.0;0.0;0.48604798316955566;-0.2810879945755005;1.1106879711151123;0.0;0.0;0.0
1006;0.0;0.0;0.0;0.5016639828681946;-0.2537599802017212;1.1028800010681152;0.0;0.0;0.0
1008;0.3728320002555847;-0.1193159967660904;0.982587993144989;0.5250880122184753;-0.187391996383667;1.066767930984497;5.551875114440918;-27.70687484741211;-20.77250099182129
1010;0.0;0.0;0.0;0.5006880164146423;-0.1786080002784729;1.0618879795074463;0.0;0.0;0.0
1012;0.0;0.0;0.0;0.4382239878177643;-0.20203199982643127;1.0784800052642822;0.0;0.0;0.0
1014;0.0;0.0;0.0;0.44603198766708374;-0.22935999929904938;1.0823839902877808;0.0;0.0;0.0
1016;0.34233200550079346;-0.07197999954223633;0.9576999545097351;0.4304159879684448;-0.22155199944972992;1.1067839860916138;10.171875;-24.97687530517578;-17.622499465942383
1018;0.0;0.0;0.0;0.39137598872184753;-0.22935999929904938;1.0989760160446167;0.0;0.0;0.0
1020;0.0;0.0;0.0;0.37966400384902954;-0.22155199944972992;1.1145919561386108;0.0;0.0;0.0
1023;0.0;0.0;0.0;0.39137598872184753;-0.22545599937438965;1.1233760118484497;0.0;0.0;0.0
1025;0.26449599862098694;-0.08442399650812149;0.9928359985351562;0.3689279854297638;-0.2449759989976883;1.1028800010681152;11.711874961853027;-24.13687515258789;-16.012500762939453
1027;0.0;0.0;0.0;0.3659999966621399;-0.24985599517822266;1.0989760160446167;0.0;0.0;0.0
1029;0.0;0.0;0.0;0.3962559998035431;-0.12883199751377106;1.1233760118484497;0.0;0.0;0.0
1031;0.0;0.0;0.0;0.33086398243904114;-0.1483519971370697;1.1721760034561157;0.0;0.0;0.0
1033;0.23887600004673004;-0.06368400156497955;1.0028399229049683;0.33476799726486206;-0.17958399653434753;1.1594879627227783;10.7318754196167;-25.466875076293945;-13.282500267028809
1035;0.0;0.0;0.0;0.30743998289108276;-0.15615999698638916;1.1028800010681152;0.0;0.0;0.0
1037;0.0;0.0;0.0;0.25278398394584656;-0.2030079960823059;1.0989760160446167;0.0;0.0;0.0
1040;0.0;0.0;0.0;0.22545599937438965;-0.187391996383667;1.0823839902877808;0.0;0.0;0.0
1042;0.15103599429130554;-0.04758000001311302;0.9850279688835144;0.28011199831962585;-0.13663999736309052;1.1028800010681152;7.021874904632568;-27.356874465942383;-13.002500534057617
1044;0.0;0.0;0.0;0.23228800296783447;-0.1903200000524521;1.042367935180664;0.0;0.0;0.0
1046;0.0;0.0;0.0;0.19715198874473572;-0.205935999751091;1.0218719244003296;0.0;0.0;0.0
1048;0.0;0.0;0.0;0.2088640034198761;-0.1903200000524521;1.042367935180664;0.0;0.0;0.0
1050;0.08930400013923645;-0.0453839972615242;0.9362279772758484;0.20105600357055664;-0.17470400035381317;1.0540800094604492;5.831874847412109;-29.246875762939453;-12.092499732971191
1052;0.0;0.0;0.0;0.16201600432395935;-0.17470400035381317;1.0335839986801147;0.0;0.0;0.0
1054;0.0;0.0;0.0;0.18934398889541626;-0.1668960005044937;1.0374879837036133;0.0;0.0;0.0
1057;0.0;0.0;0.0;0.2205759882926941;-0.24887999892234802;1.0052800178527832;0.0;0.0;0.0
1059;0.0634399950504303;-0.0634399950504303;0.9079239964485168;0.16201600432395935;-0.22545599937438965;1.0091840028762817;6.811874866485596;-29.59687614440918;-14.752500534057617
1061;0.0;0.0;0.0;0.2088640034198761;-0.2723039984703064;1.0130879878997803;0.0;0.0;0.0
1063;0.0;0.0;0.0;0.21667200326919556;-0.25278398394584656;1.0296800136566162;0.0;0.0;0.0
1065;0.0;0.0;0.0;0.16201600432395935;-0.2176479995250702;1.0374879837036133;0.0;0.0;0.0
1067;0.0785679966211319;-0.09516000002622604;0.9071919918060303;0.17763200402259827;-0.1903200000524521;1.0501760244369507;7.651875019073486;-31.906875610351562;-9.572500228881836
1069;0.0;0.0;0.0;0.14640000462532043;-0.17080000042915344;1.042367935180664;0.0;0.0;0.0
1071;0.0;0.0;0.0;0.15030398964881897;-0.13566400110721588;1.0501760244369507;0.0;0.0;0.0
1074;0.0;0.0;0.0;0.13468798995018005;-0.14347200095653534;1.0501760244369507;0.0;0.0;0.0
1076;0.01756799966096878;-0.02000799961388111;0.9274439811706543;0.1424959897994995;-0.15518400073051453;1.0413919687271118;6.181874752044678;-27.986875534057617;-7.612500190734863
1078;0.0;0.0;0.0;0.13468798995018005;-0.1903200000524521;1.09116792678833;0.0;0.0;0.0
1080;0.0;0.0;0.0;0.15030398964881897;-0.15908800065517426;1.1028800010681152;0.0;0.0;0.0
1082;0.0;0.0;0.0;0.1424959897994995;-0.205935999751091;1.0989760160446167;0.0;0.0;0.0
1084;0.021959999576210976;-0.04782399907708168;0.9630680084228516;0.1424959897994995;-0.19422399997711182;1.0862879753112793;3.4518749713897705;-25.95687484741211;-2.2225000858306885
1086;0.0;0.0;0.0;0.12297599762678146;-0.17080000042915344;1.0989760160446167;0.0;0.0;0.0
1088;0.0;0.0;0.0;0.11907199770212173;-0.21374399960041046;1.1028800010681152;0.0;0.0;0.0
1091;0.0;0.0;0.0;0.10052800178527832;-0.17080000042915344;1.1106879711151123;0.0;0.0;0.0
1093;-0.0029279999434947968;-0.05172799900174141;0.9769759774208069;0.07710400223731995;-0.17080000042915344;1.1028800010681152;-0.398125022649765;-29.316875457763672;12.337499618530273
1095;0.0;0.0;0.0;0.11907199770212173;-0.17470400035381317;1.1233760118484497;0.0;0.0;0.0
1097;0.0;0.0;0.0;0.14640000462532043;-0.13176000118255615;1.1477760076522827;0.0;0.0;0.0
1099;0.0;0.0;0.0;0.09272000193595886;-0.11224000155925751;1.1389919519424438;0.0;0.0;0.0
1101;-0.01659199967980385;-0.01439599972218275;1.007964015007019;0.06539200246334076;-0.11614400148391724;1.2082879543304443;-2.3581252098083496;-30.786874771118164;29.137500762939453
1104;0.0;0.0;0.0;0.022447999566793442;-0.12004800140857697;1.2531839609146118;0.0;0.0;0.0
1105;0.0;0.0;0.0;-0.01659199967980385;-0.10052800178527832;1.2326879501342773;0.0;0.0;0.0
1108;0.0;0.0;0.0;0.018543999642133713;-0.09272000193595886;1.2121919393539429;0.0;0.0;0.0
1110;-0.10833600163459778;0.038307998329401016;1.097999930381775;-0.01268799975514412;-0.08881600201129913;1.2160959243774414;-6.068125247955322;-29.876874923706055;44.46750259399414
1112;0.0;0.0;0.0;-0.04001599922776222;-0.07320000231266022;1.2043839693069458;0.0;0.0;0.0
1114;0.0;0.0;0.0;-0.07905599474906921;-0.09662400186061859;1.1965759992599487;0.0;0.0;0.0
1116;0.0;0.0;0.0;-0.12590399384498596;-0.12785600125789642;1.2004799842834473;0.0;0.0;0.0
1118;-0.19885998964309692;0.03855200111865997;1.0831159353256226;-0.1180959939956665;-0.11224000155925751;1.2209759950637817;-12.0181245803833;-29.876874923706055;57.067501068115234
1120;0.0;0.0;0.0;-0.12590399384498596;-0.08100800216197968;1.2209759950637817;0.0;0.0;0.0
1122;0.0;0.0;0.0;-0.17177599668502808;-0.08881600201129913;1.2248799800872803;0.0;0.0;0.0
1125;0.0;0.0;0.0;-0.1756799966096878;-0.09662400186061859;1.1965759992599487;0.0;0.0;0.0
1127;-0.2832840085029602;0.040991999208927155;1.0872639417648315;-0.19519999623298645;-0.10833600163459778;1.1877919435501099;-17.968124389648438;-29.036874771118164;65.8175048828125
1129;0.0;0.0;0.0;-0.230335995554924;-0.11224000155925751;1.1760799884796143;0.0;0.0;0.0
1131;0.0;0.0;0.0;-0.22252799570560455;-0.11224000155925751;1.1721760034561157;0.0;0.0;0.0
1133;0.0;0.0;0.0;-0.24595199525356293;-0.10052800178527832;1.1477760076522827;0.0;0.0;0.0
1135;-0.3579480051994324;0.01878799870610237;1.0557879209518433;-0.24985599517822266;-0.12785600125789642;1.1594879627227783;-23.00812530517578;-26.86687469482422;70.57749938964844
1138;0.0;0.0;0.0;-0.2693759799003601;-0.13176000118255615;1.1555839776992798;0.0;0.0;0.0
1139;0.0;0.0;0.0;-0.2967039942741394;-0.1395680010318756;1.1350879669189453;0.0;0.0;0.0
1142;0.0;0.0;0.0;-0.2967039942741394;-0.13566400110721588;1.1272799968719482;0.0;0.0;0.0
1144;-0.40869998931884766;0.0021959999576210976;1.0238239765167236;-0.2967039942741394;-0.14737600088119507;1.1389919519424438;-25.388124465942383;-23.436874389648438;70.22750091552734
1146;0.0;0.0;0.0;-0.29182398319244385;-0.12492799758911133;1.1067839860916138;0.0;0.0;0.0
1148;0.0;0.0;0.0;-0.2996319830417633;-0.14444799721240997;1.0950720310211182;0.0;0.0;0.0
1150;0.0;0.0;0.0;-0.3542879819869995;-0.15225599706172943;1.0950720310211182;0.0;0.0;0.0
1152;-0.4416399896144867;-0.007563999854028225;0.9911279678344727;-0.3152479827404022;-0.15225599706172943;1.1028800010681152;-24.89812469482422;-18.186874389648438;65.39749908447266
1154;0.0;0.0;0.0;-0.3269599974155426;-0.15225599706172943;1.1194720268249512;0.0;0.0;0.0
1156;0.0;0.0;0.0;-0.35819199681282043;-0.16396799683570862;1.1067839860916138;0.0;0.0;0.0
1159;0.0;0.0;0.0;-0.3659999966621399;-0.15225599706172943;1.0950720310211182;0.0;0.0;0.0
1161;-0.46799197793006897;-0.012199999764561653;0.9821000099182129;-0.35819199681282043;-0.07027199864387512;1.1389919519424438;-20.698123931884766;-13.986875534057617;56.78750228881836
1163;0.0;0.0;0.0;-0.3786879777908325;-0.13176000118255615;1.1106879711151123;0.0;0.0;0.0
1165;0.0;0.0;0.0;-0.4206559956073761;-0.15908800065517426;1.1194720268249512;0.0;0.0;0.0
1167;0.0;0.0;0.0;-0.3786879777908325;-0.12004800140857697;1.1594879627227783;0.0;0.0;0.0
1169;-0.5150839686393738;0.012199999764561653;1.0147960186004639;-0.4089439809322357;-0.10833600163459778;1.1682720184326172;-15.798124313354492;-10.346875190734863;43.977500915527344
1172;0.0;0.0;0.0;-0.4089439809322357;-0.15518400073051453;1.1145919561386108;0.0;0.0;0.0
1174;0.0;0.0;0.0;-0.4167519807815552;-0.13176000118255615;1.1633919477462769;0.0;0.0;0.0
1176;0.0;0.0;0.0;-0.4596959948539734;-0.13566400110721588;1.1555839776992798;0.0;0.0;0.0
1178;-0.5570520162582397;0.004879999905824661;1.0238239765167236;-0.4753119945526123;-0.14737600088119507;1.1350879669189453;-12.578125;-8.1068754196167;29.0674991607666
1180;0.0;0.0;0.0;-0.49483197927474976;-0.10833600163459778;1.1682720184326172;0.0;0.0;0.0
1182;0.0;0.0;0.0;-0.5104479789733887;-0.13176000118255615;1.1721760034561157;0.0;0.0;0.0
1184;0.0;0.0;0.0;-0.5260639786720276;-0.10052800178527832;1.1594879627227783;0.0;0.0;0.0
1186;-0.6341559886932373;0.025863999500870705;1.044808030128479;-0.5026400089263916;-0.08881600201129913;1.1926720142364502;-9.148124694824219;-7.966875076293945;12.757499694824219
1189;0.0;0.0;0.0;-0.537775993347168;-0.10052800178527832;1.1721760034561157;0.0;0.0;0.0
1191;0.0;0.0;0.0;-0.5768159627914429;-0.10443200170993805;1.1760799884796143;0.0;0.0;0.0
1193;0.0;0.0;0.0;-0.5338720083236694;-0.08100800216197968;1.1877919435501099;0.0;0.0;0.0
1195;-0.6788079738616943;0.030743999406695366;1.0611560344696045;-0.5729119777679443;-0.10833600163459778;1.1965759992599487;-5.85812520980835;-10.486875534057617;-1.1725000143051147
1197;0.0;0.0;0.0;-0.5719360113143921;-0.10150399804115295;1.2004799842834473;0.0;0.0;0.0
1199;0.0;0.0;0.0;-0.5641279816627502;-0.10540799796581268;1.1760799884796143;0.0;0.0;0.0
1201;0.0;0.0;0.0;-0.5836479663848877;-0.09759999811649323;1.1799839735031128;0.0;0.0;0.0
1203;-0.7000359892845154;0.052947998046875;1.0579839944839478;-0.5719360113143921;-0.062463998794555664;1.1799839735031128;-2.9181251525878906;-15.03687572479248;-10.552499771118164
1205;0.0;0.0;0.0;-0.5680319666862488;-0.04684799909591675;1.1682720184326172;0.0;0.0;0.0
1208;0.0;0.0;0.0;-0.5250880122184753;0.003903999924659729;1.1916959285736084;0.0;0.0;0.0
1210;0.0;0.0;0.0;-0.4899519979953766;0.023423999547958374;1.1799839735031128;0.0;0.0;0.0
1212;-0.6602640151977539;0.11858399957418442;1.0528600215911865;-0.4782399833202362;-0.003903999924659729;1.1477760076522827;-2.218125104904175;-20.496875762939453;-18.112499237060547
1214;0.0;0.0;0.0;-0.5026400089263916;0.024399999529123306;1.1682720184326172;0.0;0.0;0.0
1216;0.0;0.0;0.0;-0.4323679804801941;0.032207999378442764;1.1350879669189453;0.0;0.0;0.0
1218;0.0;0.0;0.0;-0.4167519807815552;0.04782399907708168;1.1272799968719482;0.0;0.0;0.0
1220;-0.5604680180549622;0.17372798919677734;1.0243120193481445;-0.40991997718811035;0.04391999915242195;1.1194720268249512;-6.278125286102295;-23.996875762939453;-23.15250015258789
1223;0.0;0.0;0.0;-0.35916799306869507;0.05563199892640114;1.0989760160446167;0.0;0.0;0.0
1225;0.0;0.0;0.0;-0.3201279938220978;0.032207999378442764;1.1067839860916138;0.0;0.0;0.0
1227;0.0;0.0;0.0;-0.3240320086479187;0.06734399497509003;1.066767930984497;0.0;0.0;0.0
1229;-0.45871999859809875;0.18836799263954163;0.9689239859580994;-0.284991979598999;0.03611199930310249;1.0657919645309448;-11.458125114440918;-22.806875228881836;-25.8125
1231;0.0;0.0;0.0;-0.2566879987716675;0.003903999924659729;1.042367935180664;0.0;0.0;0.0
1233;0.0;0.0;0.0;-0.2683999836444855;0.027327999472618103;1.0618879795074463;0.0;0.0;0.0
1235;0.0;0.0;0.0;-0.2332639992237091;0.027327999472618103;1.0501760244369507;0.0;0.0;0.0
1237;-0.3760039806365967;0.16274799406528473;0.9267119765281677;-0.18251200020313263;0.003903999924659729;1.042367935180664;-14.538125038146973;-20.146875381469727;-24.13249969482422
1240;0.0;0.0;0.0;-0.18641600012779236;0.023423999547958374;1.0296800136566162;0.0;0.0;0.0
1242;0.0;0.0;0.0;-0.1668960005044937;-0.019519999623298645;0.9847840070724487;0.0;0.0;0.0
1244;0.0;0.0;0.0;-0.15518400073051453;-0.003903999924659729;1.0052800178527832;0.0;0.0;0.0
1246;-0.2979239821434021;0.13566400110721588;0.8886479735374451;-0.14444799721240997;-0.015615999698638916;1.0091840028762817;-14.67812442779541;-17.066875457763672;-19.302499771118164
1248;0.0;0.0;0.0;-0.12785600125789642;-0.015615999698638916;0.9935680031776428;0.0;0.0;0.0
1250;0.0;0.0;0.0;-0.10150399804115295;-0.003903999924659729;0.9847840070724487;0.0;0.0;0.0
1252;0.0;0.0;0.0;-0.10540799796581268;-0.031231999397277832;0.9808799624443054;0.0;0.0;0.0
1254;-0.2327760010957718;0.1210239976644516;0.8618080019950867;-0.07027199864387512;-0.03903999924659729;0.9603840112686157;-12.718124389648438;-12.586874961853027;-13.282500267028809
1257;0.0;0.0;0.0;-0.0663679987192154;-0.027327999472618103;0.9691680073738098;0.0;0.0;0.0
1259;0.0;0.0;0.0;-0.05075199902057648;-0.031231999397277832;0.9652639627456665;0.0;0.0;0.0
1261;0.0;0.0;0.0;-0.03903999924659729;-0.05075199902057648;0.9847840070724487;0.0;0.0;0.0
1263;-0.1751919984817505;0.10174799710512161;0.855463981628418;-0.011711999773979187;-0.04684799909591675;0.9769759774208069;-9.918124198913574;-7.686875343322754;-8.172499656677246
1265;0.0;0.0;0.0;-0.00878399983048439;-0.057583998888731;0.9925919771194458;0.0;0.0;0.0
1267;0.0;0.0;0.0;0.0029279999434947968;-0.06539200246334076;0.9974719882011414;0.0;0.0;0.0
1269;0.0;0.0;0.0;0.0302559994161129;-0.045871999114751816;0.9847840070724487;0.0;0.0;0.0
1271;-0.10199199616909027;0.07515199482440948;0.871567964553833;0.06539200246334076;-0.08881600201129913;1.0091840028762817;-6.908124923706055;-1.736875057220459;-5.932499885559082
1274;0.0;0.0;0.0;0.07320000231266022;-0.07710400223731995;1.0091840028762817;0.0;0.0;0.0
1276;0.0;0.0;0.0;0.08881600201129913;-0.10052800178527832;1.0257760286331177;0.0;0.0;0.0
1278;0.0;0.0;0.0;0.0849120020866394;-0.10833600163459778;1.0130879878997803;0.0;0.0;0.0
1280;-0.053435999900102615;0.03391600027680397;0.8984079957008362;0.07320000231266022;-0.14737600088119507;1.0218719244003296;-4.738125324249268;4.073124885559082;-3.2725000381469727
1282;0.0;0.0;0.0;0.0936959981918335;-0.14054399728775024;1.0257760286331177;0.0;0.0;0.0
1284;0.0;0.0;0.0;0.10150399804115295;-0.12883199751377106;1.0579839944839478;0.0;0.0;0.0
1286;0.0;0.0;0.0;0.07417599856853485;-0.16396799683570862;1.0218719244003296;0.0;0.0;0.0
1288;-0.044895999133586884;-0.0012199999764561653;0.9196360111236572;0.0663679987192154;-0.1600639969110489;1.0501760244369507;-3.5481250286102295;9.3931245803833;-1.1024999618530273
1291;0.0;0.0;0.0;0.0663679987192154;-0.1327359974384308;1.0462720394134521;0.0;0.0;0.0
1293;0.0;0.0;0.0;0.07417599856853485;-0.14444799721240997;1.0501760244369507;0.0;0.0;0.0
1295;0.0;0.0;0.0;0.0663679987192154;-0.1327359974384308;1.0384639501571655;0.0;0.0;0.0
1297;-0.052216000854969025;-0.01512799970805645;0.9362279772758484;0.07027199864387512;-0.12883199751377106;1.0501760244369507;-2.3581252098083496;13.103124618530273;-0.4025000035762787
1299;0.0;0.0;0.0;0.07027199864387512;-0.16396799683570862;1.066767930984497;0.0;0.0;0.0
1301;0.0;0.0;0.0;0.03513599932193756;-0.1600639969110489;1.0706720352172852;0.0;0.0;0.0
1303;0.0;0.0;0.0;0.07027199864387512;-0.16396799683570862;1.0618879795074463;0.0;0.0;0.0
1305;-0.06026799976825714;-0.024156000465154648;0.9452559947967529;0.07027199864387512;-0.1756799966096878;1.0501760244369507;-1.0281249284744263;14.783124923706055;-1.1725000143051147
1308;0.0;0.0;0.0;0.07417599856853485;-0.17177599668502808;1.0462720394134521;0.0;0.0;0.0
1310;0.0;0.0;0.0;0.10540799796581268;-0.17177599668502808;1.0462720394134521;0.0;0.0;0.0
1312;0.0;0.0;0.0;0.10833600163459778;-0.1756799966096878;1.0579839944839478;0.0;0.0;0.0
1314;-0.03367199748754501;-0.04001599922776222;0.933788001537323;0.10540799796581268;-0.14444799721240997;1.0745760202407837;0.44187501072883606;14.573124885559082;-1.872499942779541
1316;0.0;0.0;0.0;0.10931199789047241;-0.1600639969110489;1.0823839902877808;0.0;0.0;0.0
1318;0.0;0.0;0.0;0.11711999773979187;-0.1756799966096878;1.0384639501571655;0.0;0.0;0.0
1320;0.0;0.0;0.0;0.1395680010318756;-0.19129599630832672;1.0296800136566162;0.0;0.0;0.0
1322;0.004635999910533428;-0.037087999284267426;0.9357399940490723;0.16299200057983398;-0.187391996383667;1.0579839944839478;1.4918750524520874;14.013124465942383;-3.0625
1325;0.0;0.0;0.0;0.16299200057983398;-0.14054399728775024;1.0745760202407837;0.0;0.0;0.0
1327;0.0;0.0;0.0;0.18251200020313263;-0.17177599668502808;1.0618879795074463;0.0;0.0;0.0
1329;0.0;0.0;0.0;0.2176479995250702;-0.19519999623298645;1.0618879795074463;0.0;0.0;0.0
1331;0.06954000145196915;-0.037087999284267426;0.9320799708366394;0.22545599937438965;-0.15615999698638916;1.066767930984497;2.1918749809265137;13.103124618530273;-3.3425002098083496
1333;0.0;0.0;0.0;0.22838398814201355;-0.20983999967575073;1.0296800136566162;0.0;0.0;0.0
1335;0.0;0.0;0.0;0.24009600281715393;-0.17470400035381317;1.0501760244369507;0.0;0.0;0.0
1337;0.0;0.0;0.0;0.2518079876899719;-0.22155199944972992;1.0218719244003296;0.0;0.0;0.0
1339;0.12199999392032623;-0.06197600066661835;0.9106079936027527;0.25571200251579285;-0.20203199982643127;1.0257760286331177;2.4018750190734863;13.943124771118164;-4.672500133514404
1342;0.0;0.0;0.0;0.29865598678588867;-0.1903200000524521;1.0052800178527832;0.0;0.0;0.0
1344;0.0;0.0;0.0;0.31036800146102905;-0.19422399997711182;1.0296800136566162;0.0;0.0;0.0
1346;0.0;0.0;0.0;0.3025600016117096;-0.22545599937438965;1.0052800178527832;0.0;0.0;0.0
1348;0.1727519929409027;-0.056120000779628754;0.8940159678459167;0.3181760013103485;-0.20203199982643127;1.0052800178527832;3.101874828338623;16.183124542236328;-8.592499732971191
1350;0.0;0.0;0.0;0.32598400115966797;-0.18251200020313263;1.0130879878997803;0.0;0.0;0.0
1352;0.0;0.0;0.0;0.35624000430107117;-0.19812799990177155;1.0296800136566162;0.0;0.0;0.0
1354;0.0;0.0;0.0;0.3757599890232086;-0.18641600012779236;1.0052800178527832;0.0;0.0;0.0
1356;0.22838398814201355;-0.04636000096797943;0.8942599892616272;0.39528000354766846;-0.20203199982643127;1.0052800178527832;3.3118748664855957;17.093124389648438;-13.072500228881836
1359;0.0;0.0;0.0;0.4382239878177643;-0.18641600012779236;1.017967939376831;0.0;0.0;0.0
1361;0.0;0.0;0.0;0.41870400309562683;-0.1239520013332367;1.0257760286331177;0.0;0.0;0.0
1363;0.0;0.0;0.0;0.41870400309562683;-0.17080000042915344;1.0374879837036133;0.0;0.0;0.0
1365;0.29865598678588867;-0.0378200002014637;0.8925519585609436;0.4147999882698059;-0.17080000042915344;1.0091840028762817;2.681874990463257;18.003124237060547;-16.292499542236328
1367;0.0;0.0;0.0;0.4382239878177643;-0.18641600012779236;1.0169919729232788;0.0;0.0;0.0
1369;0.0;0.0;0.0;0.44603198766708374;-0.14347200095653534;1.0501760244369507;0.0;0.0;0.0
1371;0.0;0.0;0.0;0.4772639870643616;-0.13566400110721588;1.0501760244369507;0.0;0.0;0.0
1373;0.34013599157333374;-0.008295999839901924;0.9128040075302124;0.48507198691368103;-0.13566400110721588;1.0540800094604492;0.861875057220459;18.77312469482422;-17.552499771118164
1376;0.0;0.0;0.0;0.5084959864616394;-0.1239520013332367;1.0628639459609985;0.0;0.0;0.0
1378;0.0;0.0;0.0;0.5123999714851379;-0.10443200170993805;1.0657919645309448;0.0;0.0;0.0
1380;0.0;0.0;0.0;0.5319200158119202;-0.09662400186061859;1.0706720352172852;0.0;0.0;0.0
1382;0.39015600085258484;0.017324000597000122;0.9408639669418335;0.5280159711837769;-0.10833600163459778;1.0950720310211182;-2.9181251525878906;19.683124542236328;-17.342500686645508
1384;0.0;0.0;0.0;0.5475360155105591;-0.10052800178527832;1.0706720352172852;0.0;0.0;0.0
1386;0.0;0.0;0.0;0.5709599852561951;-0.09272000193595886;1.0862879753112793;0.0;0.0;0.0
1388;0.0;0.0;0.0;0.6060959696769714;-0.10443200170993805;1.0823839902877808;0.0;0.0;0.0
1390;0.43602800369262695;0.025863999500870705;0.9576999545097351;0.5475360155105591;-0.10443200170993805;1.0901919603347778;-7.328125;21.433124542236328;-15.172500610351562
1393;0.0;0.0;0.0;0.5709599852561951;-0.10052800178527832;1.0706720352172852;0.0;0.0;0.0
1395;0.0;0.0;0.0;0.5709599852561951;-0.11224000155925751;1.0823839902877808;0.0;0.0;0.0
1397;0.0;0.0;0.0;0.6090239882469177;-0.11224000155925751;1.0823839902877808;0.0;0.0;0.0
1399;0.46750399470329285;0.02757199853658676;0.9637999534606934;0.5943840146064758;-0.10833600163459778;1.0706720352172852;-10.828125;23.393125534057617;-11.042500495910645
1401;0.0;0.0;0.0;0.6334239840507507;-0.08979199826717377;1.0540800094604492;0.0;0.0;0.0
1403;0.0;0.0;0.0;0.587552011013031;-0.1210239976644516;1.0823839902877808;0.0;0.0;0.0
1405;0.0;0.0;0.0;0.5758399963378906;-0.14054399728775024;1.0784800052642822;0.0;0.0;0.0
1407;0.4823879897594452;0.02025200054049492;0.9657520055770874;0.6178079843521118;-0.10540799796581268;1.0823839902877808;-12.858124732971191;24.443124771118164;-6.702500343322754
1410;0.0;0.0;0.0;0.6021919846534729;-0.08979199826717377;1.0823839902877808;0.0;0.0;0.0
1412;0.0;0.0;0.0;0.6256160140037537;-0.12492799758911133;1.1233760118484497;0.0;0.0;0.0
1414;0.0;0.0;0.0;0.6373279690742493;-0.12492799758911133;1.1350879669189453;0.0;0.0;0.0
1416;0.4975159764289856;0.015371999703347683;0.9791719913482666;0.6451359987258911;-0.1210239976644516;1.1028800010681152;-13.558124542236328;23.74312400817871;-3.2725000381469727
1418;0.0;0.0;0.0;0.6519680023193359;-0.13566400110721588;1.1272799968719482;0.0;0.0;0.0
1420;0.0;0.0;0.0;0.659775972366333;-0.1395680010318756;1.1067839860916138;0.0;0.0;0.0
1422;0.0;0.0;0.0;0.6480640172958374;-0.1239520013332367;1.1106879711151123;0.0;0.0;0.0
1424;0.530456006526947;0.007319999858736992;0.9869799613952637;0.6636799573898315;-0.1239520013332367;1.0950720310211182;-13.558124542236328;23.323123931884766;-1.872499942779541
1427;0.0;0.0;0.0;0.7105280160903931;-0.13176000118255615;1.1194720268249512;0.0;0.0;0.0
1429;0.0;0.0;0.0;0.6792960166931152;-0.14737600088119507;1.0989760160446167;0.0;0.0;0.0
1431;0.0;0.0;0.0;0.7222399711608887;-0.17080000042915344;1.1106879711151123;0.0;0.0;0.0
1433;0.574131965637207;-0.019519999623298645;0.9891759753227234;0.6988160014152527;-0.18641600012779236;1.0950720310211182;-13.698124885559082;22.203125;-2.992500066757202
1435;0.0;0.0;0.0;0.6949119567871094;-0.17080000042915344;1.1194720268249512;0.0;0.0;0.0
1437;0.0;0.0;0.0;0.7027199864387512;-0.18251200020313263;1.1477760076522827;0.0;0.0;0.0
1439;0.0;0.0;0.0;0.6910079717636108;-0.22545599937438965;1.1477760076522827;0.0;0.0;0.0
1441;0.5685200095176697;-0.062219999730587006;1.0089399814605713;0.6792960166931152;-0.22545599937438965;1.1838879585266113;-13.7681245803833;21.853124618530273;-3.202500104904175
1444;0.0;0.0;0.0;0.6988160014152527;-0.2332639992237091;1.1555839776992798;0.0;0.0;0.0
1446;0.0;0.0;0.0;0.7066239714622498;-0.22935999929904938;1.1555839776992798;0.0;0.0;0.0
1448;0.0;0.0;0.0;0.7105280160903931;-0.20203199982643127;1.1350879669189453;0.0;0.0;0.0
1450;0.5768159627914429;-0.08515600115060806;1.0265079736709595;0.7222399711608887;-0.2332639992237091;1.1311839818954468;-15.028124809265137;20.38312530517578;-8.032500267028809
1452;0.0;0.0;0.0;0.7300480008125305;-0.22935999929904938;1.1350879669189453;0.0;0.0;0.0
1454;0.0;0.0;0.0;0.6988160014152527;-0.24107199907302856;1.1067839860916138;0.0;0.0;0.0
1456;0.0;0.0;0.0;0.7222399711608887;-0.2449759989976883;1.09116792678833;0.0;0.0;0.0
1458;0.59853196144104;-0.08857199549674988;0.9938119649887085;0.6714879870414734;-0.20203199982643127;1.0989760160446167;-13.138124465942383;21.29312515258789;-13.352499961853027
1461;0.0;0.0;0.0;0.6871039867401123;-0.205935999751091;1.0989760160446167;0.0;0.0;0.0
1463;0.0;0.0;0.0;0.7300480008125305;-0.18641600012779236;1.1194720268249512;0.0;0.0;0.0
1465;0.0;0.0;0.0;0.7183359861373901;-0.20203199982643127;1.1233760118484497;0.0;0.0;0.0
1467;0.5902360081672668;-0.08271599560976028;0.9862479567527771;0.7066239714622498;-0.205935999751091;1.0989760160446167;-7.118124961853027;23.813125610351562;-16.572500228881836
1469;0.0;0.0;0.0;0.7300480008125305;-0.22155199944972992;1.1067839860916138;0.0;0.0;0.0
1471;0.0;0.0;0.0;0.733951985836029;-0.19422399997711182;1.1067839860916138;0.0;0.0;0.0
1473;0.0;0.0;0.0;0.7378559708595276;-0.19422399997711182;1.1272799968719482;0.0;0.0;0.0
1475;0.6034119725227356;-0.07027199864387512;0.9972279667854309;0.733951985836029;-0.19812799990177155;1.1438720226287842;0.9318750500679016;26.893125534057617;-16.4325008392334
1478;0.0;0.0;0.0;0.749567985534668;-0.18251200020313263;1.1233760118484497;0.0;0.0;0.0
1480;0.0;0.0;0.0;0.7417600154876709;-0.1668960005044937;1.1555839776992798;0.0;0.0;0.0
1482;0.0;0.0;0.0;0.757375955581665;-0.13566400110721588;1.1682720184326172;0.0;0.0;0.0
1484;0.6197599768638611;-0.03611199930310249;1.0284600257873535;0.749567985534668;-0.15518400073051453;1.1633919477462769;9.891875267028809;28.643125534057617;-12.3725004196167
1486;0.0;0.0;0.0;0.7456640005111694;-0.15908800065517426;1.1799839735031128;0.0;0.0;0.0
1488;0.0;0.0;0.0;0.7534719705581665;-0.14737600088119507;1.1838879585266113;0.0;0.0;0.0
1490;0.0;0.0;0.0;0.7534719705581665;-0.1512800008058548;1.1916959285736084;0.0;0.0;0.0
1492;0.6295199990272522;-0.0014639999717473984;1.0518839359283447;0.749567985534668;-0.11614400148391724;1.1633919477462769;17.941875457763672;28.0831241607666;-4.952499866485596
1495;0.0;0.0;0.0;0.757375955581665;-0.12004800140857697;1.1838879585266113;0.0;0.0;0.0
1497;0.0;0.0;0.0;0.7222399711608887;-0.13566400110721588;1.1760799884796143;0.0;0.0;0.0
1499;0.0;0.0;0.0;0.7222399711608887;-0.12004800140857697;1.1838879585266113;0.0;0.0;0.0
1501;0.6165879964828491;0.00634399987757206;1.067255973815918;0.733951985836029;-0.14737600088119507;1.1965759992599487;23.33187484741211;26.753124237060547;3.237499952316284
1503;0.0;0.0;0.0;0.7261439561843872;-0.14347200095653534;1.2160959243774414;0.0;0.0;0.0
1505;0.0;0.0;0.0;0.6949119567871094;-0.11224000155925751;1.2287839651107788;0.0;0.0;0.0
1507;0.0;0.0;0.0;0.733951985836029;-0.1395680010318756;1.2121919393539429;0.0;0.0;0.0
1509;0.5914559960365295;-0.0017079999670386314;1.0882400274276733;0.7027199864387512;-0.14737600088119507;1.2160959243774414;25.2918758392334;23.533124923706055;9.257499694824219
1512;0.0;0.0;0.0;0.7183359861373901;-0.13566400110721588;1.2004799842834473;0.0;0.0;0.0
1514;0.0;0.0;0.0;0.6910079717636108;-0.15518400073051453;1.2209759950637817;0.0;0.0;0.0
1516;0.0;0.0;0.0;0.6910079717636108;-0.1395680010318756;1.1965759992599487;0.0;0.0;0.0
1518;0.5777919888496399;-0.013907999731600285;1.0889719724655151;0.6949119567871094;-0.14347200095653534;1.2004799842834473;23.5418758392334;18.77312469482422;12.617500305175781
1520;0.0;0.0;0.0;0.6988160014152527;-0.1786080002784729;1.2287839651107788;0.0;0.0;0.0
1522;0.0;0.0;0.0;0.6558719873428345;-0.18641600012779236;1.2004799842834473;0.0;0.0;0.0
1524;0.0;0.0;0.0;0.6949119567871094;-0.17470400035381317;1.2248799800872803;0.0;0.0;0.0
1526;0.5636399984359741;-0.03367199748754501;1.0904359817504883;0.6949119567871094;-0.19812799990177155;1.2121919393539429;20.181875228881836;14.29312515258789;13.037500381469727
1529;0.0;0.0;0.0;0.7027199864387512;-0.17470400035381317;1.1926720142364502;0.0;0.0;0.0
1531;0.0;0.0;0.0;0.7027199864387512;-0.1903200000524521;1.1965759992599487;0.0;0.0;0.0
1533;0.0;0.0;0.0;0.7027199864387512;-0.22935999929904938;1.2160959243774414;0.0;0.0;0.0
1535;0.56632399559021;-0.054655998945236206;1.0931199789047241;0.659775972366333;-0.1903200000524521;1.2248799800872803;15.141875267028809;10.443124771118164;12.1274995803833
1537;0.0;0.0;0.0;0.6792960166931152;-0.23716799914836884;1.2248799800872803;0.0;0.0;0.0
1539;0.0;0.0;0.0;0.6675840020179749;-0.22545599937438965;1.2326879501342773;0.0;0.0;0.0
1541;0.0;0.0;0.0;0.6207360029220581;-0.22935999929904938;1.2121919393539429;0.0;0.0;0.0
1543;0.5321639776229858;-0.0849120020866394;1.1060519218444824;0.6051200032234192;-0.21374399960041046;1.2326879501342773;9.471875190734863;5.823124885559082;10.9375
1546;0.0;0.0;0.0;0.5904799699783325;-0.2449759989976883;1.2365919351577759;0.0;0.0;0.0
1548;0.0;0.0;0.0;0.6285439729690552;-0.260591983795166;1.2570879459381104;0.0;0.0;0.0
1550;0.0;0.0;0.0;0.5982879996299744;-0.27620798349380493;1.2248799800872803;0.0;0.0;0.0
1552;0.501908004283905;-0.11248400062322617;1.1141040325164795;0.636352002620697;-0.28011199831962585;1.2209759950637817;4.431874752044678;-0.40687498450279236;8.767499923706055
1554;0.0;0.0;0.0;0.5982879996299744;-0.260591983795166;1.2326879501342773;0.0;0.0;0.0
1556;0.0;0.0;0.0;0.5982879996299744;-0.2723039984703064;1.2160959243774414;0.0;0.0;0.0
1558;0.0;0.0;0.0;0.6246399879455566;-0.29572799801826477;1.2365919351577759;0.0;0.0;0.0
1560;0.5014199614524841;-0.14615599811077118;1.1075159311294556;0.6168320178985596;-0.3152479827404022;1.2209759950637817;1.1418750286102295;-6.846875190734863;7.577499866485596
1563;0.0;0.0;0.0;0.6324479579925537;-0.31915199756622314;1.2121919393539429;0.0;0.0;0.0
1565;0.0;0.0;0.0;0.6441599726676941;-0.3113439977169037;1.1965759992599487;0.0;0.0;0.0
1567;0.0;0.0;0.0;0.636352002620697;-0.34647998213768005;1.2160959243774414;0.0;0.0;0.0
1569;0.5148400068283081;-0.18519599735736847;1.0899479389190674;0.6285439729690552;-0.36209598183631897;1.1838879585266113;-0.6081249713897705;-12.936875343322754;6.877500057220459
1571;0.0;0.0;0.0;0.6285439729690552;-0.350383996963501;1.1838879585266113;0.0;0.0;0.0
1573;0.0;0.0;0.0;0.6480640172958374;-0.350383996963501;1.1838879585266113;0.0;0.0;0.0
1575;0.0;0.0;0.0;0.6246399879455566;-0.35819199681282043;1.1555839776992798;0.0;0.0;0.0
1577;0.5192319750785828;-0.21691599488258362;1.0577399730682373;0.636352002620697;-0.3699039816856384;1.1721760034561157;-0.18812501430511475;-17.276874542236328;5.827499866485596
1580;0.0;0.0;0.0;0.659775972366333;-0.3777119815349579;1.1516799926757812;0.0;0.0;0.0
1582;0.0;0.0;0.0;0.6324479579925537;-0.4089439809322357;1.1350879669189453;0.0;0.0;0.0
1584;0.0;0.0;0.0;0.659775972366333;-0.38942399621009827;1.1350879669189453;0.0;0.0;0.0
1586;0.5192319750785828;-0.24058400094509125;1.030411958694458;0.6207360029220581;-0.40113598108291626;1.1233760118484497;1.5618749856948853;-20.286874771118164;3.237499952316284
1588;0.0;0.0;0.0;0.6441599726676941;-0.40113598108291626;1.1194720268249512;0.0;0.0;0.0
1590;0.0;0.0;0.0;0.6012159585952759;-0.3542879819869995;1.1438720226287842;0.0;0.0;0.0
1592;0.0;0.0;0.0;0.5982879996299744;-0.3816159963607788;1.1516799926757812;0.0;0.0;0.0
1595;0.4984920024871826;-0.25034400820732117;1.0145519971847534;0.5787680149078369;-0.42846399545669556;1.1516799926757812;3.8718748092651367;-22.38687515258789;-0.12250000238418579
1597;0.0;0.0;0.0;0.5943840146064758;-0.3933279812335968;1.1106879711151123;0.0;0.0;0.0
1599;0.0;0.0;0.0;0.6090239882469177;-0.38942399621009827;1.0989760160446167;0.0;0.0;0.0
1601;0.0;0.0;0.0;0.6021919846534729;-0.38942399621009827;1.1272799968719482;0.0;0.0;0.0
1603;0.476531982421875;-0.2542479932308197;0.9933239817619324;0.563152015209198;-0.3816159963607788;1.1028800010681152;5.901875019073486;-24.20687484741211;-3.9725000858306885
1605;0.0;0.0;0.0;0.5592479705810547;-0.4089439809322357;1.0823839902877808;0.0;0.0;0.0
1607;0.0;0.0;0.0;0.5592479705810547;-0.3777119815349579;1.0950720310211182;0.0;0.0;0.0
1609;0.0;0.0;0.0;0.5514400005340576;-0.38942399621009827;1.0618879795074463;0.0;0.0;0.0
1612;0.440420001745224;-0.24985599517822266;0.965507984161377;0.5592479705810547;-0.38551998138427734;1.0540800094604492;8.841875076293945;-26.026874542236328;-7.402500152587891
1614;0.0;0.0;0.0;0.5553439855575562;-0.38551998138427734;1.0462720394134521;0.0;0.0;0.0
1616;0.0;0.0;0.0;0.5241119861602783;-0.3542879819869995;1.0462720394134521;0.0;0.0;0.0
1618;0.0;0.0;0.0;0.5006880164146423;-0.3777119815349579;1.0335839986801147;0.0;0.0;0.0
1620;0.4169960021972656;-0.23375199735164642;0.9354959726333618;0.5241119861602783;-0.3699039816856384;1.0374879837036133;12.41187572479248;-27.776874542236328;-11.672499656677246
1622;0.0;0.0;0.0;0.5202080011367798;-0.3386719822883606;1.0501760244369507;0.0;0.0;0.0
1624;0.0;0.0;0.0;0.5123999714851379;-0.35819199681282043;1.0462720394134521;0.0;0.0;0.0
1626;0.0;0.0;0.0;0.5045920014381409;-0.30353599786758423;1.0462720394134521;0.0;0.0;0.0
1629;0.39235198497772217;-0.19690799713134766;0.9198799729347229;0.5045920014381409;-0.3113439977169037;1.0335839986801147;15.211875915527344;-29.45687484741211;-15.522500038146973
1631;0.0;0.0;0.0;0.5123999714851379;-0.29572799801826477;1.0130879878997803;0.0;0.0;0.0
1633;0.0;0.0;0.0;0.47336000204086304;-0.2879199981689453;1.042367935180664;0.0;0.0;0.0
1635;0.0;0.0;0.0;0.5045920014381409;-0.2683999836444855;1.0013760328292847;0.0;0.0;0.0
1637;0.37502798438072205;-0.14591199159622192;0.9047519564628601;0.4967840015888214;-0.24887999892234802;1.017967939376831;16.821874618530273;-28.896875381469727;-19.65250015258789
1639;0.0;0.0;0.0;0.5163040161132812;-0.2723039984703064;1.0130879878997803;0.0;0.0;0.0
1641;0.0;0.0;0.0;0.5280159711837769;-0.22545599937438965;1.0052800178527832;0.0;0.0;0.0
1643;0.0;0.0;0.0;0.5319200158119202;-0.1668960005044937;1.0540800094604492;0.0;0.0;0.0
1646;0.39528000354766846;-0.0936959981918335;0.9081679582595825;0.5358240008354187;-0.22155199944972992;1.0335839986801147;16.821874618530273;-26.93687629699707;-21.332500457763672
1648;0.0;0.0;0.0;0.5280159711837769;-0.18641600012779236;1.066767930984497;0.0;0.0;0.0
1650;0.0;0.0;0.0;0.5084959864616394;-0.18641600012779236;1.0501760244369507;0.0;0.0;0.0
1652;0.0;0.0;0.0;0.5084959864616394;-0.1903200000524521;0.9886879920959473;0.0;0.0;0.0
1654;0.3962559998035431;-0.06709999591112137;0.9067040085792542;0.5202080011367798;-0.205935999751091;1.0013760328292847;12.271875381469727;-25.746875762939453;-16.642499923706055
1656;0.0;0.0;0.0;0.5006880164146423;-0.17470400035381317;0.9974719882011414;0.0;0.0;0.0
1658;0.0;0.0;0.0;0.4928799867630005;-0.18251200020313263;0.9769759774208069;0.0;0.0;0.0
1660;0.0;0.0;0.0;0.4577440023422241;-0.18251200020313263;0.9642879962921143;0.0;0.0;0.0
1663;0.354775995016098;-0.048555999994277954;0.8620519638061523;0.4538399875164032;-0.18641600012779236;0.9681919813156128;9.611875534057617;-21.896875381469727;-9.71250057220459
1665;0.0;0.0;0.0;0.4108960032463074;-0.20203199982643127;0.9603840112686157;0.0;0.0;0.0
1667;0.0;0.0;0.0;0.40699198842048645;-0.20203199982643127;0.9847840070724487;0.0;0.0;0.0
1669;0.0;0.0;0.0;0.36111998558044434;-0.19812799990177155;0.9886879920959473;0.0;0.0;0.0
1671;0.2718159854412079;-0.06417199969291687;0.8598560094833374;0.3572160005569458;-0.205935999751091;0.9847840070724487;10.451875686645508;-17.836875915527344;-5.232500076293945
1673;0.0;0.0;0.0;0.3337920010089874;-0.19812799990177155;1.0013760328292847;0.0;0.0;0.0
1675;0.0;0.0;0.0;0.3142719864845276;-0.19422399997711182;1.0257760286331177;0.0;0.0;0.0
1677;0.0;0.0;0.0;0.3142719864845276;-0.20203199982643127;1.0091840028762817;0.0;0.0;0.0
1680;0.19885998964309692;-0.05929199978709221;0.8835240006446838;0.29475200176239014;-0.20203199982643127;1.0091840028762817;11.361875534057617;-15.316875457763672;-5.582499980926514
1682;0.0;0.0;0.0;0.28303998708724976;-0.1903200000524521;1.0052800178527832;0.0;0.0;0.0
1684;0.0;0.0;0.0;0.3025600016117096;-0.21374399960041046;1.0130879878997803;0.0;0.0;0.0
1686;0.0;0.0;0.0;0.28303998708724976;-0.20983999967575073;1.0374879837036133;0.0;0.0;0.0
1688;0.16616399586200714;-0.0634399950504303;0.8974319696426392;0.29865598678588867;-0.18251200020313263;1.0130879878997803;11.361875534057617;-14.266875267028809;-7.122499942779541
1690;0.0;0.0;0.0;0.28303998708724976;-0.20203199982643127;1.0257760286331177;0.0;0.0;0.0
1692;0.0;0.0;0.0;0.28303998708724976;-0.21374399960041046;1.0335839986801147;0.0;0.0;0.0
1694;0.0;0.0;0.0;0.29475200176239014;-0.19422399997711182;1.0257760286331177;0.0;0.0;0.0
1697;0.15615999698638916;-0.07393199950456619;0.9049959778785706;0.26742398738861084;-0.22155199944972992;1.0218719244003296;10.801875114440918;-12.866875648498535;-8.662500381469727
1699;0.0;0.0;0.0;0.2635200023651123;-0.19812799990177155;1.0335839986801147;0.0;0.0;0.0
1701;0.0;0.0;0.0;0.25571200251579285;-0.20983999967575073;1.0706720352172852;0.0;0.0;0.0
1703;0.0;0.0;0.0;0.25571200251579285;-0.22155199944972992;1.0413919687271118;0.0;0.0;0.0
1705;0.140299990773201;-0.07685999572277069;0.9120720028877258;0.2635200023651123;-0.20983999967575073;1.0335839986801147;9.051875114440918;-10.69687557220459;-9.432499885559082
1707;0.0;0.0;0.0;0.24399998784065247;-0.2176479995250702;1.0335839986801147;0.0;0.0;0.0
1709;0.0;0.0;0.0;0.22448000311851501;-0.19812799990177155;1.0413919687271118;0.0;0.0;0.0
1711;0.0;0.0;0.0;0.2518079876899719;-0.1903200000524521;1.042367935180664;0.0;0.0;0.0
1714;0.12443999946117401;-0.07441999763250351;0.9154880046844482;0.22838398814201355;-0.20203199982643127;1.042367935180664;6.461874961853027;-8.316875457763672;-10.132499694824219
1716;0.0;0.0;0.0;0.2088640034198761;-0.1786080002784729;1.0374879837036133;0.0;0.0;0.0
1718;0.0;0.0;0.0;0.2088640034198761;-0.19422399997711182;1.0501760244369507;0.0;0.0;0.0
1720;0.0;0.0;0.0;0.17763200402259827;-0.1786080002784729;1.0579839944839478;0.0;0.0;0.0
1722;0.07881199568510056;-0.06685599684715271;0.9350079894065857;0.15811198949813843;-0.1903200000524521;1.0462720394134521;3.661875009536743;-5.026875019073486;-11.322500228881836
1724;0.0;0.0;0.0;0.15030398964881897;-0.1668960005044937;1.0862879753112793;0.0;0.0;0.0
1726;0.0;0.0;0.0;0.09662400186061859;-0.19422399997711182;1.0823839902877808;0.0;0.0;0.0
1728;0.0;0.0;0.0;0.11126399785280228;-0.18641600012779236;1.0823839902877808;0.0;0.0;0.0
1731;0.0024399999529123306;-0.052947998046875;0.9576999545097351;0.09564799815416336;-0.19422399997711182;1.0989760160446167;-0.398125022649765;-1.946874976158142;-14.1225004196167
1733;0.0;0.0;0.0;0.08100800216197968;-0.1786080002784729;1.1067839860916138;0.0;0.0;0.0
1735;0.0;0.0;0.0;0.06929600238800049;-0.1668960005044937;1.0989760160446167;0.0;0.0;0.0
1737;0.0;0.0;0.0;0.03806399926543236;-0.17080000042915344;1.1233760118484497;0.0;0.0;0.0
1739;-0.054655998945236206;-0.03245199844241142;0.981611967086792;0.06148799881339073;-0.16299200057983398;1.1311839818954468;-4.10812520980835;1.3431249856948853;-17.762500762939453
1741;0.0;0.0;0.0;0.049775999039411545;-0.1512800008058548;1.1311839818954468;0.0;0.0;0.0
1743;0.0;0.0;0.0;0.03415999934077263;-0.14737600088119507;1.1106879711151123;0.0;0.0;0.0
1745;0.0;0.0;0.0;0.006831999868154526;-0.15908800065517426;1.1272799968719482;0.0;0.0;0.0
1748;-0.10174799710512161;-0.023667998611927032;1.0057679414749146;-0.028303999453783035;-0.15908800065517426;1.1311839818954468;-6.69812536239624;4.073124885559082;-19.862499237060547
1750;0.0;0.0;0.0;-0.020495999604463577;-0.13176000118255615;1.1555839776992798;0.0;0.0;0.0
1752;0.0;0.0;0.0;-0.0634399950504303;-0.14347200095653534;1.1438720226287842;0.0;0.0;0.0
1754;0.0;0.0;0.0;-0.05172799900174141;-0.16299200057983398;1.1477760076522827;0.0;0.0;0.0
1756;-0.16884799301624298;-0.015371999703347683;1.0287039279937744;-0.05172799900174141;-0.13566400110721588;1.1438720226287842;-7.888124942779541;5.473124980926514;-19.442501068115234
1758;0.0;0.0;0.0;-0.11028799414634705;-0.13176000118255615;1.1594879627227783;0.0;0.0;0.0
1760;0.0;0.0;0.0;-0.1180959939956665;-0.1395680010318756;1.1838879585266113;0.0;0.0;0.0
1763;0.0;0.0;0.0;-0.12590399384498596;-0.10833600163459778;1.1633919477462769;0.0;0.0;0.0
1765;-0.25107598304748535;-0.0024399999529123306;1.0487120151519775;-0.1483519971370697;-0.12785600125789642;1.1516799926757812;-7.60812520980835;4.703125;-16.712499618530273
1767;0.0;0.0;0.0;-0.1454239934682846;-0.12785600125789642;1.1877919435501099;0.0;0.0;0.0
1769;0.0;0.0;0.0;-0.16787199676036835;-0.1239520013332367;1.1916959285736084;0.0;0.0;0.0
1771;0.0;0.0;0.0;-0.2030079960823059;-0.12004800140857697;1.1799839735031128;0.0;0.0;0.0
1773;-0.3089039921760559;0.007807999849319458;1.0660359859466553;-0.17958399653434753;-0.12004800140857697;1.1965759992599487;-6.768125057220459;2.6031250953674316;-13.772500038146973
1775;0.0;0.0;0.0;-0.2030079960823059;-0.12785600125789642;1.2121919393539429;0.0;0.0;0.0
1777;0.0;0.0;0.0;-0.21862399578094482;-0.12004800140857697;1.2121919393539429;0.0;0.0;0.0
1780;0.0;0.0;0.0;-0.21862399578094482;-0.10443200170993805;1.2043839693069458;0.0;0.0;0.0
1782;-0.33940398693084717;0.01659199967980385;1.0860439538955688;-0.19910399615764618;-0.1239520013332367;1.2121919393539429;-6.69812536239624;-0.2668749988079071;-11.8125
1784;0.0;0.0;0.0;-0.2030079960823059;-0.10833600163459778;1.2160959243774414;0.0;0.0;0.0
1786;0.0;0.0;0.0;-0.21081599593162537;-0.12785600125789642;1.2160959243774414;0.0;0.0;0.0
1788;0.0;0.0;0.0;-0.20691199600696564;-0.12785600125789642;1.2248799800872803;0.0;0.0;0.0
1790;-0.3306199908256531;0.015615999698638916;1.095315933227539;-0.22252799570560455;-0.1395680010318756;1.2492799758911133;-7.888124942779541;-1.6668750047683716;-11.112500190734863
1792;0.0;0.0;0.0;-0.22643199563026428;-0.14737600088119507;1.2209759950637817;0.0;0.0;0.0
1794;0.0;0.0;0.0;-0.22252799570560455;-0.14347200095653534;1.2287839651107788;0.0;0.0;0.0
1797;0.0;0.0;0.0;-0.230335995554924;-0.1239520013332367;1.2287839651107788;0.0;0.0;0.0
1799;-0.3357439935207367;0.004635999910533428;1.108247995376587;-0.19129599630832672;-0.14737600088119507;1.2365919351577759;-9.288125038146973;-0.6168749928474426;-10.692500114440918
1801;0.0;0.0;0.0;-0.230335995554924;-0.14737600088119507;1.2570879459381104;0.0;0.0;0.0
1803;0.0;0.0;0.0;-0.21081599593162537;-0.1512800008058548;1.2444000244140625;0.0;0.0;0.0
1805;0.0;0.0;0.0;-0.2420479953289032;-0.13566400110721588;1.2609919309616089;0.0;0.0;0.0
1807;-0.3550199866294861;-0.006587999872863293;1.1336239576339722;-0.230335995554924;-0.15908800065517426;1.2775839567184448;-10.198124885559082;2.323125123977661;-10.412500381469727
1809;0.0;0.0;0.0;-0.284991979598999;-0.1668960005044937;1.2814879417419434;0.0;0.0;0.0
1811;0.0;0.0;0.0;-0.30060797929763794;-0.13176000118255615;1.3058879375457764;0.0;0.0;0.0
1814;0.0;0.0;0.0;-0.32793599367141724;-0.16299200057983398;1.2932000160217285;0.0;0.0;0.0
1816;-0.4374919831752777;-0.015615999698638916;1.1687599420547485;-0.37380799651145935;-0.12004800140857697;1.313696026802063;-10.688124656677246;4.633124828338623;-9.642499923706055
1818;0.0;0.0;0.0;-0.38942399621009827;-0.13176000118255615;1.3224799633026123;0.0;0.0;0.0
1820;0.0;0.0;0.0;-0.42455998063087463;-0.1395680010318756;1.3176000118255615;0.0;0.0;0.0
1822;0.0;0.0;0.0;-0.45579198002815247;-0.18641600012779236;1.3302879333496094;0.0;0.0;0.0
1824;-0.5399720072746277;-0.019276000559329987;1.1909639835357666;-0.4635999798774719;-0.1512800008058548;1.3019839525222778;-10.548124313354492;4.42312479019165;-8.942500114440918
1826;0.0;0.0;0.0;-0.4714079797267914;-0.15908800065517426;1.2932000160217285;0.0;0.0;0.0
1828;0.0;0.0;0.0;-0.4596959948539734;-0.1668960005044937;1.285391926765442;0.0;0.0;0.0
1831;0.0;0.0;0.0;-0.4987359941005707;-0.17080000042915344;1.2932000160217285;0.0;0.0;0.0
1833;-0.6117079854011536;-0.02781599946320057;1.1841319799423218;-0.4909279942512512;-0.1786080002784729;1.309791922569275;-9.008124351501465;1.9031250476837158;-9.922499656677246
1835;0.0;0.0;0.0;-0.5143519639968872;-0.1668960005044937;1.2980799674987793;0.0;0.0;0.0
1837;0.0;0.0;0.0;-0.5026400089263916;-0.15908800065517426;1.2980799674987793;0.0;0.0;0.0
1839;0.0;0.0;0.0;-0.5182560086250305;-0.18251200020313263;1.2814879417419434;0.0;0.0;0.0
1841;-0.6451359987258911;-0.0348920002579689;1.1631479263305664;-0.5260639786720276;-0.16299200057983398;1.2736799716949463;-5.788125038146973;-1.2468750476837158;-12.092499732971191
1843;0.0;0.0;0.0;-0.5533919930458069;-0.19812799990177155;1.2492799758911133;0.0;0.0;0.0
1845;0.0;0.0;0.0;-0.5026400089263916;-0.1395680010318756;1.2365919351577759;0.0;0.0;0.0
1848;0.0;0.0;0.0;-0.5065439939498901;-0.18251200020313263;1.2287839651107788;0.0;0.0;0.0
1850;-0.6412320137023926;-0.03757599741220474;1.1228879690170288;-0.48311999440193176;-0.15518400073051453;1.2404959201812744;-0.18812501430511475;-4.536875247955322;-14.752500534057617
1852;0.0;0.0;0.0;-0.47921597957611084;-0.14347200095653534;1.2043839693069458;0.0;0.0;0.0
1854;0.0;0.0;0.0;-0.48311999440193176;-0.14347200095653534;1.2209759950637817;0.0;0.0;0.0
1856;0.0;0.0;0.0;-0.45579198002815247;-0.13566400110721588;1.1877919435501099;0.0;0.0;0.0
1858;-0.5999959707260132;-0.01512799970805645;1.0892159938812256;-0.4440799951553345;-0.13176000118255615;1.1965759992599487;7.091875076293945;-6.636875152587891;-17.13249969482422
1860;0.0;0.0;0.0;-0.42455998063087463;-0.09662400186061859;1.2121919393539429;0.0;0.0;0.0
1862;0.0;0.0;0.0;-0.3972319960594177;-0.08881600201129913;1.1926720142364502;0.0;0.0;0.0
1865;0.0;0.0;0.0;-0.41284799575805664;-0.09272000193595886;1.1760799884796143;0.0;0.0;0.0
1867;-0.5360679626464844;0.02903600037097931;1.073356032371521;-0.37088000774383545;-0.09662400186061859;1.2082879543304443;13.531875610351562;-7.406875133514404;-18.672500610351562
1869;0.0;0.0;0.0;-0.3474559783935547;-0.07710400223731995;1.1877919435501099;0.0;0.0;0.0
1871;0.0;0.0;0.0;-0.3474559783935547;-0.0302559994161129;1.1916959285736084;0.0;0.0;0.0
1873;0.0;0.0;0.0;-0.3630719780921936;-0.053679998964071274;1.1877919435501099;0.0;0.0;0.0
1875;-0.47457998991012573;0.08686399459838867;1.070915937423706;-0.33183997869491577;-0.04196799919009209;1.1760799884796143;16.961875915527344;-7.126875400543213;-18.112499237060547
1877;0.0;0.0;0.0;-0.3201279938220978;-0.010735999792814255;1.1916959285736084;0.0;0.0;0.0
1879;0.0;0.0;0.0;-0.3201279938220978;0.0009759999811649323;1.1682720184326172;0.0;0.0;0.0
1882;0.0;0.0;0.0;-0.30060797929763794;-0.0302559994161129;1.1516799926757812;0.0;0.0;0.0
1884;-0.44993600249290466;0.11370399594306946;1.050663948059082;-0.3084160089492798;0.00878399983048439;1.1633919477462769;17.031875610351562;-5.866875171661377;-16.712499618530273
1886;0.0;0.0;0.0;-0.284991979598999;-0.022447999566793442;1.1272799968719482;0.0;0.0;0.0
1888;0.0;0.0;0.0;-0.284991979598999;-0.02635199949145317;1.1350879669189453;0.0;0.0;0.0
1890;0.0;0.0;0.0;-0.2654719948768616;-0.014639999717473984;1.0989760160446167;0.0;0.0;0.0
1892;-0.4165079891681671;0.11565599590539932;1.0072319507598877;-0.2810879945755005;-0.010735999792814255;1.1028800010681152;16.961875915527344;-3.556874990463257;-14.1225004196167
1894;0.0;0.0;0.0;-0.2693759799003601;-0.010735999792814255;1.1067839860916138;0.0;0.0;0.0
1896;0.0;0.0;0.0;-0.26156800985336304;0.00878399983048439;1.0823839902877808;0.0;0.0;0.0
1899;0.0;0.0;0.0;-0.23814399540424347;-0.014639999717473984;1.0950720310211182;0.0;0.0;0.0
1901;-0.37966400384902954;0.12590399384498596;0.9764879941940308;-0.22252799570560455;0.00878399983048439;1.0862879753112793;19.481876373291016;-1.1768749952316284;-9.22249984741211
1903;0.0;0.0;0.0;-0.23814399540424347;0.01268799975514412;1.1067839860916138;0.0;0.0;0.0
1905;0.0;0.0;0.0;-0.23423999547958374;0.020495999604463577;1.0823839902877808;0.0;0.0;0.0
1907;0.0;0.0;0.0;-0.21862399578094482;0.04001599922776222;1.1028800010681152;0.0;0.0;0.0
1909;-0.34867599606513977;0.15274399518966675;0.9694119691848755;-0.22643199563026428;0.04001599922776222;1.0784800052642822;22.35187530517578;-0.33687499165534973;-3.0625
1911;0.0;0.0;0.0;-0.18348799645900726;0.04391999915242195;1.0784800052642822;0.0;0.0;0.0
1913;0.0;0.0;0.0;-0.17958399653434753;0.03611199930310249;1.0901919603347778;0.0;0.0;0.0
1916;0.0;0.0;0.0;-0.187391996383667;0.04001599922776222;1.0618879795074463;0.0;0.0;0.0
1918;-0.3215920031070709;0.17909599840641022;0.9508680105209351;-0.19129599630832672;0.04391999915242195;1.0540800094604492;22.841875076293945;-0.8968750238418579;2.4674999713897705
1920;0.0;0.0;0.0;-0.17177599668502808;0.05953599885106087;1.0540800094604492;0.0;0.0;0.0
1922;0.0;0.0;0.0;-0.14151999354362488;0.04782399907708168;1.0540800094604492;0.0;0.0;0.0
1924;0.0;0.0;0.0;-0.13761599361896515;0.08686399459838867;1.0462720394134521;0.0;0.0;0.0
1926;-0.27425599098205566;0.2012999951839447;0.9279319643974304;-0.1327359974384308;0.0907679945230484;1.0374879837036133;20.671875;-1.3168749809265137;6.387499809265137
1928;0.0;0.0;0.0;-0.08295999467372894;0.0634399950504303;1.0218719244003296;0.0;0.0;0.0
1930;0.0;0.0;0.0;-0.07515199482440948;0.05953599885106087;1.017967939376831;0.0;0.0;0.0
1933;0.0;0.0;0.0;-0.0634399950504303;0.07905599474906921;1.0335839986801147;0.0;0.0;0.0
1935;-0.1995919942855835;0.20666798949241638;0.9157319664955139;-0.020495999604463577;0.0634399950504303;1.0091840028762817;15.141875267028809;-0.8968750238418579;10.587499618530273
1937;0.0;0.0;0.0;0.006831999868154526;0.04782399907708168;1.0257760286331177;0.0;0.0;0.0
1939;0.0;0.0;0.0;0.014639999717473984;0.06734399497509003;1.0218719244003296;0.0;0.0;0.0
1941;0.0;0.0;0.0;0.06929600238800049;0.07515199482440948;1.0462720394134521;0.0;0.0;0.0
1943;-0.10321199893951416;0.18422000110149384;0.9057279825210571;0.07320000231266022;0.01268799975514412;1.0296800136566162;7.651875019073486;0.503125011920929;15.137499809265137
1945;0.0;0.0;0.0;0.07320000231266022;0.028303999453783035;1.0374879837036133;0.0;0.0;0.0
1948;0.0;0.0;0.0;0.07710400223731995;-0.006831999868154526;1.0257760286331177;0.0;0.0;0.0
1950;0.0;0.0;0.0;0.11126399785280228;-0.02635199949145317;1.0335839986801147;0.0;0.0;0.0
1952;-0.031231999397277832;0.13981199264526367;0.9079239964485168;0.13078400492668152;-0.006831999868154526;1.0052800178527832;0.2318750023841858;3.653125047683716;19.0575008392334
1954;0.0;0.0;0.0;0.15811198949813843;-0.022447999566793442;0.9964959621429443;0.0;0.0;0.0
1956;0.0;0.0;0.0;0.17372798919677734;-0.07320000231266022;1.0052800178527832;0.0;0.0;0.0
1958;0.0;0.0;0.0;0.1698240041732788;-0.045871999114751816;0.9886879920959473;0.0;0.0;0.0
1960;0.032207999378442764;0.09125600010156631;0.8818159699440002;0.2205759882926941;-0.08100800216197968;0.9935680031776428;-4.528125286102295;7.573124885559082;21.017499923706055
1962;0.0;0.0;0.0;0.21276798844337463;-0.09272000193595886;1.0091840028762817;0.0;0.0;0.0
1964;0.0;0.0;0.0;0.20495998859405518;-0.09272000193595886;1.0013760328292847;0.0;0.0;0.0
1967;0.0;0.0;0.0;0.236191987991333;-0.11614400148391724;1.0335839986801147;0.0;0.0;0.0
1969;0.09296400099992752;0.0453839972615242;0.8859639763832092;0.21276798844337463;-0.12004800140857697;1.0218719244003296;-5.228125095367432;12.193124771118164;22.5575008392334
1971;0.0;0.0;0.0;0.236191987991333;-0.11614400148391724;1.0169919729232788;0.0;0.0;0.0
1973;0.0;0.0;0.0;0.24009600281715393;-0.1239520013332367;1.0257760286331177;0.0;0.0;0.0
1975;0.0;0.0;0.0;0.2635200023651123;-0.1512800008058548;1.0296800136566162;0.0;0.0;0.0
1977;0.12199999392032623;0.009027999825775623;0.9045079946517944;0.2479040026664734;-0.14347200095653534;1.0335839986801147;-4.248125076293945;17.723125457763672;23.8174991607666
1980;0.0;0.0;0.0;0.2518079876899719;-0.1512800008058548;1.0540800094604492;0.0;0.0;0.0
1981;0.0;0.0;0.0;0.24399998784065247;-0.13566400110721588;1.042367935180664;0.0;0.0;0.0
1984;0.0;0.0;0.0;0.27132800221443176;-0.15518400073051453;1.0745760202407837;0.0;0.0;0.0
1986;0.14054399728775024;-0.014883999712765217;0.9332999587059021;0.26742398738861084;-0.15518400073051453;1.066767930984497;-1.238124966621399;23.04312515258789;25.497499465942383
1988;0.0;0.0;0.0;0.26742398738861084;-0.16299200057983398;1.0745760202407837;0.0;0.0;0.0
1990;0.0;0.0;0.0;0.25571200251579285;-0.1668960005044937;1.1028800010681152;0.0;0.0;0.0
1992;0.0;0.0;0.0;0.2205759882926941;-0.18251200020313263;1.1194720268249512;0.0;0.0;0.0
1994;0.12443999946117401;-0.03513599932193756;0.9735599756240845;0.2479040026664734;-0.1668960005044937;1.1194720268249512;3.5218749046325684;26.683124542236328;28.087499618530273
1997;0.0;0.0;0.0;0.236191987991333;-0.1786080002784729;1.1272799968719482;0.0;0.0;0.0
1999;0.0;0.0;0.0;0.25571200251579285;-0.18251200020313263;1.1311839818954468;0.0;0.0;0.0
2001;0.0;0.0;0.0;0.236191987991333;-0.1512800008058548;1.1438720226287842;0.0;0.0;0.0
2003;0.11370399594306946;-0.02903600037097931;1.013819932937622;0.26742398738861084;-0.1512800008058548;1.1594879627227783;9.401875495910645;26.403125762939453;30.39750099182129
2005;0.0;0.0;0.0;0.2479040026664734;-0.1668960005044937;1.1633919477462769;0.0;0.0;0.0
2007;0.0;0.0;0.0;0.24399998784065247;-0.1786080002784729;1.1594879627227783;0.0;0.0;0.0
2009;0.0;0.0;0.0;0.236191987991333;-0.12785600125789642;1.2209759950637817;0.0;0.0;0.0
2011;0.11736399680376053;-0.0058559998869895935;1.0538359880447388;0.22448000311851501;-0.1239520013332367;1.1916959285736084;13.181875228881836;24.02312469482422;31.657499313354492
2013;0.0;0.0;0.0;0.28303998708724976;-0.14347200095653534;1.2160959243774414;0.0;0.0;0.0
2016;0.0;0.0;0.0;0.26742398738861084;-0.11224000155925751;1.1965759992599487;0.0;0.0;0.0
2018;0.0;0.0;0.0;0.2908479869365692;-0.15908800065517426;1.1682720184326172;0.0;0.0;0.0
2020;0.1483519971370697;-0.006831999868154526;1.0528600215911865;0.3181760013103485;-0.14347200095653534;1.1594879627227783;12.061875343322754;20.24312400817871;30.887500762939453
2022;0.0;0.0;0.0;0.32207998633384705;-0.17080000042915344;1.1516799926757812;0.0;0.0;0.0
2024;0.0;0.0;0.0;0.3416000008583069;-0.17080000042915344;1.1516799926757812;0.0;0.0;0.0
2026;0.0;0.0;0.0;0.3455039858818054;-0.15518400073051453;1.1272799968719482;0.0;0.0;0.0
2028;0.2176479995250702;-0.021715998649597168;1.0084519386291504;0.36111998558044434;-0.1668960005044937;1.1194720268249512;11.081875801086426;18.703125;28.297500610351562
2031;0.0;0.0;0.0;0.37966400384902954;-0.16299200057983398;1.1106879711151123;0.0;0.0;0.0
2033;0.0;0.0;0.0;0.3835679888725281;-0.1512800008058548;1.1194720268249512;0.0;0.0;0.0
2035;0.0;0.0;0.0;0.4108960032463074;-0.1512800008058548;1.1233760118484497;0.0;0.0;0.0
2037;0.27327999472618103;-0.010003999806940556;1.0104039907455444;0.40699198842048645;-0.1395680010318756;1.1555839776992798;10.801875114440918;18.073123931884766;25.917499542236328
2039;0.0;0.0;0.0;0.4382239878177643;-0.13566400110721588;1.1516799926757812;0.0;0.0;0.0
2041;0.0;0.0;0.0;0.4538399875164032;-0.13176000118255615;1.1516799926757812;0.0;0.0;0.0
2043;0.0;0.0;0.0;0.4304159879684448;-0.11224000155925751;1.1594879627227783;0.0;0.0;0.0
2045;0.3108559846878052;0.012443999759852886;1.0318759679794312;0.4304159879684448;-0.12004800140857697;1.1799839735031128;8.841875076293945;17.02312469482422;25.84749984741211
2048;0.0;0.0;0.0;0.4382239878177643;-0.10443200170993805;1.1555839776992798;0.0;0.0;0.0
2050;0.0;0.0;0.0;0.4265120029449463;-0.1239520013332367;1.1682720184326172;0.0;0.0;0.0
2052;0.0;0.0;0.0;0.4265120029449463;-0.13566400110721588;1.1555839776992798;0.0;0.0;0.0
2054;0.31378400325775146;0.007807999849319458;1.036512017250061;0.4577440023422241;-0.13566400110721588;1.1389919519424438;5.061874866485596;14.153124809265137;27.3174991607666
2056;0.0;0.0;0.0;0.4538399875164032;-0.1668960005044937;1.1438720226287842;0.0;0.0;0.0
2058;0.0;0.0;0.0;0.44603198766708374;-0.18251200020313263;1.1438720226287842;0.0;0.0;0.0
2060;0.0;0.0;0.0;0.43432000279426575;-0.17470400035381317;1.1067839860916138;0.0;0.0;0.0
2062;0.33305999636650085;-0.022204000502824783;1.0099159479141235;0.48507198691368103;-0.17470400035381317;1.1067839860916138;2.1918749809265137;10.513124465942383;28.4375
2065;0.0;0.0;0.0;0.5123999714851379;-0.1668960005044937;1.0872639417648315;0.0;0.0;0.0
2067;0.0;0.0;0.0;0.4928799867630005;-0.18641600012779236;1.0677440166473389;0.0;0.0;0.0
2069;0.0;0.0;0.0;0.5045920014381409;-0.19422399997711182;1.075551986694336;0.0;0.0;0.0
2071;0.3718560039997101;-0.05026400089263916;0.9618479609489441;0.5163040161132812;-0.1668960005044937;1.034559965133667;1.771875023841858;7.433125019073486;26.967500686645508
2073;0.0;0.0;0.0;0.5163040161132812;-0.1786080002784729;1.0628639459609985;0.0;0.0;0.0
2075;0.0;0.0;0.0;0.5514400005340576;-0.18641600012779236;1.0306559801101685;0.0;0.0;0.0
2077;0.0;0.0;0.0;0.5553439855575562;-0.16299200057983398;1.042367935180664;0.0;0.0;0.0
2079;0.4287079870700836;-0.05197199806571007;0.9220759868621826;0.5709599852561951;-0.1903200000524521;1.02675199508667;2.541874885559082;6.243124961853027;23.537500381469727
2082;0.0;0.0;0.0;0.5904799699783325;-0.1668960005044937;1.0374879837036133;0.0;0.0;0.0
2084;0.0;0.0;0.0;0.6051200032234192;-0.17080000042915344;1.0335839986801147;0.0;0.0;0.0
2086;0.0;0.0;0.0;0.6324479579925537;-0.17080000042915344;1.0013760328292847;0.0;0.0;0.0
2088;0.4799479842185974;-0.03537999838590622;0.900115966796875;0.6519680023193359;-0.18251200020313263;1.0013760328292847;2.61187481880188;7.433125019073486;18.987499237060547
2090;0.0;0.0;0.0;0.6714879870414734;-0.17470400035381317;1.0013760328292847;0.0;0.0;0.0
2092;0.0;0.0;0.0;0.6675840020179749;-0.14737600088119507;1.0257760286331177;0.0;0.0;0.0
2094;0.0;0.0;0.0;0.6949119567871094;-0.15518400073051453;1.0374879837036133;0.0;0.0;0.0
2096;0.5477799773216248;-0.029523998498916626;0.8986519575119019;0.6675840020179749;-0.16299200057983398;1.0091840028762817;0.861875057220459;10.583125114440918;15.137499809265137
2098;0.0;0.0;0.0;0.6871039867401123;-0.15908800065517426;1.034559965133667;0.0;0.0;0.0
2101;0.0;0.0;0.0;0.7144320011138916;-0.17080000042915344;1.0150399208068848;0.0;0.0;0.0
2103;0.0;0.0;0.0;0.6910079717636108;-0.13176000118255615;1.017967939376831;0.0;0.0;0.0
2105;0.5687639713287354;-0.012931999750435352;0.9101200103759766;0.6832000017166138;-0.1395680010318756;1.0384639501571655;-0.18812501430511475;13.103124618530273;14.577500343322754
2107;0.0;0.0;0.0;0.6558719873428345;-0.12785600125789642;1.051151990890503;0.0;0.0;0.0
2109;0.0;0.0;0.0;0.636352002620697;-0.10833600163459778;1.0472480058670044;0.0;0.0;0.0
2111;0.0;0.0;0.0;0.6792960166931152;-0.1512800008058548;1.0384639501571655;0.0;0.0;0.0
2113;0.5372880101203918;0.010735999792814255;0.9274439811706543;0.6753919720649719;-0.13566400110721588;1.0433440208435059;-0.6781249642372131;13.313124656677246;11.987500190734863
2116;0.0;0.0;0.0;0.636352002620697;-0.11614400148391724;1.0384639501571655;0.0;0.0;0.0
2118;0.0;0.0;0.0;0.6519680023193359;-0.12785600125789642;1.0657919645309448;0.0;0.0;0.0
2120;0.0;0.0;0.0;0.6636799573898315;-0.14347200095653534;1.066767930984497;0.0;0.0;0.0
2122;0.5426560044288635;0.010979999788105488;0.9357399940490723;0.6949119567871094;-0.13176000118255615;1.0579839944839478;-1.0981249809265137;11.493124961853027;9.7475004196167
2124;0.0;0.0;0.0;0.7183359861373901;-0.11614400148391724;1.0384639501571655;0.0;0.0;0.0
2126;0.0;0.0;0.0;0.6949119567871094;-0.1395680010318756;1.066767930984497;0.0;0.0;0.0
2128;0.0;0.0;0.0;0.7105280160903931;-0.1239520013332367;1.0462720394134521;0.0;0.0;0.0
2130;0.5755959749221802;0.003659999929368496;0.9352520108222961;0.7144320011138916;-0.13176000118255615;1.0540800094604492;-1.728124976158142;9.183124542236328;7.087500095367432
2133;0.0;0.0;0.0;0.7036960124969482;-0.13663999736309052;1.0462720394134521;0.0;0.0;0.0
2135;0.0;0.0;0.0;0.7232159972190857;-0.14054399728775024;1.0384639501571655;0.0;0.0;0.0
2137;0.0;0.0;0.0;0.6997919678688049;-0.15225599706172943;1.0052800178527832;0.0;0.0;0.0
2139;0.59853196144104;-0.003415999934077263;0.9118279814720154;0.7349280118942261;-0.16787199676036835;1.0218719244003296;-1.4481250047683716;6.873124599456787;4.777500152587891
2141;0.0;0.0;0.0;0.7466399669647217;-0.12492799758911133;1.0140639543533325;0.0;0.0;0.0
2143;0.0;0.0;0.0;0.7622559666633606;-0.1483519971370697;0.9935680031776428;0.0;0.0;0.0
2145;0.0;0.0;0.0;0.7661600112915039;-0.12883199751377106;0.9808799624443054;0.0;0.0;0.0
2147;0.6358639597892761;-0.010247999802231789;0.8759599924087524;0.773967981338501;-0.1600639969110489;0.9769759774208069;-0.18812501430511475;7.433125019073486;1.9075000286102295
2150;0.0;0.0;0.0;0.7807999849319458;-0.15518400073051453;0.961359977722168;0.0;0.0;0.0
2152;0.0;0.0;0.0;0.7729920148849487;-0.14737600088119507;0.9779520034790039;0.0;0.0;0.0
2154;0.0;0.0;0.0;0.7925119996070862;-0.15908800065517426;0.9525759816169739;0.0;0.0;0.0
2156;0.6570919752120972;-0.010979999788105488;0.8483879566192627;0.7807999849319458;-0.13566400110721588;0.985759973526001;2.4018750190734863;10.583125114440918;0.5074999928474426
2158;0.0;0.0;0.0;0.7768959999084473;-0.1239520013332367;0.9779520034790039;0.0;0.0;0.0
2160;0.0;0.0;0.0;0.7456640005111694;-0.13176000118255615;0.9818559885025024;0.0;0.0;0.0
2162;0.0;0.0;0.0;0.7417600154876709;-0.1239520013332367;0.9779520034790039;0.0;0.0;0.0
2164;0.6368399858474731;0.014151999726891518;0.8576599955558777;0.7378559708595276;-0.07710400223731995;1.010159969329834;5.411874771118164;14.783124923706055;0.6474999785423279
2167;0.0;0.0;0.0;0.733951985836029;-0.09662400186061859;1.017967939376831;0.0;0.0;0.0
2169;0.0;0.0;0.0;0.7105280160903931;-0.07710400223731995;1.0374879837036133;0.0;0.0;0.0
2171;0.0;0.0;0.0;0.7027199864387512;-0.057583998888731;1.0618879795074463;0.0;0.0;0.0
2173;0.5882840156555176;0.05172799900174141;0.9157319664955139;0.6832000017166138;-0.07320000231266022;1.0784800052642822;6.321875095367432;16.533124923706055;3.447499990463257
2175;0.0;0.0;0.0;0.6675840020179749;-0.057583998888731;1.066767930984497;0.0;0.0;0.0
2177;0.0;0.0;0.0;0.6753919720649719;-0.07710400223731995;1.0989760160446167;0.0;0.0;0.0
2179;0.0;0.0;0.0;0.6519680023193359;-0.09272000193595886;1.1194720268249512;0.0;0.0;0.0
2181;0.5511959791183472;0.06295199692249298;0.9686799645423889;0.6558719873428345;-0.08881600201129913;1.1028800010681152;4.501874923706055;14.503125190734863;8.907500267028809
2184;0.0;0.0;0.0;0.6636799573898315;-0.06539200246334076;1.1116639375686646;0.0;0.0;0.0
2186;0.0;0.0;0.0;0.6558719873428345;-0.057583998888731;1.124351978302002;0.0;0.0;0.0
2188;0.0;0.0;0.0;0.6714879870414734;-0.09272000193595886;1.1204479932785034;0.0;0.0;0.0
2190;0.5399720072746277;0.054655998945236206;0.9962520003318787;0.6753919720649719;-0.07320000231266022;1.115567922592163;2.1218748092651367;9.603124618530273;15.137499809265137
2192;0.0;0.0;0.0;0.6714879870414734;-0.10052800178527832;1.1204479932785034;0.0;0.0;0.0
2194;0.0;0.0;0.0;0.7027199864387512;-0.09662400186061859;1.148751974105835;0.0;0.0;0.0
2196;0.0;0.0;0.0;0.6792960166931152;-0.13176000118255615;1.1282559633255005;0.0;0.0;0.0
2198;0.5619319677352905;0.020739998668432236;1.0116239786148071;0.7105280160903931;-0.1395680010318756;1.1360639333724976;-0.6781249642372131;3.9331250190734863;19.897499084472656
2201;0.0;0.0;0.0;0.6871039867401123;-0.1239520013332367;1.1477760076522827;0.0;0.0;0.0
2203;0.0;0.0;0.0;0.7066239714622498;-0.16299200057983398;1.1233760118484497;0.0;0.0;0.0
2205;0.0;0.0;0.0;0.7027199864387512;-0.20983999967575073;1.1194720268249512;0.0;0.0;0.0
2207;0.5816959738731384;-0.035868000239133835;1.0128439664840698;0.7066239714622498;-0.1903200000524521;1.1311839818954468;-3.6881251335144043;-0.9668750166893005;21.997499465942383
2209;0.0;0.0;0.0;0.7222399711608887;-0.23716799914836884;1.1516799926757812;0.0;0.0;0.0
2211;0.0;0.0;0.0;0.7027199864387512;-0.2332639992237091;1.1311839818954468;0.0;0.0;0.0
2213;0.0;0.0;0.0;0.7417600154876709;-0.2566879987716675;1.1106879711151123;0.0;0.0;0.0
2215;0.5870639681816101;-0.1000399962067604;1.0028399229049683;0.6714879870414734;-0.2449759989976883;1.1194720268249512;-5.648125171661377;-4.536875247955322;21.297500610351562
2218;0.0;0.0;0.0;0.7183359861373901;-0.27620798349380493;1.1194720268249512;0.0;0.0;0.0
2220;0.0;0.0;0.0;0.7066239714622498;-0.2683999836444855;1.1106879711151123;0.0;0.0;0.0
2222;0.0;0.0;0.0;0.6832000017166138;-0.2566879987716675;1.1311839818954468;0.0;0.0;0.0
2224;0.5843799710273743;-0.14518000185489655;0.9950319528579712;0.7027199864387512;-0.30743998289108276;1.1067839860916138;-6.208125114440918;-7.126875400543213;18.637500762939453
2226;0.0;0.0;0.0;0.6753919720649719;-0.2996319830417633;1.1106879711151123;0.0;0.0;0.0
2228;0.0;0.0;0.0;0.7144320011138916;-0.30743998289108276;1.1067839860916138;0.0;0.0;0.0
2230;0.0;0.0;0.0;0.7027199864387512;-0.29572799801826477;1.1272799968719482;0.0;0.0;0.0
2232;0.5836479663848877;-0.15493999421596527;1.0025960206985474;0.6949119567871094;-0.2840159833431244;1.1350879669189453;-5.998125076293945;-10.276875495910645;15.697500228881836
2235;0.0;0.0;0.0;0.7261439561843872;-0.2840159833431244;1.1389919519424438;0.0;0.0;0.0
2237;0.0;0.0;0.0;0.7417600154876709;-0.2840159833431244;1.1350879669189453;0.0;0.0;0.0
2239;0.0;0.0;0.0;0.7105280160903931;-0.3113439977169037;1.1438720226287842;0.0;0.0;0.0
2241;0.6097559928894043;-0.16030800342559814;1.0182119607925415;0.7534719705581665;-0.28011199831962585;1.1311839818954468;-6.69812536239624;-12.656875610351562;13.59749984741211
2243;0.0;0.0;0.0;0.757375955581665;-0.3269599974155426;1.1555839776992798;0.0;0.0;0.0
2245;0.0;0.0;0.0;0.749567985534668;-0.3152479827404022;1.1633919477462769;0.0;0.0;0.0
2247;0.0;0.0;0.0;0.7378559708595276;-0.350383996963501;1.1516799926757812;0.0;0.0;0.0
2249;0.6265919804573059;-0.18714798986911774;1.032364010810852;0.749567985534668;-0.3269599974155426;1.1477760076522827;-7.538125038146973;-15.176875114440918;12.897500038146973
2252;0.0;0.0;0.0;0.7144320011138916;-0.34647998213768005;1.1633919477462769;0.0;0.0;0.0
2254;0.0;0.0;0.0;0.7183359861373901;-0.3542879819869995;1.1516799926757812;0.0;0.0;0.0
2256;0.0;0.0;0.0;0.7183359861373901;-0.3699039816856384;1.1438720226287842;0.0;0.0;0.0
2258;0.6100000143051147;-0.2256999909877777;1.0250439643859863;0.7456640005111694;-0.38942399621009827;1.1555839776992798;-7.468125343322754;-17.34687614440918;11.567500114440918
2260;0.0;0.0;0.0;0.7027199864387512;-0.3816159963607788;1.1194720268249512;0.0;0.0;0.0
2262;0.0;0.0;0.0;0.6832000017166138;-0.4089439809322357;1.1272799968719482;0.0;0.0;0.0
2264;0.0;0.0;0.0;0.6832000017166138;-0.38942399621009827;1.1194720268249512;0.0;0.0;0.0
2266;0.5731559991836548;-0.2601040005683899;1.0040600299835205;0.6753919720649719;-0.40113598108291626;1.1272799968719482;-5.648125171661377;-18.536874771118164;7.857500076293945
2269;0.0;0.0;0.0;0.6714879870414734;-0.40113598108291626;1.1194720268249512;0.0;0.0;0.0
2271;0.0;0.0;0.0;0.6832000017166138;-0.40113598108291626;1.115567922592163;0.0;0.0;0.0
2273;0.0;0.0;0.0;0.6207360029220581;-0.40113598108291626;1.1233760118484497;0.0;0.0;0.0
2275;0.5311880111694336;-0.26571598649024963;0.9943000078201294;0.6090239882469177;-0.3777119815349579;1.1067839860916138;-2.9881250858306885;-19.236875534057617;1.9075000286102295
2277;0.0;0.0;0.0;0.6139039993286133;-0.4089439809322357;1.1389919519424438;0.0;0.0;0.0
2279;0.0;0.0;0.0;0.636352002620697;-0.37380799651145935;1.1067839860916138;0.0;0.0;0.0
2281;0.0;0.0;0.0;0.6168320178985596;-0.37380799651145935;1.1145919561386108;0.0;0.0;0.0
2283;0.48921999335289;-0.2547360062599182;0.9903959631919861;0.586575984954834;-0.3933279812335968;1.0862879753112793;-1.0281249284744263;-20.146875381469727;-5.932499885559082
2286;0.0;0.0;0.0;0.6207360029220581;-0.3777119815349579;1.0872639417648315;0.0;0.0;0.0
2288;0.0;0.0;0.0;0.5982879996299744;-0.3816159963607788;1.0921440124511719;0.0;0.0;0.0
2290;0.0;0.0;0.0;0.5826719999313354;-0.33476799726486206;1.124351978302002;0.0;0.0;0.0
2292;0.4672600030899048;-0.21837998926639557;0.9735599756240845;0.5553439855575562;-0.3269599974155426;1.1282559633255005;1.071874976158142;-19.796875;-13.492500305175781
2294;0.0;0.0;0.0;0.5592479705810547;-0.30743998289108276;1.156559944152832;0.0;0.0;0.0
2296;0.0;0.0;0.0;0.5514400005340576;-0.3425759971141815;1.156559944152832;0.0;0.0;0.0
2298;0.0;0.0;0.0;0.5319200158119202;-0.2879199981689453;1.1526559591293335;0.0;0.0;0.0
2300;0.4248040020465851;-0.17202000319957733;1.0274839401245117;0.5045920014381409;-0.28011199831962585;1.173151969909668;2.3318748474121094;-21.966875076293945;-17.97249984741211
2303;0.0;0.0;0.0;0.5084959864616394;-0.2840159833431244;1.1721760034561157;0.0;0.0;0.0
2305;0.0;0.0;0.0;0.48897600173950195;-0.2566879987716675;1.1633919477462769;0.0;0.0;0.0
2307;0.0;0.0;0.0;0.5006880164146423;-0.24107199907302856;1.1555839776992798;0.0;0.0;0.0
2309;0.38771599531173706;-0.12443999946117401;1.0426119565963745;0.5319200158119202;-0.26449599862098694;1.1311839818954468;0.3018749952316284;-26.236875534057617;-21.122499465942383
2311;0.0;0.0;0.0;0.48897600173950195;-0.2449759989976883;1.1311839818954468;0.0;0.0;0.0
2313;0.0;0.0;0.0;0.5006880164146423;-0.2566879987716675;1.0823839902877808;0.0;0.0;0.0
2315;0.0;0.0;0.0;0.4967840015888214;-0.25278398394584656;1.0784800052642822;0.0;0.0;0.0
2317;0.3835679888725281;-0.12029200047254562;0.9738039970397949;0.48897600173950195;-0.25278398394584656;1.0628639459609985;-1.5181249380111694;-28.75687599182129;-23.292499542236328
2320;0.0;0.0;0.0;0.4655520021915436;-0.2449759989976883;1.066767930984497;0.0;0.0;0.0
2322;0.0;0.0;0.0;0.44603198766708374;-0.22935999929904938;1.0794559717178345;0.0;0.0;0.0
2324;0.0;0.0;0.0;0.4694559872150421;-0.2176479995250702;1.083359956741333;0.0;0.0;0.0
2326;0.3501400053501129;-0.08710800111293793;0.9559919834136963;0.44993600249290466;-0.17080000042915344;1.0960479974746704;0.16187499463558197;-29.036874771118164;-24.0625
2328;0.0;0.0;0.0;0.4694559872150421;-0.16299200057983398;1.0872639417648315;0.0;0.0;0.0
2330;0.0;0.0;0.0;0.4928799867630005;-0.19422399997711182;1.09116792678833;0.0;0.0;0.0
2332;0.0;0.0;0.0;0.4538399875164032;-0.1786080002784729;1.0960479974746704;0.0;0.0;0.0
2334;0.33671998977661133;-0.04806799814105034;0.9750239849090576;0.4304159879684448;-0.17470400035381317;1.0716480016708374;-0.5381249785423279;-28.546875;-21.752500534057617
2337;0.0;0.0;0.0;0.4147999882698059;-0.16299200057983398;1.0950720310211182;0.0;0.0;0.0
2339;0.0;0.0;0.0;0.40699198842048645;-0.18641600012779236;1.0579839944839478;0.0;0.0;0.0
2341;0.0;0.0;0.0;0.4265120029449463;-0.12785600125789642;1.0862879753112793;0.0;0.0;0.0
2343;0.28938400745391846;-0.030499998480081558;0.95306396484375;0.4030880033969879;-0.15908800065517426;1.0706720352172852;-1.3781249523162842;-26.516876220703125;-20.142499923706055
2345;0.0;0.0;0.0;0.3757599890232086;-0.17080000042915344;1.0579839944839478;0.0;0.0;0.0
2347;0.0;0.0;0.0;0.36795198917388916;-0.15518400073051453;1.0706720352172852;0.0;0.0;0.0
2349;0.0;0.0;0.0;0.37966400384902954;-0.1668960005044937;1.0950720310211182;0.0;0.0;0.0
2351;0.2508319914340973;-0.027084000408649445;0.9464759826660156;0.3718560039997101;-0.15518400073051453;1.0823839902877808;-0.328125;-24.34687614440918;-16.782499313354492
2354;0.0;0.0;0.0;0.30646398663520813;-0.14737600088119507;1.1028800010681152;0.0;0.0;0.0
2356;0.0;0.0;0.0;0.32598400115966797;-0.17470400035381317;1.0745760202407837;0.0;0.0;0.0
2358;0.0;0.0;0.0;0.31036800146102905;-0.15518400073051453;1.0784800052642822;0.0;0.0;0.0
2360;0.1937360018491745;-0.03635599836707115;0.9591639637947083;0.2752319872379303;-0.18641600012779236;1.0862879753112793;0.2318750023841858;-20.84687614440918;-14.752500534057617
2362;0.0;0.0;0.0;0.25571200251579285;-0.17470400035381317;1.1028800010681152;0.0;0.0;0.0
2364;0.0;0.0;0.0;0.2479040026664734;-0.18641600012779236;1.1028800010681152;0.0;0.0;0.0
2366;0.0;0.0;0.0;0.22448000311851501;-0.17080000042915344;1.0784800052642822;0.0;0.0;0.0
2368;0.12297599762678146;-0.0424560010433197;0.9750239849090576;0.236191987991333;-0.16299200057983398;1.1067839860916138;1.771875023841858;-17.556875228881836;-12.512499809265137
2371;0.0;0.0;0.0;0.19715198874473572;-0.20203199982643127;1.1233760118484497;0.0;0.0;0.0
2373;0.0;0.0;0.0;0.1698240041732788;-0.16299200057983398;1.1067839860916138;0.0;0.0;0.0
2375;0.0;0.0;0.0;0.1424959897994995;-0.1395680010318756;1.1028800010681152;0.0;0.0;0.0
