Timestamp(ms);LG-Accel x(g);LG-Accel y(g);LG-Accel z(g);HG-Accel x(g);HG-Accel y(g);HG-Accel z(g);Gyro x(dps);Gyro y(dps);Gyro z(dps)
87;0.0;0.0;0.0;0.19812799990177155;-0.1698240041732788;1.146799921989441;0.0;0.0;0.0
90;0.0;0.0;0.0;0.1786080002784729;-0.16591998934745789;1.1380159854888916;0.0;0.0;0.0
92;0.0;0.0;0.0;0.20203199982643127;-0.15811198949813843;1.150704026222229;0.0;0.0;0.0
94;0.0;0.0;0.0;0.19422399997711182;-0.1424959897994995;1.1428959369659424;0.0;0.0;0.0
96;0.0;0.0;0.0;0.20203199982643127;-0.16201600432395935;1.146799921989441;0.0;0.0;0.0
98;0.0;0.0;0.0;0.20105600357055664;-0.15225599706172943;1.1526559591293335;0.0;0.0;0.0
100;0.0;0.0;0.0;0.19324800372123718;-0.14444799721240997;1.1370400190353394;0.0;0.0;0.0
102;0.0;0.0;0.0;0.20105600357055664;-0.16787199676036835;1.132159948348999;0.0;0.0;0.0
104;0.08881600201129913;-0.020739998668432236;0.9913719892501831;0.1698240041732788;-0.13663999736309052;1.1448479890823364;0.0;0.0;0.0
107;0.0;0.0;0.0;0.15030398964881897;-0.16787199676036835;1.132159948348999;0.0;0.0;0.0
109;0.0;0.0;0.0;0.20495998859405518;-0.16396799683570862;1.1526559591293335;0.0;0.0;0.0
111;0.0;0.0;0.0;0.17763200402259827;-0.16396799683570862;1.1448479890823364;0.0;0.0;0.0
113;0.07710400223731995;-0.023423999547958374;0.9923479557037354;0.17763200402259827;-0.14054399728775024;1.1360639333724976;0.0;0.0;0.0
115;0.0;0.0;0.0;0.1698240041732788;-0.14347200095653534;1.140944004058838;0.0;0.0;0.0
117;0.0;0.0;0.0;0.2088640034198761;-0.16299200057983398;1.1282559633255005;0.0;0.0;0.0
119;0.0;0.0;0.0;0.21667200326919556;-0.16299200057983398;1.1126400232315063;0.0;0.0;0.0
121;0.08857199549674988;-0.018300000578165054;0.9882000088691711;0.22838398814201355;-0.1668960005044937;1.132159948348999;0.0;0.0;0.0
124;0.0;0.0;0.0;0.19324800372123718;-0.14737600088119507;1.1360639333724976;0.0;0.0;0.0
126;0.0;0.0;0.0;0.21276798844337463;-0.1395680010318756;1.140944004058838;0.0;0.0;0.0
128;0.0;0.0;0.0;0.19715198874473572;-0.1512800008058548;1.156559944152832;0.0;0.0;0.0
130;0.08710800111293793;-0.01781199872493744;0.986735999584198;0.19324800372123718;-0.13566400110721588;1.1448479890823364;0.0;0.0;0.0
132;0.0;0.0;0.0;0.18934398889541626;-0.17470400035381317;1.1370400190353394;0.0;0.0;0.0
134;0.0;0.0;0.0;0.18934398889541626;-0.1668960005044937;1.1204479932785034;0.0;0.0;0.0
136;0.0;0.0;0.0;0.21276798844337463;-0.15908800065517426;1.1204479932785034;0.0;0.0;0.0
138;0.08100800216197968;-0.020983999595046043;0.990884006023407;0.19324800372123718;-0.14737600088119507;1.140944004058838;0.0;0.0;0.0
141;0.0;0.0;0.0;0.18544000387191772;-0.15908800065517426;1.148751974105835;0.0;0.0;0.0
143;0.0;0.0;0.0;0.2088640034198761;-0.15908800065517426;1.140944004058838;0.0;0.0;0.0
145;0.0;0.0;0.0;0.1815359890460968;-0.1786080002784729;1.1360639333724976;0.0;0.0;0.0
147;0.08247199654579163;-0.02122800052165985;0.9896639585494995;0.17763200402259827;-0.17080000042915344;1.148751974105835;0.14000000059604645;0.21000000834465027;0.49000000953674316
149;0.0;0.0;0.0;0.18934398889541626;-0.14737600088119507;1.140944004058838;0.0;0.0;0.0
151;0.0;0.0;0.0;0.19324800372123718;-0.15908800065517426;1.1448479890823364;0.0;0.0;0.0
153;0.0;0.0;0.0;0.17763200402259827;-0.15908800065517426;1.1526559591293335;0.0;0.0;0.0
155;0.0861319974064827;-0.019763998687267303;0.9889319539070129;0.17763200402259827;-0.16299200057983398;1.1282559633255005;0.14000000059604645;0.14000000059604645;0.49000000953674316
158;0.0;0.0;0.0;0.2088640034198761;-0.1239520013332367;1.1526559591293335;0.0;0.0;0.0
160;0.0;0.0;0.0;0.21667200326919556;-0.15908800065517426;1.140944004058838;0.0;0.0;0.0
162;0.0;0.0;0.0;0.17763200402259827;-0.15908800065517426;1.132159948348999;0.0;0.0;0.0
164;0.08466799557209015;-0.019519999623298645;0.9894199967384338;0.18544000387191772;-0.14347200095653534;1.132159948348999;0.07000000029802322;0.2800000011920929;0.49000000953674316
166;0.0;0.0;0.0;0.17763200402259827;-0.15518400073051453;1.124351978302002;0.0;0.0;0.0
168;0.0;0.0;0.0;0.17372798919677734;-0.14737600088119507;1.132159948348999;0.0;0.0;0.0
170;0.0;0.0;0.0;0.19715198874473572;-0.14737600088119507;1.1448479890823364;0.0;0.0;0.0
172;0.08344800025224686;-0.02025200054049492;0.9896639585494995;0.19715198874473572;-0.13566400110721588;1.156559944152832;0.07000000029802322;0.2800000011920929;0.49000000953674316
175;0.0;0.0;0.0;0.21276798844337463;-0.14347200095653534;1.1282559633255005;0.0;0.0;0.0
177;0.0;0.0;0.0;0.19324800372123718;-0.1512800008058548;1.148751974105835;0.0;0.0;0.0
179;0.0;0.0;0.0;0.19324800372123718;-0.17080000042915344;1.132159948348999;0.0;0.0;0.0
181;0.08417999744415283;-0.020495999604463577;0.9906399846076965;0.21667200326919556;-0.13566400110721588;1.1526559591293335;0.07000000029802322;0.3499999940395355;0.49000000953674316
183;0.0;0.0;0.0;0.18544000387191772;-0.14347200095653534;1.148751974105835;0.0;0.0;0.0
185;0.0;0.0;0.0;0.20495998859405518;-0.15908800065517426;1.140944004058838;0.0;0.0;0.0
187;0.0;0.0;0.0;0.17372798919677734;-0.15518400073051453;1.132159948348999;0.0;0.0;0.0
189;0.08100800216197968;-0.021715998649597168;0.9911279678344727;0.19715198874473572;-0.14347200095653534;1.140944004058838;0.07000000029802322;0.3499999940395355;0.5600000023841858
192;0.0;0.0;0.0;0.18934398889541626;-0.17080000042915344;1.1370400190353394;0.0;0.0;0.0
194;0.0;0.0;0.0;0.19324800372123718;-0.16299200057983398;1.1360639333724976;0.0;0.0;0.0
196;0.0;0.0;0.0;0.18934398889541626;-0.15518400073051453;1.148751974105835;0.0;0.0;0.0
198;0.08417999744415283;-0.02000799961388111;0.9891759753227234;0.2088640034198761;-0.13566400110721588;1.140944004058838;0.21000000834465027;0.0;0.49000000953674316
200;0.0;0.0;0.0;0.19715198874473572;-0.1395680010318756;1.1526559591293335;0.0;0.0;0.0
202;0.0;0.0;0.0;0.17763200402259827;-0.13566400110721588;1.124351978302002;0.0;0.0;0.0
204;0.0;0.0;0.0;0.16201600432395935;-0.1512800008058548;1.140944004058838;0.0;0.0;0.0
206;0.08759599924087524;-0.019276000559329987;0.9874680042266846;0.18544000387191772;-0.17470400035381317;1.132159948348999;0.14000000059604645;0.21000000834465027;0.49000000953674316
209;0.0;0.0;0.0;0.20105600357055664;-0.14737600088119507;1.1526559591293335;0.0;0.0;0.0
211;0.0;0.0;0.0;0.2088640034198761;-0.15908800065517426;1.132159948348999;0.0;0.0;0.0
213;0.0;0.0;0.0;0.22448000311851501;-0.14347200095653534;1.132159948348999;0.0;0.0;0.0
215;0.08564399927854538;-0.02000799961388111;0.9884439706802368;0.16591998934745789;-0.14347200095653534;1.1692479848861694;0.07000000029802322;0.5600000023841858;0.49000000953674316
217;0.0;0.0;0.0;0.16494399309158325;-0.16299200057983398;1.1448479890823364;0.0;0.0;0.0
219;0.0;0.0;0.0;0.1727519929409027;-0.1512800008058548;1.148751974105835;0.0;0.0;0.0
221;0.0;0.0;0.0;0.1727519929409027;-0.16299200057983398;1.132159948348999;0.0;0.0;0.0
223;0.08149600028991699;-0.020739998668432236;0.9916160106658936;0.18055999279022217;-0.1512800008058548;1.1370400190353394;0.07000000029802322;0.3499999940395355;0.49000000953674316
226;0.0;0.0;0.0;0.20788799226284027;-0.15908800065517426;1.1370400190353394;0.0;0.0;0.0
228;0.0;0.0;0.0;0.17665599286556244;-0.1668960005044937;1.1526559591293335;0.0;0.0;0.0
230;0.0;0.0;0.0;0.2000799924135208;-0.16299200057983398;1.124351978302002;0.0;0.0;0.0
232;0.08466799557209015;-0.02000799961388111;0.9901520013809204;0.1844639927148819;-0.15908800065517426;1.1370400190353394;0.14000000059604645;0.0;0.49000000953674316
234;0.0;0.0;0.0;0.20788799226284027;-0.17470400035381317;1.1370400190353394;0.0;0.0;0.0
236;0.0;0.0;0.0;0.21569599211215973;-0.13176000118255615;1.1282559633255005;0.0;0.0;0.0
238;0.0;0.0;0.0;0.16494399309158325;-0.15908800065517426;1.1282559633255005;0.0;0.0;0.0
241;0.08881600201129913;-0.019763998687267303;0.9860039949417114;0.2000799924135208;-0.1668960005044937;1.1604639291763306;0.14000000059604645;0.14000000059604645;0.49000000953674316
243;0.0;0.0;0.0;0.1844639927148819;-0.16299200057983398;1.140944004058838;0.0;0.0;0.0
245;0.0;0.0;0.0;0.17665599286556244;-0.17080000042915344;1.140944004058838;0.0;0.0;0.0
247;0.0;0.0;0.0;0.15323199331760406;-0.17470400035381317;1.140944004058838;0.0;0.0;0.0
249;0.0861319974064827;-0.020739998668432236;0.9896639585494995;0.19617599248886108;-0.16299200057983398;1.1448479890823364;0.0;0.6299999952316284;0.49000000953674316
251;0.0;0.0;0.0;0.19715198874473572;-0.14347200095653534;1.1282559633255005;0.0;0.0;0.0
253;0.0;0.0;0.0;0.18544000387191772;-0.15908800065517426;1.140944004058838;0.0;0.0;0.0
255;0.0;0.0;0.0;0.1815359890460968;-0.14347200095653534;1.148751974105835;0.0;0.0;0.0
258;0.08222799748182297;-0.02147199958562851;0.9923479557037354;0.18544000387191772;-0.14347200095653534;1.165343999862671;0.14000000059604645;0.42000001668930054;0.49000000953674316
260;0.0;0.0;0.0;0.20495998859405518;-0.1668960005044937;1.1526559591293335;0.0;0.0;0.0
262;0.0;0.0;0.0;0.18934398889541626;-0.1395680010318756;1.1448479890823364;0.0;0.0;0.0
264;0.0;0.0;0.0;0.19324800372123718;-0.1512800008058548;1.1448479890823364;0.0;0.0;0.0
266;0.08344800025224686;-0.019519999623298645;0.9906399846076965;0.20105600357055664;-0.1239520013332367;1.1448479890823364;0.14000000059604645;0.0;0.49000000953674316
268;0.0;0.0;0.0;0.20105600357055664;-0.1512800008058548;1.1370400190353394;0.0;0.0;0.0
270;0.0;0.0;0.0;0.19324800372123718;-0.13566400110721588;1.148751974105835;0.0;0.0;0.0
272;0.0;0.0;0.0;0.20495998859405518;-0.14347200095653534;1.140944004058838;0.0;0.0;0.0
275;0.08710800111293793;-0.018300000578165054;0.986735999584198;0.18544000387191772;-0.15518400073051453;1.140944004058838;0.14000000059604645;0.21000000834465027;0.49000000953674316
277;0.0;0.0;0.0;0.18544000387191772;-0.17080000042915344;1.1370400190353394;0.0;0.0;0.0
279;0.0;0.0;0.0;0.18544000387191772;-0.15908800065517426;1.132159948348999;0.0;0.0;0.0
281;0.0;0.0;0.0;0.20105600357055664;-0.13566400110721588;1.148751974105835;0.0;0.0;0.0
283;0.08442399650812149;-0.02025200054049492;0.9891759753227234;0.1815359890460968;-0.1512800008058548;1.1165440082550049;0.07000000029802322;0.49000000953674316;0.49000000953674316
285;0.0;0.0;0.0;0.19324800372123718;-0.14347200095653534;1.1604639291763306;0.0;0.0;0.0
287;0.0;0.0;0.0;0.17763200402259827;-0.1512800008058548;1.1526559591293335;0.0;0.0;0.0
289;0.0;0.0;0.0;0.17763200402259827;-0.17080000042915344;1.1448479890823364;0.0;0.0;0.0
292;0.08222799748182297;-0.020495999604463577;0.9911279678344727;0.20495998859405518;-0.15908800065517426;1.1526559591293335;0.14000000059604645;0.3499999940395355;0.49000000953674316
294;0.0;0.0;0.0;0.18544000387191772;-0.15518400073051453;1.1360639333724976;0.0;0.0;0.0
296;0.0;0.0;0.0;0.17763200402259827;-0.1512800008058548;1.140944004058838;0.0;0.0;0.0
298;0.0;0.0;0.0;0.19715198874473572;-0.17080000042915344;1.1526559591293335;0.0;0.0;0.0
300;0.08393599838018417;-0.02000799961388111;0.9889319539070129;0.2088640034198761;-0.16299200057983398;1.148751974105835;0.14000000059604645;0.07000000029802322;0.49000000953674316
302;0.0;0.0;0.0;0.19715198874473572;-0.16299200057983398;1.1526559591293335;0.0;0.0;0.0
304;0.0;0.0;0.0;0.20105600357055664;-0.17080000042915344;1.1370400190353394;0.0;0.0;0.0
306;0.0;0.0;0.0;0.17763200402259827;-0.14737600088119507;1.132159948348999;0.0;0.0;0.0
309;0.08417999744415283;-0.019763998687267303;0.9884439706802368;0.20105600357055664;-0.14347200095653534;1.132159948348999;0.0;0.21000000834465027;0.49000000953674316
311;0.0;0.0;0.0;0.1815359890460968;-0.13176000118255615;1.156559944152832;0.0;0.0;0.0
313;0.0;0.0;0.0;0.20495998859405518;-0.17470400035381317;1.148751974105835;0.0;0.0;0.0
315;0.0;0.0;0.0;0.20105600357055664;-0.1668960005044937;1.1370400190353394;0.0;0.0;0.0
317;0.0832040011882782;-0.02000799961388111;0.9889319539070129;0.18544000387191772;-0.1668960005044937;1.1526559591293335;0.07000000029802322;0.3499999940395355;0.49000000953674316
319;0.0;0.0;0.0;0.20398399233818054;-0.1668960005044937;1.1448479890823364;0.0;0.0;0.0
321;0.0;0.0;0.0;0.16884799301624298;-0.15518400073051453;1.1526559591293335;0.0;0.0;0.0
323;0.0;0.0;0.0;0.1844639927148819;-0.18251200020313263;1.156559944152832;0.0;0.0;0.0
326;0.08417999744415283;-0.020495999604463577;0.9891759753227234;0.20398399233818054;-0.17470400035381317;1.1526559591293335;0.14000000059604645;0.2800000011920929;0.49000000953674316
328;0.0;0.0;0.0;0.19617599248886108;-0.16299200057983398;1.1604639291763306;0.0;0.0;0.0
330;0.0;0.0;0.0;0.1844639927148819;-0.16299200057983398;1.132159948348999;0.0;0.0;0.0
332;0.0;0.0;0.0;0.21569599211215973;-0.15908800065517426;1.1526559591293335;0.0;0.0;0.0
334;0.0849120020866394;-0.020495999604463577;0.9901520013809204;0.2000799924135208;-0.15908800065517426;1.148751974105835;0.14000000059604645;0.21000000834465027;0.5600000023841858
336;0.0;0.0;0.0;0.19617599248886108;-0.14347200095653534;1.148751974105835;0.0;0.0;0.0
338;0.0;0.0;0.0;0.2000799924135208;-0.17080000042915344;1.148751974105835;0.0;0.0;0.0
340;0.0;0.0;0.0;0.2000799924135208;-0.14347200095653534;1.1282559633255005;0.0;0.0;0.0
343;0.08588799834251404;-0.02000799961388111;0.9882000088691711;0.21569599211215973;-0.15518400073051453;1.148751974105835;0.07000000029802322;0.21000000834465027;0.49000000953674316
345;0.0;0.0;0.0;0.19617599248886108;-0.13176000118255615;1.140944004058838;0.0;0.0;0.0
347;0.0;0.0;0.0;0.20398399233818054;-0.15518400073051453;1.165343999862671;0.0;0.0;0.0
349;0.0;0.0;0.0;0.21569599211215973;-0.13566400110721588;1.1526559591293335;0.0;0.0;0.0
351;0.08540000021457672;-0.01903199963271618;0.9894199967384338;0.20398399233818054;-0.13566400110721588;1.156559944152832;0.07000000029802322;0.2800000011920929;0.49000000953674316
353;0.0;0.0;0.0;0.1815359890460968;-0.15518400073051453;1.1370400190353394;0.0;0.0;0.0
355;0.0;0.0;0.0;0.21276798844337463;-0.16299200057983398;1.148751974105835;0.0;0.0;0.0
358;0.0;0.0;0.0;0.21276798844337463;-0.1395680010318756;1.1370400190353394;0.0;0.0;0.0
360;0.0849120020866394;-0.019763998687267303;0.98990797996521;0.17763200402259827;-0.16299200057983398;1.156559944152832;0.14000000059604645;0.3499999940395355;0.5600000023841858
362;0.0;0.0;0.0;0.18934398889541626;-0.13566400110721588;1.140944004058838;0.0;0.0;0.0
364;0.0;0.0;0.0;0.2205759882926941;-0.15518400073051453;1.1370400190353394;0.0;0.0;0.0
366;0.0;0.0;0.0;0.19324800372123718;-0.1512800008058548;1.132159948348999;0.0;0.0;0.0
368;0.08417999744415283;-0.020739998668432236;0.98990797996521;0.18544000387191772;-0.15518400073051453;1.140944004058838;0.07000000029802322;0.2800000011920929;0.5600000023841858
370;0.0;0.0;0.0;0.16591998934745789;-0.14347200095653534;1.1448479890823364;0.0;0.0;0.0
372;0.0;0.0;0.0;0.2088640034198761;-0.1512800008058548;1.140944004058838;0.0;0.0;0.0
374;0.0;0.0;0.0;0.20105600357055664;-0.12785600125789642;1.148751974105835;0.0;0.0;0.0
377;0.08344800025224686;-0.020495999604463577;0.98990797996521;0.18934398889541626;-0.1512800008058548;1.132159948348999;0.14000000059604645;0.14000000059604645;0.49000000953674316
379;0.0;0.0;0.0;0.19715198874473572;-0.17470400035381317;1.1448479890823364;0.0;0.0;0.0
381;0.0;0.0;0.0;0.20105600357055664;-0.1512800008058548;1.132159948348999;0.0;0.0;0.0
383;0.0;0.0;0.0;0.19324800372123718;-0.15908800065517426;1.148751974105835;0.0;0.0;0.0
385;0.08466799557209015;-0.02025200054049492;0.9889319539070129;0.18934398889541626;-0.14737600088119507;1.140944004058838;0.14000000059604645;0.14000000059604645;0.49000000953674316
387;0.0;0.0;0.0;0.18544000387191772;-0.1668960005044937;1.140944004058838;0.0;0.0;0.0
389;0.0;0.0;0.0;0.18544000387191772;-0.18641600012779236;1.1448479890823364;0.0;0.0;0.0
391;0.0;0.0;0.0;0.18544000387191772;-0.15518400073051453;1.1204479932785034;0.0;0.0;0.0
394;0.0849120020866394;-0.02000799961388111;0.9894199967384338;0.18544000387191772;-0.1395680010318756;1.132159948348999;0.07000000029802322;0.42000001668930054;0.49000000953674316
396;0.0;0.0;0.0;0.17763200402259827;-0.1395680010318756;1.1526559591293335;0.0;0.0;0.0
398;0.0;0.0;0.0;0.1815359890460968;-0.14347200095653534;1.148751974105835;0.0;0.0;0.0
400;0.0;0.0;0.0;0.18934398889541626;-0.13566400110721588;1.140944004058838;0.0;0.0;0.0
402;0.08198399841785431;-0.02122800052165985;0.9916160106658936;0.18544000387191772;-0.1512800008058548;1.124351978302002;0.07000000029802322;0.3499999940395355;0.49000000953674316
404;0.0;0.0;0.0;0.20788799226284027;-0.17080000042915344;1.1448479890823364;0.0;0.0;0.0
406;0.0;0.0;0.0;0.2235039919614792;-0.18251200020313263;1.148751974105835;0.0;0.0;0.0
409;0.0;0.0;0.0;0.2000799924135208;-0.1395680010318756;1.140944004058838;0.0;0.0;0.0
411;0.08369199931621552;-0.020495999604463577;0.9896639585494995;0.19227199256420135;-0.1668960005044937;1.1370400190353394;0.14000000059604645;0.14000000059604645;0.49000000953674316
413;0.0;0.0;0.0;0.21569599211215973;-0.1668960005044937;1.140944004058838;0.0;0.0;0.0
415;0.0;0.0;0.0;0.20788799226284027;-0.14347200095653534;1.1282559633255005;0.0;0.0;0.0
417;0.0;0.0;0.0;0.2117919921875;-0.1395680010318756;1.1165440082550049;0.0;0.0;0.0
419;0.08588799834251404;-0.019763998687267303;0.9896639585494995;0.17665599286556244;-0.18641600012779236;1.156559944152832;0.14000000059604645;0.2800000011920929;0.49000000953674316
422;0.0;0.0;0.0;0.19227199256420135;-0.14347200095653534;1.132159948348999;0.0;0.0;0.0
423;0.0;0.0;0.0;0.19617599248886108;-0.15518400073051453;1.148751974105835;0.0;0.0;0.0
426;0.0;0.0;0.0;0.20398399233818054;-0.14347200095653534;1.124351978302002;0.0;0.0;0.0
428;0.08442399650812149;-0.020739998668432236;0.9896639585494995;0.20788799226284027;-0.16299200057983398;1.1526559591293335;0.07000000029802322;0.42000001668930054;0.49000000953674316
430;0.0;0.0;0.0;0.19227199256420135;-0.15518400073051453;1.140944004058838;0.0;0.0;0.0
432;0.0;0.0;0.0;0.19227199256420135;-0.17080000042915344;1.1526559591293335;0.0;0.0;0.0
434;0.0;0.0;0.0;0.21569599211215973;-0.15518400073051453;1.156559944152832;0.0;0.0;0.0
436;0.08417999744415283;-0.02025200054049492;0.9906399846076965;0.1844639927148819;-0.13566400110721588;1.1282559633255005;0.14000000059604645;0.2800000011920929;0.49000000953674316
438;0.0;0.0;0.0;0.21667200326919556;-0.14347200095653534;1.1204479932785034;0.0;0.0;0.0
440;0.0;0.0;0.0;0.1815359890460968;-0.1395680010318756;1.1370400190353394;0.0;0.0;0.0
443;0.0;0.0;0.0;0.18934398889541626;-0.15518400073051453;1.140944004058838;0.0;0.0;0.0
445;0.08515600115060806;-0.02000799961388111;0.9889319539070129;0.20105600357055664;-0.16299200057983398;1.124351978302002;0.14000000059604645;0.21000000834465027;0.49000000953674316
447;0.0;0.0;0.0;0.19715198874473572;-0.15908800065517426;1.1448479890823364;0.0;0.0;0.0
449;0.0;0.0;0.0;0.1815359890460968;-0.14347200095653534;1.132159948348999;0.0;0.0;0.0
451;0.0;0.0;0.0;0.19324800372123718;-0.1512800008058548;1.132159948348999;0.0;0.0;0.0
453;0.08588799834251404;-0.02025200054049492;0.9891759753227234;0.17372798919677734;-0.1512800008058548;1.1448479890823364;0.07000000029802322;0.3499999940395355;0.49000000953674316
455;0.0;0.0;0.0;0.2088640034198761;-0.1395680010318756;1.1448479890823364;0.0;0.0;0.0
457;0.0;0.0;0.0;0.19324800372123718;-0.14347200095653534;1.1448479890823364;0.0;0.0;0.0
460;0.0;0.0;0.0;0.19324800372123718;-0.14737600088119507;1.156559944152832;0.0;0.0;0.0
462;0.08540000021457672;-0.020495999604463577;0.9906399846076965;0.2088640034198761;-0.1786080002784729;1.1448479890823364;0.07000000029802322;0.3499999940395355;0.49000000953674316
464;0.0;0.0;0.0;0.19715198874473572;-0.15518400073051453;1.1614400148391724;0.0;0.0;0.0
466;0.0;0.0;0.0;0.19324800372123718;-0.16299200057983398;1.1165440082550049;0.0;0.0;0.0
468;0.0;0.0;0.0;0.19324800372123718;-0.1395680010318756;1.140944004058838;0.0;0.0;0.0
470;0.08393599838018417;-0.02025200054049492;0.9906399846076965;0.1698240041732788;-0.14737600088119507;1.1370400190353394;0.07000000029802322;0.3499999940395355;0.5600000023841858
472;0.0;0.0;0.0;0.17372798919677734;-0.17080000042915344;1.132159948348999;0.0;0.0;0.0
474;0.0;0.0;0.0;0.1815359890460968;-0.13176000118255615;1.148751974105835;0.0;0.0;0.0
477;0.0;0.0;0.0;0.18934398889541626;-0.16299200057983398;1.156559944152832;0.0;0.0;0.0
479;0.08417999744415283;-0.019763998687267303;0.9901520013809204;0.1698240041732788;-0.1668960005044937;1.1360639333724976;0.14000000059604645;0.21000000834465027;0.49000000953674316
481;0.0;0.0;0.0;0.20495998859405518;-0.16299200057983398;1.1360639333724976;0.0;0.0;0.0
483;0.0;0.0;0.0;0.20495998859405518;-0.16299200057983398;1.1204479932785034;0.0;0.0;0.0
485;0.0;0.0;0.0;0.20495998859405518;-0.15518400073051453;1.140944004058838;0.0;0.0;0.0
487;0.08564399927854538;-0.02000799961388111;0.9882000088691711;0.19715198874473572;-0.14347200095653534;1.1448479890823364;0.14000000059604645;0.21000000834465027;0.49000000953674316
489;0.0;0.0;0.0;0.1815359890460968;-0.16299200057983398;1.140944004058838;0.0;0.0;0.0
491;0.0;0.0;0.0;0.17763200402259827;-0.1395680010318756;1.1448479890823364;0.0;0.0;0.0
494;0.0;0.0;0.0;0.18544000387191772;-0.1512800008058548;1.1526559591293335;0.0;0.0;0.0
496;0.08540000021457672;-0.02025200054049492;0.9879559874534607;0.18544000387191772;-0.16299200057983398;1.1448479890823364;0.07000000029802322;0.3499999940395355;0.5600000023841858
498;0.0;0.0;0.0;0.19324800372123718;-0.1668960005044937;1.148751974105835;0.0;0.0;0.0
500;0.0;0.0;0.0;0.18544000387191772;-0.13566400110721588;1.132159948348999;0.0;0.0;0.0
502;0.0;0.0;0.0;0.20105600357055664;-0.13566400110721588;1.1370400190353394;0.0;0.0;0.0
504;0.08344800025224686;-0.02122800052165985;0.9891759753227234;0.1815359890460968;-0.1395680010318756;1.140944004058838;0.07000000029802322;0.3499999940395355;0.49000000953674316
506;0.0;0.0;0.0;0.19617599248886108;-0.15518400073051453;1.1282559633255005;0.0;0.0;0.0
508;0.0;0.0;0.0;0.2235039919614792;-0.14737600088119507;1.1360639333724976;0.0;0.0;0.0
511;0.0;0.0;0.0;0.21569599211215973;-0.14347200095653534;1.132159948348999;0.0;0.0;0.0
513;0.08442399650812149;-0.020739998668432236;0.9886879920959473;0.2000799924135208;-0.19812799990177155;1.132159948348999;0.14000000059604645;0.2800000011920929;0.49000000953674316
515;0.0;0.0;0.0;0.1844639927148819;-0.1395680010318756;1.1370400190353394;0.0;0.0;0.0
517;0.0;0.0;0.0;0.2235039919614792;-0.1668960005044937;1.1526559591293335;0.0;0.0;0.0
519;0.0;0.0;0.0;0.19617599248886108;-0.1668960005044937;1.1448479890823364;0.0;0.0;0.0
521;0.08393599838018417;-0.02025200054049492;0.9889319539070129;0.18836799263954163;-0.1512800008058548;1.1370400190353394;0.14000000059604645;0.2800000011920929;0.42000001668930054
523;0.0;0.0;0.0;0.17665599286556244;-0.1512800008058548;1.1370400190353394;0.0;0.0;0.0
525;0.0;0.0;0.0;0.19227199256420135;-0.1668960005044937;1.124351978302002;0.0;0.0;0.0
528;0.0;0.0;0.0;0.20788799226284027;-0.1395680010318756;1.1448479890823364;0.0;0.0;0.0
530;0.08466799557209015;-0.02025200054049492;0.9891759753227234;0.21959999203681946;-0.15908800065517426;1.1614400148391724;0.07000000029802322;0.21000000834465027;0.49000000953674316
532;0.0;0.0;0.0;0.18836799263954163;-0.1668960005044937;1.140944004058838;0.0;0.0;0.0
534;0.0;0.0;0.0;0.20398399233818054;-0.15908800065517426;1.1692479848861694;0.0;0.0;0.0
536;0.0;0.0;0.0;0.20398399233818054;-0.14347200095653534;1.1282559633255005;0.0;0.0;0.0
538;0.0849120020866394;-0.019519999623298645;0.98990797996521;0.2235039919614792;-0.16299200057983398;1.140944004058838;0.07000000029802322;0.2800000011920929;0.5600000023841858
540;0.0;0.0;0.0;0.20398399233818054;-0.14737600088119507;1.1526559591293335;0.0;0.0;0.0
542;0.0;0.0;0.0;0.19227199256420135;-0.1668960005044937;1.1370400190353394;0.0;0.0;0.0
545;0.0;0.0;0.0;0.2000799924135208;-0.1395680010318756;1.1526559591293335;0.0;0.0;0.0
547;0.08466799557209015;-0.02025200054049492;0.9903959631919861;0.20788799226284027;-0.17080000042915344;1.132159948348999;0.14000000059604645;0.3499999940395355;0.49000000953674316
549;0.0;0.0;0.0;0.20788799226284027;-0.16299200057983398;1.140944004058838;0.0;0.0;0.0
551;0.0;0.0;0.0;0.17665599286556244;-0.1668960005044937;1.1526559591293335;0.0;0.0;0.0
553;0.0;0.0;0.0;0.2000799924135208;-0.1786080002784729;1.148751974105835;0.0;0.0;0.0
555;0.0849120020866394;-0.019763998687267303;0.9891759753227234;0.17665599286556244;-0.18641600012779236;1.1448479890823364;0.14000000059604645;0.21000000834465027;0.49000000953674316
558;0.0;0.0;0.0;0.20398399233818054;-0.1668960005044937;1.140944004058838;0.0;0.0;0.0
559;0.0;0.0;0.0;0.16103999316692352;-0.16299200057983398;1.140944004058838;0.0;0.0;0.0
562;0.0;0.0;0.0;0.20398399233818054;-0.1512800008058548;1.1448479890823364;0.0;0.0;0.0
564;0.08515600115060806;-0.019519999623298645;0.9886879920959473;0.20398399233818054;-0.16299200057983398;1.148751974105835;0.14000000059604645;0.2800000011920929;0.49000000953674316
566;0.0;0.0;0.0;0.1844639927148819;-0.15518400073051453;1.140944004058838;0.0;0.0;0.0
568;0.0;0.0;0.0;0.16103999316692352;-0.14347200095653534;1.1448479890823364;0.0;0.0;0.0
570;0.0;0.0;0.0;0.19227199256420135;-0.1512800008058548;1.1526559591293335;0.0;0.0;0.0
572;0.08515600115060806;-0.020495999604463577;0.9894199967384338;0.19617599248886108;-0.13176000118255615;1.1370400190353394;0.07000000029802322;0.3499999940395355;0.49000000953674316
575;0.0;0.0;0.0;0.2000799924135208;-0.14737600088119507;1.156559944152832;0.0;0.0;0.0
577;0.0;0.0;0.0;0.20788799226284027;-0.14347200095653534;1.1526559591293335;0.0;0.0;0.0
579;0.0;0.0;0.0;0.1844639927148819;-0.15518400073051453;1.1526559591293335;0.0;0.0;0.0
581;0.08417999744415283;-0.020495999604463577;0.9901520013809204;0.20398399233818054;-0.17470400035381317;1.156559944152832;0.14000000059604645;0.2800000011920929;0.49000000953674316
583;0.0;0.0;0.0;0.16494399309158325;-0.17080000042915344;1.148751974105835;0.0;0.0;0.0
585;0.0;0.0;0.0;0.18836799263954163;-0.1512800008058548;1.1526559591293335;0.0;0.0;0.0
587;0.0;0.0;0.0;0.19227199256420135;-0.15908800065517426;1.132159948348999;0.0;0.0;0.0
589;0.0849120020866394;-0.020495999604463577;0.9901520013809204;0.21569599211215973;-0.15908800065517426;1.132159948348999;0.07000000029802322;0.21000000834465027;0.49000000953674316
592;0.0;0.0;0.0;0.2117919921875;-0.15518400073051453;1.132159948348999;0.0;0.0;0.0
594;0.0;0.0;0.0;0.19227199256420135;-0.14737600088119507;1.1448479890823364;0.0;0.0;0.0
596;0.0;0.0;0.0;0.18836799263954163;-0.1668960005044937;1.1448479890823364;0.0;0.0;0.0
598;0.08515600115060806;-0.020495999604463577;0.98990797996521;0.18836799263954163;-0.1395680010318756;1.124351978302002;0.07000000029802322;0.2800000011920929;0.49000000953674316
600;0.0;0.0;0.0;0.18055999279022217;-0.1395680010318756;1.148751974105835;0.0;0.0;0.0
602;0.0;0.0;0.0;0.19617599248886108;-0.16299200057983398;1.140944004058838;0.0;0.0;0.0
604;0.0;0.0;0.0;0.20398399233818054;-0.15518400073051453;1.1526559591293335;0.0;0.0;0.0
606;0.08442399650812149;-0.020739998668432236;0.9901520013809204;0.19617599248886108;-0.1668960005044937;1.1360639333724976;0.07000000029802322;0.21000000834465027;0.49000000953674316
609;0.0;0.0;0.0;0.2117919921875;-0.16299200057983398;1.1526559591293335;0.0;0.0;0.0
611;0.0;0.0;0.0;0.1727519929409027;-0.15518400073051453;1.132159948348999;0.0;0.0;0.0
613;0.0;0.0;0.0;0.19617599248886108;-0.1668960005044937;1.1204479932785034;0.0;0.0;0.0
615;0.0849120020866394;-0.02000799961388111;0.98990797996521;0.19227199256420135;-0.1512800008058548;1.140944004058838;0.14000000059604645;0.21000000834465027;0.49000000953674316
617;0.0;0.0;0.0;0.1844639927148819;-0.17080000042915344;1.1204479932785034;0.0;0.0;0.0
619;0.0;0.0;0.0;0.1844639927148819;-0.1668960005044937;1.1448479890823364;0.0;0.0;0.0
621;0.0;0.0;0.0;0.18055999279022217;-0.1512800008058548;1.140944004058838;0.0;0.0;0.0
623;0.0849120020866394;-0.020739998668432236;0.9889319539070129;0.19617599248886108;-0.15908800065517426;1.140944004058838;0.07000000029802322;0.2800000011920929;0.49000000953674316
626;0.0;0.0;0.0;0.2117919921875;-0.14347200095653534;1.1526559591293335;0.0;0.0;0.0
628;0.0;0.0;0.0;0.19617599248886108;-0.1668960005044937;1.148751974105835;0.0;0.0;0.0
630;0.0;0.0;0.0;0.19227199256420135;-0.15908800065517426;1.1282559633255005;0.0;0.0;0.0
632;0.08417999744415283;-0.02025200054049492;0.9894199967384338;0.1844639927148819;-0.17470400035381317;1.124351978302002;0.07000000029802322;0.2800000011920929;0.49000000953674316
634;0.0;0.0;0.0;0.20788799226284027;-0.14737600088119507;1.140944004058838;0.0;0.0;0.0
636;0.0;0.0;0.0;0.18836799263954163;-0.1786080002784729;1.156559944152832;0.0;0.0;0.0
638;0.0;0.0;0.0;0.19617599248886108;-0.18641600012779236;1.156559944152832;0.0;0.0;0.0
640;0.08540000021457672;-0.019763998687267303;0.9896639585494995;0.19617599248886108;-0.15908800065517426;1.148751974105835;0.14000000059604645;0.2800000011920929;0.49000000953674316
643;0.0;0.0;0.0;0.19227199256420135;-0.15518400073051453;1.1526559591293335;0.0;0.0;0.0
645;0.0;0.0;0.0;0.22740799188613892;-0.14737600088119507;1.148751974105835;0.0;0.0;0.0
647;0.0;0.0;0.0;0.17665599286556244;-0.15908800065517426;1.1126400232315063;0.0;0.0;0.0
649;0.08588799834251404;-0.02000799961388111;0.9889319539070129;0.19227199256420135;-0.1512800008058548;1.1526559591293335;0.14000000059604645;0.21000000834465027;0.49000000953674316
651;0.0;0.0;0.0;0.18836799263954163;-0.15518400073051453;1.1370400190353394;0.0;0.0;0.0
653;0.0;0.0;0.0;0.1844639927148819;-0.1395680010318756;1.1282559633255005;0.0;0.0;0.0
655;0.0;0.0;0.0;0.19617599248886108;-0.15908800065517426;1.148751974105835;0.0;0.0;0.0
657;0.08540000021457672;-0.019276000559329987;0.9886879920959473;0.2000799924135208;-0.1395680010318756;1.1526559591293335;0.07000000029802322;0.2800000011920929;0.49000000953674316
660;0.0;0.0;0.0;0.19227199256420135;-0.16299200057983398;1.1448479890823364;0.0;0.0;0.0
662;0.0;0.0;0.0;0.18836799263954163;-0.14737600088119507;1.148751974105835;0.0;0.0;0.0
664;0.0;0.0;0.0;0.18836799263954163;-0.15908800065517426;1.1165440082550049;0.0;0.0;0.0
666;0.08540000021457672;-0.01903199963271618;0.9906399846076965;0.20788799226284027;-0.14737600088119507;1.1604639291763306;0.14000000059604645;0.2800000011920929;0.49000000953674316
668;0.0;0.0;0.0;0.17665599286556244;-0.15518400073051453;1.140944004058838;0.0;0.0;0.0
670;0.0;0.0;0.0;0.2000799924135208;-0.14347200095653534;1.140944004058838;0.0;0.0;0.0
672;0.0;0.0;0.0;0.1844639927148819;-0.15908800065517426;1.1526559591293335;0.0;0.0;0.0
674;0.08466799557209015;-0.02000799961388111;0.9901520013809204;0.21959999203681946;-0.1668960005044937;1.140944004058838;0.07000000029802322;0.2800000011920929;0.49000000953674316
677;0.0;0.0;0.0;0.1727519929409027;-0.16299200057983398;1.140944004058838;0.0;0.0;0.0
679;0.0;0.0;0.0;0.19617599248886108;-0.15518400073051453;1.140944004058838;0.0;0.0;0.0
681;0.0;0.0;0.0;0.19227199256420135;-0.14347200095653534;1.1448479890823364;0.0;0.0;0.0
683;0.08369199931621552;-0.020739998668432236;0.9911279678344727;0.1844639927148819;-0.14737600088119507;1.148751974105835;0.07000000029802322;0.3499999940395355;0.49000000953674316
685;0.0;0.0;0.0;0.1727519929409027;-0.14737600088119507;1.165343999862671;0.0;0.0;0.0
687;0.0;0.0;0.0;0.19617599248886108;-0.1395680010318756;1.156559944152832;0.0;0.0;0.0
689;0.0;0.0;0.0;0.18055999279022217;-0.14347200095653534;1.140944004058838;0.0;0.0;0.0
691;0.0832040011882782;-0.02147199958562851;0.9901520013809204;0.21569599211215973;-0.1668960005044937;1.132159948348999;0.07000000029802322;0.2800000011920929;0.49000000953674316
694;0.0;0.0;0.0;0.2000799924135208;-0.14347200095653534;1.132159948348999;0.0;0.0;0.0
696;0.0;0.0;0.0;0.20788799226284027;-0.1395680010318756;1.140944004058838;0.0;0.0;0.0
698;0.0;0.0;0.0;0.2000799924135208;-0.1512800008058548;1.1526559591293335;0.0;0.0;0.0
700;0.08344800025224686;-0.020983999595046043;0.9901520013809204;0.18836799263954163;-0.1395680010318756;1.140944004058838;0.14000000059604645;0.21000000834465027;0.49000000953674316
702;0.0;0.0;0.0;0.18836799263954163;-0.15908800065517426;1.1360639333724976;0.0;0.0;0.0
704;0.0;0.0;0.0;0.21569599211215973;-0.17080000042915344;1.1526559591293335;0.0;0.0;0.0
706;0.0;0.0;0.0;0.20788799226284027;-0.14737600088119507;1.1126400232315063;0.0;0.0;0.0
708;0.08515600115060806;-0.02000799961388111;0.9884439706802368;0.18836799263954163;-0.14347200095653534;1.1448479890823364;0.14000000059604645;0.21000000834465027;0.49000000953674316
711;0.0;0.0;0.0;0.19617599248886108;-0.15908800065517426;1.1360639333724976;0.0;0.0;0.0
713;0.0;0.0;0.0;0.2000799924135208;-0.16299200057983398;1.140944004058838;0.0;0.0;0.0
715;0.0;0.0;0.0;0.21569599211215973;-0.14347200095653534;1.132159948348999;0.0;0.0;0.0
717;0.08540000021457672;-0.02025200054049492;0.9901520013809204;0.19617599248886108;-0.13566400110721588;1.148751974105835;0.07000000029802322;0.42000001668930054;0.49000000953674316
719;0.0;0.0;0.0;0.1727519929409027;-0.15518400073051453;1.156559944152832;0.0;0.0;0.0
721;0.0;0.0;0.0;0.21569599211215973;-0.1512800008058548;1.140944004058838;0.0;0.0;0.0
723;0.0;0.0;0.0;0.19227199256420135;-0.1668960005044937;1.148751974105835;0.0;0.0;0.0
725;0.08369199931621552;-0.020739998668432236;0.990884006023407;0.1727519929409027;-0.15518400073051453;1.1370400190353394;0.14000000059604645;0.3499999940395355;0.49000000953674316
728;0.0;0.0;0.0;0.19227199256420135;-0.1668960005044937;1.156559944152832;0.0;0.0;0.0
730;0.0;0.0;0.0;0.20788799226284027;-0.13566400110721588;1.165343999862671;0.0;0.0;0.0
732;0.0;0.0;0.0;0.1844639927148819;-0.15518400073051453;1.132159948348999;0.0;0.0;0.0
734;0.08564399927854538;-0.020495999604463577;0.98990797996521;0.2000799924135208;-0.1395680010318756;1.148751974105835;0.14000000059604645;0.14000000059604645;0.49000000953674316
736;0.0;0.0;0.0;0.20398399233818054;-0.17080000042915344;1.1370400190353394;0.0;0.0;0.0
738;0.0;0.0;0.0;0.2000799924135208;-0.15908800065517426;1.156559944152832;0.0;0.0;0.0
740;0.0;0.0;0.0;0.2000799924135208;-0.17080000042915344;1.132159948348999;0.0;0.0;0.0
742;0.08661999553442001;-0.01903199963271618;0.9889319539070129;0.1844639927148819;-0.17470400035381317;1.124351978302002;0.14000000059604645;0.2800000011920929;0.49000000953674316
745;0.0;0.0;0.0;0.1727519929409027;-0.1395680010318756;1.1360639333724976;0.0;0.0;0.0
747;0.0;0.0;0.0;0.2117919921875;-0.11224000155925751;1.1604639291763306;0.0;0.0;0.0
749;0.0;0.0;0.0;0.1844639927148819;-0.15908800065517426;1.1526559591293335;0.0;0.0;0.0
751;0.08442399650812149;-0.020495999604463577;0.98990797996521;0.20788799226284027;-0.14347200095653534;1.140944004058838;0.07000000029802322;0.3499999940395355;0.49000000953674316
753;0.0;0.0;0.0;0.18055999279022217;-0.15908800065517426;1.140944004058838;0.0;0.0;0.0
755;0.0;0.0;0.0;0.19227199256420135;-0.1668960005044937;1.1526559591293335;0.0;0.0;0.0
757;0.0;0.0;0.0;0.19617599248886108;-0.17080000042915344;1.1282559633255005;0.0;0.0;0.0
759;0.08369199931621552;-0.02000799961388111;0.990884006023407;0.17665599286556244;-0.15518400073051453;1.1360639333724976;0.07000000029802322;0.2800000011920929;0.49000000953674316
762;0.0;0.0;0.0;0.21569599211215973;-0.1668960005044937;1.132159948348999;0.0;0.0;0.0
764;0.0;0.0;0.0;0.18836799263954163;-0.1512800008058548;1.1448479890823364;0.0;0.0;0.0
766;0.0;0.0;0.0;0.2000799924135208;-0.14347200095653534;1.132159948348999;0.0;0.0;0.0
768;0.08442399650812149;-0.02025200054049492;0.9896639585494995;0.18055999279022217;-0.15518400073051453;1.1526559591293335;0.14000000059604645;0.14000000059604645;0.49000000953674316
770;0.0;0.0;0.0;0.2117919921875;-0.15908800065517426;1.124351978302002;0.0;0.0;0.0
772;0.0;0.0;0.0;0.2000799924135208;-0.17080000042915344;1.1370400190353394;0.0;0.0;0.0
774;0.0;0.0;0.0;0.19227199256420135;-0.14737600088119507;1.1370400190353394;0.0;0.0;0.0
776;0.08540000021457672;-0.01903199963271618;0.9879559874534607;0.19227199256420135;-0.1395680010318756;1.140944004058838;0.21000000834465027;0.21000000834465027;0.49000000953674316
779;0.0;0.0;0.0;0.20788799226284027;-0.14347200095653534;1.1526559591293335;0.0;0.0;0.0
781;0.0;0.0;0.0;0.20398399233818054;-0.15908800065517426;1.132159948348999;0.0;0.0;0.0
783;0.0;0.0;0.0;0.16884799301624298;-0.1512800008058548;1.148751974105835;0.0;0.0;0.0
785;0.08515600115060806;-0.019519999623298645;0.9896639585494995;0.20398399233818054;-0.15908800065517426;1.140944004058838;0.07000000029802322;0.3499999940395355;0.49000000953674316
787;0.0;0.0;0.0;0.20398399233818054;-0.16299200057983398;1.140944004058838;0.0;0.0;0.0
789;0.0;0.0;0.0;0.1454239934682846;-0.1668960005044937;1.1526559591293335;0.0;0.0;0.0
791;0.0;0.0;0.0;0.20788799226284027;-0.14347200095653534;1.1526559591293335;0.0;0.0;0.0
793;0.08417999744415283;-0.02000799961388111;0.9901520013809204;0.18055999279022217;-0.12785600125789642;1.148751974105835;0.07000000029802322;0.2800000011920929;0.49000000953674316
796;0.0;0.0;0.0;0.20105600357055664;-0.1512800008058548;1.156559944152832;0.0;0.0;0.0
798;0.0;0.0;0.0;0.18544000387191772;-0.17470400035381317;1.1448479890823364;0.0;0.0;0.0
800;0.0;0.0;0.0;0.1698240041732788;-0.16299200057983398;1.148751974105835;0.0;0.0;0.0
802;0.08417999744415283;-0.02000799961388111;0.98990797996521;0.20105600357055664;-0.17080000042915344;1.148751974105835;0.14000000059604645;0.21000000834465027;0.5600000023841858
804;0.0;0.0;0.0;0.18544000387191772;-0.1668960005044937;1.140944004058838;0.0;0.0;0.0
806;0.0;0.0;0.0;0.22448000311851501;-0.1786080002784729;1.148751974105835;0.0;0.0;0.0
808;0.0;0.0;0.0;0.19715198874473572;-0.16299200057983398;1.1360639333724976;0.0;0.0;0.0
810;0.08442399650812149;-0.019763998687267303;0.98990797996521;0.19715198874473572;-0.1786080002784729;1.132159948348999;0.14000000059604645;0.21000000834465027;0.49000000953674316
813;0.0;0.0;0.0;0.20788799226284027;-0.1395680010318756;1.148751974105835;0.0;0.0;0.0
815;0.0;0.0;0.0;0.18836799263954163;-0.1395680010318756;1.1448479890823364;0.0;0.0;0.0
817;0.0;0.0;0.0;0.2117919921875;-0.18251200020313263;1.148751974105835;0.0;0.0;0.0
819;0.08515600115060806;-0.02000799961388111;0.9896639585494995;0.19227199256420135;-0.13566400110721588;1.148751974105835;0.14000000059604645;0.2800000011920929;0.49000000953674316
821;0.0;0.0;0.0;0.19227199256420135;-0.14347200095653534;1.1165440082550049;0.0;0.0;0.0
823;0.0;0.0;0.0;0.18055999279022217;-0.14347200095653534;1.156559944152832;0.0;0.0;0.0
825;0.0;0.0;0.0;0.2000799924135208;-0.17080000042915344;1.1448479890823364;0.0;0.0;0.0
827;0.08564399927854538;-0.02025200054049492;0.9884439706802368;0.19617599248886108;-0.17080000042915344;1.1448479890823364;0.07000000029802322;0.3499999940395355;0.42000001668930054
830;0.0;0.0;0.0;0.19617599248886108;-0.15908800065517426;1.1370400190353394;0.0;0.0;0.0
832;0.0;0.0;0.0;0.20398399233818054;-0.13566400110721588;1.132159948348999;0.0;0.0;0.0
834;0.0;0.0;0.0;0.20788799226284027;-0.17080000042915344;1.1526559591293335;0.0;0.0;0.0
836;0.08369199931621552;-0.020739998668432236;0.98990797996521;0.19227199256420135;-0.13566400110721588;1.140944004058838;0.14000000059604645;0.3499999940395355;0.49000000953674316
838;0.0;0.0;0.0;0.20788799226284027;-0.1239520013332367;1.1282559633255005;0.0;0.0;0.0
840;0.0;0.0;0.0;0.1844639927148819;-0.15908800065517426;1.132159948348999;0.0;0.0;0.0
842;0.0;0.0;0.0;0.19227199256420135;-0.15518400073051453;1.148751974105835;0.0;0.0;0.0
844;0.08442399650812149;-0.020739998668432236;0.990884006023407;0.2000799924135208;-0.1512800008058548;1.124351978302002;0.14000000059604645;0.2800000011920929;0.49000000953674316
847;0.0;0.0;0.0;0.20788799226284027;-0.1512800008058548;1.1526559591293335;0.0;0.0;0.0
849;0.0;0.0;0.0;0.19227199256420135;-0.16299200057983398;1.148751974105835;0.0;0.0;0.0
851;0.0;0.0;0.0;0.2117919921875;-0.16299200057983398;1.1692479848861694;0.0;0.0;0.0
853;0.0861319974064827;-0.019763998687267303;0.9894199967384338;0.1844639927148819;-0.1395680010318756;1.1204479932785034;0.14000000059604645;0.21000000834465027;0.49000000953674316
855;0.0;0.0;0.0;0.21959999203681946;-0.14737600088119507;1.1282559633255005;0.0;0.0;0.0
857;0.0;0.0;0.0;0.18836799263954163;-0.14347200095653534;1.1282559633255005;0.0;0.0;0.0
859;0.0;0.0;0.0;0.16494399309158325;-0.15518400073051453;1.124351978302002;0.0;0.0;0.0
861;0.0861319974064827;-0.019763998687267303;0.9886879920959473;0.19617599248886108;-0.18251200020313263;1.1282559633255005;0.07000000029802322;0.2800000011920929;0.49000000953674316
864;0.0;0.0;0.0;0.20788799226284027;-0.17080000042915344;1.148751974105835;0.0;0.0;0.0
866;0.0;0.0;0.0;0.18836799263954163;-0.17080000042915344;1.1282559633255005;0.0;0.0;0.0
868;0.0;0.0;0.0;0.2117919921875;-0.1786080002784729;1.173151969909668;0.0;0.0;0.0
870;0.08442399650812149;-0.020983999595046043;0.9886879920959473;0.19227199256420135;-0.13566400110721588;1.148751974105835;0.07000000029802322;0.2800000011920929;0.49000000953674316
872;0.0;0.0;0.0;0.18836799263954163;-0.14737600088119507;1.148751974105835;0.0;0.0;0.0
874;0.0;0.0;0.0;0.1844639927148819;-0.1395680010318756;1.140944004058838;0.0;0.0;0.0
876;0.0;0.0;0.0;0.17665599286556244;-0.14347200095653534;1.1692479848861694;0.0;0.0;0.0
878;0.08442399650812149;-0.020983999595046043;0.98990797996521;0.18055999279022217;-0.1668960005044937;1.1370400190353394;0.14000000059604645;0.21000000834465027;0.5600000023841858
881;0.0;0.0;0.0;0.16884799301624298;-0.15518400073051453;1.1604639291763306;0.0;0.0;0.0
883;0.0;0.0;0.0;0.18836799263954163;-0.17080000042915344;1.156559944152832;0.0;0.0;0.0
885;0.0;0.0;0.0;0.20788799226284027;-0.15908800065517426;1.140944004058838;0.0;0.0;0.0
887;0.08442399650812149;-0.020983999595046043;0.9884439706802368;0.21569599211215973;-0.17080000042915344;1.1526559591293335;0.07000000029802322;0.3499999940395355;0.49000000953674316
889;0.0;0.0;0.0;0.1727519929409027;-0.1512800008058548;1.1360639333724976;0.0;0.0;0.0
891;0.0;0.0;0.0;0.1844639927148819;-0.1512800008058548;1.132159948348999;0.0;0.0;0.0
893;0.0;0.0;0.0;0.20398399233818054;-0.16299200057983398;1.1604639291763306;0.0;0.0;0.0
895;0.08369199931621552;-0.020495999604463577;0.9903959631919861;0.1844639927148819;-0.17080000042915344;1.1526559591293335;0.14000000059604645;0.2800000011920929;0.49000000953674316
898;0.0;0.0;0.0;0.18055999279022217;-0.14737600088119507;1.1370400190353394;0.0;0.0;0.0
900;0.0;0.0;0.0;0.18836799263954163;-0.1512800008058548;1.132159948348999;0.0;0.0;0.0
902;0.0;0.0;0.0;0.19227199256420135;-0.16299200057983398;1.140944004058838;0.0;0.0;0.0
904;0.08247199654579163;-0.020739998668432236;0.9896639585494995;0.1844639927148819;-0.16299200057983398;1.156559944152832;0.14000000059604645;0.14000000059604645;0.49000000953674316
906;0.0;0.0;0.0;0.18836799263954163;-0.12785600125789642;1.132159948348999;0.0;0.0;0.0
908;0.0;0.0;0.0;0.19227199256420135;-0.1512800008058548;1.148751974105835;0.0;0.0;0.0
910;0.0;0.0;0.0;0.20788799226284027;-0.15908800065517426;1.132159948348999;0.0;0.0;0.0
913;0.08637599647045135;-0.019276000559329987;0.9894199967384338;0.17665599286556244;-0.14737600088119507;1.148751974105835;0.07000000029802322;0.21000000834465027;0.49000000953674316
915;0.0;0.0;0.0;0.19227199256420135;-0.13566400110721588;1.1526559591293335;0.0;0.0;0.0
917;0.0;0.0;0.0;0.17665599286556244;-0.15518400073051453;1.1614400148391724;0.0;0.0;0.0
919;0.0;0.0;0.0;0.15323199331760406;-0.15518400073051453;1.148751974105835;0.0;0.0;0.0
921;0.08393599838018417;-0.02000799961388111;0.9901520013809204;0.17665599286556244;-0.17080000042915344;1.132159948348999;0.07000000029802322;0.5600000023841858;0.49000000953674316
923;0.0;0.0;0.0;0.19227199256420135;-0.1786080002784729;1.140944004058838;0.0;0.0;0.0
925;0.0;0.0;0.0;0.18836799263954163;-0.13566400110721588;1.1526559591293335;0.0;0.0;0.0
927;0.0;0.0;0.0;0.2000799924135208;-0.17080000042915344;1.1448479890823364;0.0;0.0;0.0
930;0.08271599560976028;-0.02025200054049492;0.9901520013809204;0.20788799226284027;-0.1668960005044937;1.148751974105835;0.21000000834465027;0.14000000059604645;0.49000000953674316
932;0.0;0.0;0.0;0.1844639927148819;-0.15908800065517426;1.1360639333724976;0.0;0.0;0.0
934;0.0;0.0;0.0;0.18836799263954163;-0.12785600125789642;1.1448479890823364;0.0;0.0;0.0
936;0.0;0.0;0.0;0.18836799263954163;-0.1395680010318756;1.1204479932785034;0.0;0.0;0.0
938;0.08759599924087524;-0.019276000559329987;0.9879559874534607;0.20398399233818054;-0.16299200057983398;1.156559944152832;0.14000000059604645;0.14000000059604645;0.42000001668930054
940;0.0;0.0;0.0;0.2000799924135208;-0.14737600088119507;1.132159948348999;0.0;0.0;0.0
942;0.0;0.0;0.0;0.2000799924135208;-0.1668960005044937;1.165343999862671;0.0;0.0;0.0
944;0.0;0.0;0.0;0.20398399233818054;-0.13566400110721588;1.124351978302002;0.0;0.0;0.0
947;0.08588799834251404;-0.02025200054049492;0.9889319539070129;0.17665599286556244;-0.15908800065517426;1.140944004058838;0.07000000029802322;0.42000001668930054;0.4856249988079071
949;0.0;0.0;0.0;0.18836799263954163;-0.15518400073051453;1.1282559633255005;0.0;0.0;0.0
951;0.0;0.0;0.0;0.17665599286556244;-0.1512800008058548;1.156559944152832;0.0;0.0;0.0
953;0.0;0.0;0.0;0.19617599248886108;-0.15518400073051453;1.148751974105835;0.0;0.0;0.0
955;0.08295999467372894;-0.020495999604463577;0.9903959631919861;0.18836799263954163;-0.15518400073051453;1.148751974105835;0.07000000029802322;0.34562498331069946;0.4856249988079071
957;0.0;0.0;0.0;0.19617599248886108;-0.1668960005044937;1.1526559591293335;0.0;0.0;0.0
959;0.0;0.0;0.0;0.18055999279022217;-0.13566400110721588;1.1165440082550049;0.0;0.0;0.0
961;0.0;0.0;0.0;0.2000799924135208;-0.15908800065517426;1.1526559591293335;0.0;0.0;0.0
964;0.0849120020866394;-0.02025200054049492;0.9896639585494995;0.1727519929409027;-0.15518400073051453;1.1282559633255005;0.14000000059604645;0.13562500476837158;0.48125001788139343
966;0.0;0.0;0.0;0.2000799924135208;-0.1395680010318756;1.140944004058838;0.0;0.0;0.0
968;0.0;0.0;0.0;0.2000799924135208;-0.13566400110721588;1.140944004058838;0.0;0.0;0.0
970;0.0;0.0;0.0;0.19617599248886108;-0.16299200057983398;1.140944004058838;0.0;0.0;0.0
972;0.08564399927854538;-0.02000799961388111;0.98990797996521;0.19617599248886108;-0.1395680010318756;1.1448479890823364;0.07000000029802322;0.27562499046325684;0.48125001788139343
974;0.0;0.0;0.0;0.20398399233818054;-0.1512800008058548;1.140944004058838;0.0;0.0;0.0
976;0.0;0.0;0.0;0.19617599248886108;-0.1512800008058548;1.156559944152832;0.0;0.0;0.0
978;0.0;0.0;0.0;0.19227199256420135;-0.15518400073051453;1.148751974105835;0.0;0.0;0.0
981;0.08442399650812149;-0.02000799961388111;0.9901520013809204;0.16884799301624298;-0.18641600012779236;1.156559944152832;0.07000000029802322;0.34562498331069946;0.4768750071525574
983;0.0;0.0;0.0;0.2117919921875;-0.17080000042915344;1.1448479890823364;0.0;0.0;0.0
985;0.0;0.0;0.0;0.21959999203681946;-0.16299200057983398;1.1448479890823364;0.0;0.0;0.0
987;0.0;0.0;0.0;0.20398399233818054;-0.13176000118255615;1.1448479890823364;0.0;0.0;0.0
989;0.08442399650812149;-0.020495999604463577;0.9906399846076965;0.18836799263954163;-0.1668960005044937;1.1448479890823364;0.14000000059604645;0.27125000953674316;0.4768750071525574
991;0.0;0.0;0.0;0.2117919921875;-0.1668960005044937;1.173151969909668;0.0;0.0;0.0
993;0.0;0.0;0.0;0.17665599286556244;-0.15518400073051453;1.1448479890823364;0.0;0.0;0.0
995;0.0;0.0;0.0;0.1844639927148819;-0.15908800065517426;1.1370400190353394;0.0;0.0;0.0
998;0.08442399650812149;-0.020983999595046043;0.9894199967384338;0.18836799263954163;-0.15518400073051453;1.140944004058838;0.07000000029802322;0.27125000953674316;0.4724999964237213
1000;0.0;0.0;0.0;0.18055999279022217;-0.1512800008058548;1.124351978302002;0.0;0.0;0.0
1002;0.0;0.0;0.0;0.17665599286556244;-0.14737600088119507;1.132159948348999;0.0;0.0;0.0
1004;0.0;0.0;0.0;0.19617599248886108;-0.15518400073051453;1.1282559633255005;0.0;0.0;0.0
1006;0.08393599838018417;-0.020739998668432236;0.9891759753227234;0.21569599211215973;-0.1668960005044937;1.1448479890823364;0.07000000029802322;0.27125000953674316;0.5381249785423279
1008;0.0;0.0;0.0;0.19227199256420135;-0.15518400073051453;1.1526559591293335;0.0;0.0;0.0
1010;0.0;0.0;0.0;0.2117919921875;-0.14737600088119507;1.1614400148391724;0.0;0.0;0.0
1012;0.0;0.0;0.0;0.20788799226284027;-0.15908800065517426;1.165343999862671;0.0;0.0;0.0
1015;0.08686399459838867;-0.02000799961388111;0.98990797996521;0.19617599248886108;-0.15908800065517426;1.124351978302002;0.13562500476837158;0.33687499165534973;0.46812501549720764
1017;0.0;0.0;0.0;0.19227199256420135;-0.1786080002784729;1.140944004058838;0.0;0.0;0.0
1019;0.0;0.0;0.0;0.17665599286556244;-0.15908800065517426;1.132159948348999;0.0;0.0;0.0
1021;0.0;0.0;0.0;0.20398399233818054;-0.13566400110721588;1.124351978302002;0.0;0.0;0.0
1023;0.08417999744415283;-0.020495999604463577;0.9896639585494995;0.1844639927148819;-0.15908800065517426;1.1370400190353394;0.13562500476837158;0.19687500596046448;0.4637500047683716
1025;0.0;0.0;0.0;0.18055999279022217;-0.13566400110721588;1.1360639333724976;0.0;0.0;0.0
1027;0.0;0.0;0.0;0.1844639927148819;-0.16299200057983398;1.156559944152832;0.0;0.0;0.0
1029;0.0;0.0;0.0;0.20788799226284027;-0.14347200095653534;1.1360639333724976;0.0;0.0;0.0
1032;0.08540000021457672;-0.019276000559329987;0.9889319539070129;0.19617599248886108;-0.1512800008058548;1.1370400190353394;0.06562499701976776;0.12687499821186066;0.4637500047683716
1034;0.0;0.0;0.0;0.19227199256420135;-0.16299200057983398;1.156559944152832;0.0;0.0;0.0
1036;0.0;0.0;0.0;0.1727519929409027;-0.14347200095653534;1.124351978302002;0.0;0.0;0.0
1038;0.0;0.0;0.0;0.18836799263954163;-0.1668960005044937;1.1448479890823364;0.0;0.0;0.0
1040;0.08564399927854538;-0.020495999604463577;0.9896639585494995;0.2117919921875;-0.17080000042915344;1.148751974105835;0.13562500476837158;0.33249998092651367;0.3893750309944153
1042;0.0;0.0;0.0;0.20398399233818054;-0.18641600012779236;1.132159948348999;0.0;0.0;0.0
1044;0.0;0.0;0.0;0.18836799263954163;-0.16299200057983398;1.132159948348999;0.0;0.0;0.0
1046;0.0;0.0;0.0;0.18836799263954163;-0.1512800008058548;1.1448479890823364;0.0;0.0;0.0
1049;0.08369199931621552;-0.020739998668432236;0.990884006023407;0.20788799226284027;-0.1512800008058548;1.132159948348999;0.13562500476837158;0.26249998807907104;0.3893750309944153
1051;0.0;0.0;0.0;0.19617599248886108;-0.15908800065517426;1.140944004058838;0.0;0.0;0.0
1053;0.0;0.0;0.0;0.19617599248886108;-0.13566400110721588;1.1526559591293335;0.0;0.0;0.0
1055;0.0;0.0;0.0;0.2000799924135208;-0.16299200057983398;1.1165440082550049;0.0;0.0;0.0
1057;0.08515600115060806;-0.02000799961388111;0.98990797996521;0.2000799924135208;-0.1668960005044937;1.1282559633255005;0.13562500476837158;0.1925000101327896;0.45500001311302185
1059;0.0;0.0;0.0;0.1844639927148819;-0.1512800008058548;1.148751974105835;0.0;0.0;0.0
1061;0.0;0.0;0.0;0.2117919921875;-0.14347200095653534;1.1448479890823364;0.0;0.0;0.0
1063;0.0;0.0;0.0;0.19227199256420135;-0.17080000042915344;1.124351978302002;0.0;0.0;0.0
1066;0.08515600115060806;-0.019763998687267303;0.9891759753227234;0.19617599248886108;-0.1512800008058548;1.1604639291763306;0.06562499701976776;0.398125022649765;0.45500001311302185
1068;0.0;0.0;0.0;0.19617599248886108;-0.14737600088119507;1.1370400190353394;0.0;0.0;0.0
1070;0.0;0.0;0.0;0.2235039919614792;-0.13566400110721588;1.140944004058838;0.0;0.0;0.0
1072;0.0;0.0;0.0;0.18836799263954163;-0.15908800065517426;1.1614400148391724;0.0;0.0;0.0
1074;0.08369199931621552;-0.02025200054049492;0.9916160106658936;0.20788799226284027;-0.13566400110721588;1.156559944152832;0.06562499701976776;0.328125;0.4506250023841858
1076;0.0;0.0;0.0;0.16494399309158325;-0.1395680010318756;1.1370400190353394;0.0;0.0;0.0
1078;0.0;0.0;0.0;0.2000799924135208;-0.1786080002784729;1.1526559591293335;0.0;0.0;0.0
1081;0.0;0.0;0.0;0.22740799188613892;-0.15908800065517426;1.132159948348999;0.0;0.0;0.0
1083;0.08369199931621552;-0.02025200054049492;0.9894199967384338;0.19617599248886108;-0.14347200095653534;1.132159948348999;0.13124999403953552;0.11812499910593033;0.4506250023841858
1085;0.0;0.0;0.0;0.20398399233818054;-0.1395680010318756;1.140944004058838;0.0;0.0;0.0
1087;0.0;0.0;0.0;0.19617599248886108;-0.17080000042915344;1.1448479890823364;0.0;0.0;0.0
1089;0.0;0.0;0.0;0.18836799263954163;-0.14737600088119507;1.140944004058838;0.0;0.0;0.0
1091;0.08564399927854538;-0.020495999604463577;0.9889319539070129;0.20398399233818054;-0.14737600088119507;1.1204479932785034;0.13124999403953552;0.11812499910593033;0.4462500214576721
1093;0.0;0.0;0.0;0.19227199256420135;-0.15518400073051453;1.140944004058838;0.0;0.0;0.0
1095;0.0;0.0;0.0;0.20788799226284027;-0.1395680010318756;1.1526559591293335;0.0;0.0;0.0
1098;0.0;0.0;0.0;0.1727519929409027;-0.1512800008058548;1.1360639333724976;0.0;0.0;0.0
1100;0.08393599838018417;-0.020495999604463577;0.98990797996521;0.19227199256420135;-0.16299200057983398;1.148751974105835;0.061250001192092896;0.2581250071525574;0.4462500214576721
1102;0.0;0.0;0.0;0.18836799263954163;-0.15908800065517426;1.156559944152832;0.0;0.0;0.0
1104;0.0;0.0;0.0;0.18836799263954163;-0.17080000042915344;1.1448479890823364;0.0;0.0;0.0
1106;0.0;0.0;0.0;0.18836799263954163;-0.1668960005044937;1.1448479890823364;0.0;0.0;0.0
1108;0.08344800025224686;-0.020983999595046043;0.9916160106658936;0.18055999279022217;-0.15518400073051453;1.1282559633255005;0.13124999403953552;0.32374998927116394;0.44187501072883606
1110;0.0;0.0;0.0;0.2000799924135208;-0.15908800065517426;1.148751974105835;0.0;0.0;0.0
1112;0.0;0.0;0.0;0.19617599248886108;-0.15518400073051453;1.1448479890823364;0.0;0.0;0.0
1115;0.0;0.0;0.0;0.18055999279022217;-0.14737600088119507;1.1370400190353394;0.0;0.0;0.0
1117;0.08540000021457672;-0.02000799961388111;0.9901520013809204;0.1844639927148819;-0.15908800065517426;1.1448479890823364;0.13124999403953552;0.11374999582767487;0.44187501072883606
1119;0.0;0.0;0.0;0.21959999203681946;-0.14737600088119507;1.1370400190353394;0.0;0.0;0.0
1121;0.0;0.0;0.0;0.2235039919614792;-0.15908800065517426;1.132159948348999;0.0;0.0;0.0
1123;0.0;0.0;0.0;0.19617599248886108;-0.1668960005044937;1.148751974105835;0.0;0.0;0.0
1125;0.0861319974064827;-0.019763998687267303;0.9886879920959473;0.20398399233818054;-0.16299200057983398;1.1370400190353394;0.13124999403953552;0.2537499964237213;0.4375
1127;0.0;0.0;0.0;0.1844639927148819;-0.17470400035381317;1.1526559591293335;0.0;0.0;0.0
1129;0.0;0.0;0.0;0.2117919921875;-0.1668960005044937;1.132159948348999;0.0;0.0;0.0
1132;0.0;0.0;0.0;0.19617599248886108;-0.15518400073051453;1.1360639333724976;0.0;0.0;0.0
1134;0.08466799557209015;-0.019763998687267303;0.9894199967384338;0.20788799226284027;-0.18251200020313263;1.148751974105835;0.061250001192092896;0.3193749785423279;0.4375
1136;0.0;0.0;0.0;0.19617599248886108;-0.18251200020313263;1.148751974105835;0.0;0.0;0.0
1138;0.0;0.0;0.0;0.17665599286556244;-0.14737600088119507;1.140944004058838;0.0;0.0;0.0
1140;0.0;0.0;0.0;0.1844639927148819;-0.1395680010318756;1.140944004058838;0.0;0.0;0.0
1142;0.0832040011882782;-0.02025200054049492;0.98990797996521;0.2000799924135208;-0.13566400110721588;1.1526559591293335;0.13124999403953552;0.24937500059604645;0.43312501907348633
1144;0.0;0.0;0.0;0.21569599211215973;-0.13566400110721588;1.1448479890823364;0.0;0.0;0.0
1146;0.0;0.0;0.0;0.18836799263954163;-0.17470400035381317;1.1526559591293335;0.0;0.0;0.0
1149;0.0;0.0;0.0;0.18055999279022217;-0.1512800008058548;1.1448479890823364;0.0;0.0;0.0
1151;0.08540000021457672;-0.019763998687267303;0.9889319539070129;0.20788799226284027;-0.1512800008058548;1.1526559591293335;0.12687499821186066;0.17937500774860382;0.43312501907348633
1153;0.0;0.0;0.0;0.19227199256420135;-0.1512800008058548;1.156559944152832;0.0;0.0;0.0
1155;0.0;0.0;0.0;0.1844639927148819;-0.14737600088119507;1.132159948348999;0.0;0.0;0.0
1157;0.0;0.0;0.0;0.19617599248886108;-0.1512800008058548;1.132159948348999;0.0;0.0;0.0
1159;0.08515600115060806;-0.02025200054049492;0.9891759753227234;0.19617599248886108;-0.15518400073051453;1.1526559591293335;0.12687499821186066;0.3193749785423279;0.42875000834465027
1161;0.0;0.0;0.0;0.18836799263954163;-0.1512800008058548;1.156559944152832;0.0;0.0;0.0
1163;0.0;0.0;0.0;0.18055999279022217;-0.17470400035381317;1.1282559633255005;0.0;0.0;0.0
1166;0.0;0.0;0.0;0.18055999279022217;-0.13176000118255615;1.1604639291763306;0.0;0.0;0.0
1168;0.08393599838018417;-0.02000799961388111;0.9906399846076965;0.18836799263954163;-0.14347200095653534;1.1448479890823364;0.12687499821186066;0.24500000476837158;0.35875001549720764
1170;0.0;0.0;0.0;0.17665599286556244;-0.15518400073051453;1.1204479932785034;0.0;0.0;0.0
1172;0.0;0.0;0.0;0.19227199256420135;-0.14737600088119507;1.140944004058838;0.0;0.0;0.0
1174;0.0;0.0;0.0;0.19227199256420135;-0.15908800065517426;1.1604639291763306;0.0;0.0;0.0
1176;0.08564399927854538;-0.019763998687267303;0.9891759753227234;0.19227199256420135;-0.15908800065517426;1.132159948348999;0.12687499821186066;0.10500000417232513;0.49437499046325684
1178;0.0;0.0;0.0;0.1727519929409027;-0.14347200095653534;1.165343999862671;0.0;0.0;0.0
1180;0.0;0.0;0.0;0.19617599248886108;-0.15908800065517426;1.165343999862671;0.0;0.0;0.0
1183;0.0;0.0;0.0;0.16884799301624298;-0.1512800008058548;1.156559944152832;0.0;0.0;0.0
1185;0.08466799557209015;-0.02025200054049492;0.9896639585494995;0.18836799263954163;-0.1512800008058548;1.148751974105835;0.05687499791383743;0.3850000202655792;0.4243749976158142
1187;0.0;0.0;0.0;0.1844639927148819;-0.15908800065517426;1.132159948348999;0.0;0.0;0.0
1189;0.0;0.0;0.0;0.20398399233818054;-0.14737600088119507;1.148751974105835;0.0;0.0;0.0
1191;0.0;0.0;0.0;0.18836799263954163;-0.14737600088119507;1.140944004058838;0.0;0.0;0.0
1193;0.08369199931621552;-0.020739998668432236;0.9903959631919861;0.19227199256420135;-0.15908800065517426;1.1370400190353394;0.05687499791383743;0.31062498688697815;0.42000001668930054
1195;0.0;0.0;0.0;0.18836799263954163;-0.15518400073051453;1.1448479890823364;0.0;0.0;0.0
1197;0.0;0.0;0.0;0.19227199256420135;-0.13566400110721588;1.148751974105835;0.0;0.0;0.0
1200;0.0;0.0;0.0;0.18836799263954163;-0.1668960005044937;1.156559944152832;0.0;0.0;0.0
1202;0.08564399927854538;-0.02000799961388111;0.9891759753227234;0.1844639927148819;-0.16299200057983398;1.1282559633255005;0.12687499821186066;0.10062500089406967;0.42000001668930054
1204;0.0;0.0;0.0;0.17665599286556244;-0.15908800065517426;1.1526559591293335;0.0;0.0;0.0
1206;0.0;0.0;0.0;0.2235039919614792;-0.13566400110721588;1.1448479890823364;0.0;0.0;0.0
1208;0.0;0.0;0.0;0.21959999203681946;-0.15908800065517426;1.1370400190353394;0.0;0.0;0.0
1210;0.08540000021457672;-0.018300000578165054;0.9891759753227234;0.19617599248886108;-0.15908800065517426;1.140944004058838;0.05687499791383743;0.31062498688697815;0.4856249988079071
1213;0.0;0.0;0.0;0.16884799301624298;-0.16299200057983398;1.1604639291763306;0.0;0.0;0.0
1214;0.0;0.0;0.0;0.20788799226284027;-0.14347200095653534;1.1282559633255005;0.0;0.0;0.0
1217;0.0;0.0;0.0;0.1844639927148819;-0.12785600125789642;1.1448479890823364;0.0;0.0;0.0
1219;0.08344800025224686;-0.019276000559329987;0.9903959631919861;0.1727519929409027;-0.14737600088119507;1.1604639291763306;0.05687499791383743;0.24062499403953552;0.4856249988079071
1221;0.0;0.0;0.0;0.1727519929409027;-0.1395680010318756;1.1526559591293335;0.0;0.0;0.0
1223;0.0;0.0;0.0;0.19617599248886108;-0.1786080002784729;1.140944004058838;0.0;0.0;0.0
1225;0.0;0.0;0.0;0.18836799263954163;-0.13566400110721588;1.1370400190353394;0.0;0.0;0.0
1227;0.08515600115060806;-0.019519999623298645;0.9896639585494995;0.2000799924135208;-0.17080000042915344;1.148751974105835;0.12250000238418579;0.09624999761581421;0.4112499952316284
1230;0.0;0.0;0.0;0.21569599211215973;-0.14347200095653534;1.1526559591293335;0.0;0.0;0.0
1231;0.0;0.0;0.0;0.2000799924135208;-0.1512800008058548;1.124351978302002;0.0;0.0;0.0
1234;0.0;0.0;0.0;0.18055999279022217;-0.1512800008058548;1.156559944152832;0.0;0.0;0.0
1236;0.08466799557209015;-0.020495999604463577;0.9882000088691711;0.20788799226284027;-0.16299200057983398;1.1526559591293335;0.05250000208616257;0.3062500059604645;0.4112499952316284
1238;0.0;0.0;0.0;0.2117919921875;-0.13566400110721588;1.140944004058838;0.0;0.0;0.0
1240;0.0;0.0;0.0;0.19617599248886108;-0.1512800008058548;1.1526559591293335;0.0;0.0;0.0
1242;0.0;0.0;0.0;0.21959999203681946;-0.15908800065517426;1.1282559633255005;0.0;0.0;0.0
1244;0.08417999744415283;-0.020739998668432236;0.9901520013809204;0.19617599248886108;-0.17080000042915344;1.140944004058838;0.05250000208616257;0.3062500059604645;0.40687501430511475
1247;0.0;0.0;0.0;0.18836799263954163;-0.1395680010318756;1.1448479890823364;0.0;0.0;0.0
1249;0.0;0.0;0.0;0.20398399233818054;-0.1512800008058548;1.1526559591293335;0.0;0.0;0.0
1251;0.0;0.0;0.0;0.18836799263954163;-0.15518400073051453;1.140944004058838;0.0;0.0;0.0
1253;0.08515600115060806;-0.02000799961388111;0.9901520013809204;0.19227199256420135;-0.14347200095653534;1.140944004058838;0.05250000208616257;0.16625000536441803;0.40687501430511475
1255;0.0;0.0;0.0;0.20398399233818054;-0.14737600088119507;1.148751974105835;0.0;0.0;0.0
1257;0.0;0.0;0.0;0.1844639927148819;-0.1512800008058548;1.132159948348999;0.0;0.0;0.0
1259;0.0;0.0;0.0;0.18836799263954163;-0.16299200057983398;1.1282559633255005;0.0;0.0;0.0
1261;0.08417999744415283;-0.02000799961388111;0.9901520013809204;0.19227199256420135;-0.16299200057983398;1.1204479932785034;0.12250000238418579;0.2318750023841858;0.4724999964237213
1263;0.0;0.0;0.0;0.17665599286556244;-0.16299200057983398;1.148751974105835;0.0;0.0;0.0
1266;0.0;0.0;0.0;0.1844639927148819;-0.15908800065517426;1.132159948348999;0.0;0.0;0.0
1268;0.0;0.0;0.0;0.20398399233818054;-0.17080000042915344;1.1282559633255005;0.0;0.0;0.0
1270;0.08369199931621552;-0.020495999604463577;0.9903959631919861;0.19227199256420135;-0.14737600088119507;1.107759952545166;0.05250000208616257;0.3018749952316284;0.4025000035762787
1272;0.0;0.0;0.0;0.21569599211215973;-0.14737600088119507;1.1448479890823364;0.0;0.0;0.0
1274;0.0;0.0;0.0;0.2000799924135208;-0.19422399997711182;1.132159948348999;0.0;0.0;0.0
1276;0.0;0.0;0.0;0.18055999279022217;-0.1668960005044937;1.1370400190353394;0.0;0.0;0.0
1278;0.08369199931621552;-0.02025200054049492;0.9903959631919861;0.23521599173545837;-0.15518400073051453;1.132159948348999;0.12250000238418579;0.16187500953674316;0.4025000035762787
1281;0.0;0.0;0.0;0.2117919921875;-0.15908800065517426;1.1448479890823364;0.0;0.0;0.0
1282;0.0;0.0;0.0;0.19227199256420135;-0.14347200095653534;1.1448479890823364;0.0;0.0;0.0
1285;0.0;0.0;0.0;0.19617599248886108;-0.15518400073051453;1.148751974105835;0.0;0.0;0.0
1287;0.0849120020866394;-0.02025200054049492;0.9894199967384338;0.1844639927148819;-0.15518400073051453;1.1526559591293335;0.12250000238418579;0.16187500953674316;0.3981249928474426
1289;0.0;0.0;0.0;0.20398399233818054;-0.14737600088119507;1.140944004058838;0.0;0.0;0.0
1291;0.0;0.0;0.0;0.21959999203681946;-0.16299200057983398;1.1448479890823364;0.0;0.0;0.0
1293;0.0;0.0;0.0;0.2000799924135208;-0.14347200095653534;1.1448479890823364;0.0;0.0;0.0
1295;0.08515600115060806;-0.02025200054049492;0.9896639585494995;0.18836799263954163;-0.1395680010318756;1.132159948348999;0.05250000208616257;0.29749998450279236;0.3981249928474426
1297;0.0;0.0;0.0;0.1727519929409027;-0.15908800065517426;1.1282559633255005;0.0;0.0;0.0
1300;0.0;0.0;0.0;0.19617599248886108;-0.1668960005044937;1.1448479890823364;0.0;0.0;0.0
1302;0.0;0.0;0.0;0.20788799226284027;-0.15908800065517426;1.140944004058838;0.0;0.0;0.0
1304;0.0849120020866394;-0.019763998687267303;0.9901520013809204;0.1844639927148819;-0.1668960005044937;1.1448479890823364;0.05250000208616257;0.29749998450279236;0.39375001192092896
1306;0.0;0.0;0.0;0.2117919921875;-0.14347200095653534;1.1448479890823364;0.0;0.0;0.0
1308;0.0;0.0;0.0;0.19617599248886108;-0.15518400073051453;1.1360639333724976;0.0;0.0;0.0
1310;0.0;0.0;0.0;0.18836799263954163;-0.1512800008058548;1.1360639333724976;0.0;0.0;0.0
1312;0.08540000021457672;-0.019519999623298645;0.990884006023407;0.18055999279022217;-0.15518400073051453;1.124351978302002;0.12250000238418579;0.22749999165534973;0.39375001192092896
1315;0.0;0.0;0.0;0.2000799924135208;-0.14347200095653534;1.1448479890823364;0.0;0.0;0.0
1317;0.0;0.0;0.0;0.1844639927148819;-0.14347200095653534;1.1370400190353394;0.0;0.0;0.0
1319;0.0;0.0;0.0;0.21959999203681946;-0.1512800008058548;1.1165440082550049;0.0;0.0;0.0
1321;0.08515600115060806;-0.019763998687267303;0.9913719892501831;0.19227199256420135;-0.1668960005044937;1.1282559633255005;0.11812499910593033;0.22312499582767487;0.3893750011920929
1323;0.0;0.0;0.0;0.1727519929409027;-0.1668960005044937;1.124351978302002;0.0;0.0;0.0
1325;0.0;0.0;0.0;0.2000799924135208;-0.18251200020313263;1.132159948348999;0.0;0.0;0.0
1327;0.0;0.0;0.0;0.2117919921875;-0.1668960005044937;1.124351978302002;0.0;0.0;0.0
1329;0.08515600115060806;-0.02025200054049492;0.9901520013809204;0.17665599286556244;-0.18641600012779236;1.1282559633255005;0.18812501430511475;0.15312500298023224;0.3893750011920929
1332;0.0;0.0;0.0;0.16103999316692352;-0.14737600088119507;1.1370400190353394;0.0;0.0;0.0
1334;0.0;0.0;0.0;0.17665599286556244;-0.1512800008058548;1.132159948348999;0.0;0.0;0.0
1336;0.0;0.0;0.0;0.17665599286556244;-0.15908800065517426;1.1282559633255005;0.0;0.0;0.0
1338;0.0861319974064827;-0.02000799961388111;0.9882000088691711;0.1844639927148819;-0.1512800008058548;1.140944004058838;0.11812499910593033;0.15312500298023224;0.38499999046325684
1340;0.0;0.0;0.0;0.20398399233818054;-0.15518400073051453;1.148751974105835;0.0;0.0;0.0
1342;0.0;0.0;0.0;0.18055999279022217;-0.16299200057983398;1.156559944152832;0.0;0.0;0.0
1344;0.0;0.0;0.0;0.19227199256420135;-0.15908800065517426;1.1526559591293335;0.0;0.0;0.0
1346;0.08515600115060806;-0.02000799961388111;0.9896639585494995;0.17665599286556244;-0.15908800065517426;1.1370400190353394;0.048124998807907104;0.22312499582767487;0.38499999046325684
1349;0.0;0.0;0.0;0.1844639927148819;-0.1395680010318756;1.148751974105835;0.0;0.0;0.0
1351;0.0;0.0;0.0;0.19617599248886108;-0.1668960005044937;1.1526559591293335;0.0;0.0;0.0
1353;0.0;0.0;0.0;0.1727519929409027;-0.16299200057983398;1.140944004058838;0.0;0.0;0.0
1355;0.08393599838018417;-0.019763998687267303;0.9906399846076965;0.19227199256420135;-0.17470400035381317;1.1448479890823364;0.048124998807907104;0.2931250035762787;0.38499999046325684
1357;0.0;0.0;0.0;0.2000799924135208;-0.17470400035381317;1.1204479932785034;0.0;0.0;0.0
1359;0.0;0.0;0.0;0.19617599248886108;-0.1786080002784729;1.148751974105835;0.0;0.0;0.0
1361;0.0;0.0;0.0;0.18836799263954163;-0.1512800008058548;1.1526559591293335;0.0;0.0;0.0
1363;0.08344800025224686;-0.02025200054049492;0.9906399846076965;0.18836799263954163;-0.15908800065517426;1.1204479932785034;0.11812499910593033;0.21875;0.31062501668930054
1366;0.0;0.0;0.0;0.18055999279022217;-0.14737600088119507;1.1282559633255005;0.0;0.0;0.0
1368;0.0;0.0;0.0;0.19617599248886108;-0.1395680010318756;1.132159948348999;0.0;0.0;0.0
1370;0.0;0.0;0.0;0.18836799263954163;-0.15518400073051453;1.132159948348999;0.0;0.0;0.0
1372;0.08515600115060806;-0.02025200054049492;0.9896639585494995;0.1844639927148819;-0.16299200057983398;1.1282559633255005;0.048124998807907104;0.14875000715255737;0.38062500953674316
1374;0.0;0.0;0.0;0.2000799924135208;-0.1395680010318756;1.140944004058838;0.0;0.0;0.0
1376;0.0;0.0;0.0;0.20398399233818054;-0.1512800008058548;1.132159948348999;0.0;0.0;0.0
1378;0.0;0.0;0.0;0.1844639927148819;-0.14347200095653534;1.165343999862671;0.0;0.0;0.0
1380;0.08515600115060806;-0.02025200054049492;0.9894199967384338;0.18836799263954163;-0.14737600088119507;1.140944004058838;0.048124998807907104;0.2887499928474426;0.3762499988079071
1383;0.0;0.0;0.0;0.17665599286556244;-0.15908800065517426;1.140944004058838;0.0;0.0;0.0
1385;0.0;0.0;0.0;0.22740799188613892;-0.14737600088119507;1.132159948348999;0.0;0.0;0.0
1387;0.0;0.0;0.0;0.20398399233818054;-0.17470400035381317;1.132159948348999;0.0;0.0;0.0
1389;0.08393599838018417;-0.020983999595046043;0.9906399846076965;0.20788799226284027;-0.16299200057983398;1.148751974105835;0.048124998807907104;0.28437501192092896;0.3762499988079071
1391;0.0;0.0;0.0;0.1727519929409027;-0.15908800065517426;1.1526559591293335;0.0;0.0;0.0
1393;0.0;0.0;0.0;0.20788799226284027;-0.15518400073051453;1.1448479890823364;0.0;0.0;0.0
1395;0.0;0.0;0.0;0.18055999279022217;-0.14737600088119507;1.1204479932785034;0.0;0.0;0.0
1397;0.08442399650812149;-0.02000799961388111;0.9903959631919861;0.2235039919614792;-0.16299200057983398;1.1165440082550049;0.048124998807907104;0.21437500417232513;0.37187501788139343
1400;0.0;0.0;0.0;0.1727519929409027;-0.1668960005044937;1.1448479890823364;0.0;0.0;0.0
1402;0.0;0.0;0.0;0.16884799301624298;-0.1512800008058548;1.132159948348999;0.0;0.0;0.0
1404;0.0;0.0;0.0;0.19617599248886108;-0.1668960005044937;1.1370400190353394;0.0;0.0;0.0
1406;0.08466799557209015;-0.02025200054049492;0.9896639585494995;0.18055999279022217;-0.14347200095653534;1.156559944152832;0.048124998807907104;0.21437500417232513;0.44187501072883606
1408;0.0;0.0;0.0;0.2000799924135208;-0.14347200095653534;1.140944004058838;0.0;0.0;0.0
1410;0.0;0.0;0.0;0.19617599248886108;-0.14737600088119507;1.1614400148391724;0.0;0.0;0.0
1412;0.0;0.0;0.0;0.1571359932422638;-0.15908800065517426;1.1370400190353394;0.0;0.0;0.0
1414;0.08393599838018417;-0.020495999604463577;0.9901520013809204;0.20788799226284027;-0.1395680010318756;1.1448479890823364;0.048124998807907104;0.21437500417232513;0.37187501788139343
1417;0.0;0.0;0.0;0.20398399233818054;-0.14347200095653534;1.1282559633255005;0.0;0.0;0.0
1419;0.0;0.0;0.0;0.21569599211215973;-0.1395680010318756;1.1360639333724976;0.0;0.0;0.0
1421;0.0;0.0;0.0;0.16884799301624298;-0.1786080002784729;1.1370400190353394;0.0;0.0;0.0
1423;0.08515600115060806;-0.019763998687267303;0.98990797996521;0.19617599248886108;-0.15518400073051453;1.1204479932785034;0.04374999925494194;0.21000000834465027;0.3675000071525574
1425;0.0;0.0;0.0;0.19617599248886108;-0.1512800008058548;1.140944004058838;0.0;0.0;0.0
1427;0.0;0.0;0.0;0.19227199256420135;-0.1668960005044937;1.156559944152832;0.0;0.0;0.0
1429;0.0;0.0;0.0;0.17665599286556244;-0.14347200095653534;1.140944004058838;0.0;0.0;0.0
1431;0.08515600115060806;-0.02025200054049492;0.9903959631919861;0.19227199256420135;-0.15908800065517426;1.1165440082550049;-0.026250001043081284;0.21000000834465027;0.3675000071525574
1434;0.0;0.0;0.0;0.1727519929409027;-0.16299200057983398;1.1360639333724976;0.0;0.0;0.0
1436;0.0;0.0;0.0;0.19617599248886108;-0.1395680010318756;1.140944004058838;0.0;0.0;0.0
1438;0.0;0.0;0.0;0.19617599248886108;-0.15908800065517426;1.148751974105835;0.0;0.0;0.0
1440;0.0849120020866394;-0.02025200054049492;0.9903959631919861;0.19617599248886108;-0.14737600088119507;1.1282559633255005;0.04374999925494194;0.21000000834465027;0.3631250262260437
1442;0.0;0.0;0.0;0.17665599286556244;-0.16299200057983398;1.132159948348999;0.0;0.0;0.0
1444;0.0;0.0;0.0;0.20788799226284027;-0.1512800008058548;1.156559944152832;0.0;0.0;0.0
1446;0.0;0.0;0.0;0.20788799226284027;-0.16299200057983398;1.148751974105835;0.0;0.0;0.0
1448;0.08588799834251404;-0.02000799961388111;0.9896639585494995;0.18055999279022217;-0.15908800065517426;1.132159948348999;0.04374999925494194;0.21000000834465027;0.3631250262260437
1451;0.0;0.0;0.0;0.2000799924135208;-0.13176000118255615;1.132159948348999;0.0;0.0;0.0
1453;0.0;0.0;0.0;0.2000799924135208;-0.17470400035381317;1.1448479890823364;0.0;0.0;0.0
1455;0.0;0.0;0.0;0.1844639927148819;-0.15518400073051453;1.156559944152832;0.0;0.0;0.0
1457;0.08466799557209015;-0.019763998687267303;0.9896639585494995;0.18836799263954163;-0.17080000042915344;1.140944004058838;0.04374999925494194;0.34562501311302185;0.42875000834465027
1459;0.0;0.0;0.0;0.17665599286556244;-0.15908800065517426;1.1692479848861694;0.0;0.0;0.0
1461;0.0;0.0;0.0;0.2000799924135208;-0.13566400110721588;1.1526559591293335;0.0;0.0;0.0
1463;0.0;0.0;0.0;0.18055999279022217;-0.14737600088119507;1.140944004058838;0.0;0.0;0.0
1465;0.08393599838018417;-0.020495999604463577;0.9906399846076965;0.18055999279022217;-0.13566400110721588;1.124351978302002;0.11374999582767487;0.2056249976158142;0.35875001549720764
1468;0.0;0.0;0.0;0.18836799263954163;-0.1903200000524521;1.1692479848861694;0.0;0.0;0.0
1470;0.0;0.0;0.0;0.19617599248886108;-0.1395680010318756;1.148751974105835;0.0;0.0;0.0
1472;0.0;0.0;0.0;0.19227199256420135;-0.16299200057983398;1.140944004058838;0.0;0.0;0.0
1474;0.08442399650812149;-0.02025200054049492;0.9901520013809204;0.19227199256420135;-0.16299200057983398;1.1526559591293335;0.11374999582767487;0.2056249976158142;0.35875001549720764
1476;0.0;0.0;0.0;0.2000799924135208;-0.17080000042915344;1.1448479890823364;0.0;0.0;0.0
1478;0.0;0.0;0.0;0.1844639927148819;-0.16299200057983398;1.1282559633255005;0.0;0.0;0.0
1480;0.0;0.0;0.0;0.2000799924135208;-0.1668960005044937;1.1360639333724976;0.0;0.0;0.0
1482;0.08540000021457672;-0.02000799961388111;0.98990797996521;0.2117919921875;-0.15518400073051453;1.1448479890823364;0.04374999925494194;0.2056249976158142;0.3543750047683716
1485;0.0;0.0;0.0;0.16103999316692352;-0.15518400073051453;1.124351978302002;0.0;0.0;0.0
1487;0.0;0.0;0.0;0.21959999203681946;-0.1786080002784729;1.140944004058838;0.0;0.0;0.0
1489;0.0;0.0;0.0;0.19617599248886108;-0.1395680010318756;1.156559944152832;0.0;0.0;0.0
1491;0.08442399650812149;-0.02000799961388111;0.9896639585494995;0.2000799924135208;-0.15908800065517426;1.1360639333724976;-0.026250001043081284;0.20125000178813934;0.3543750047683716
1493;0.0;0.0;0.0;0.19227199256420135;-0.1512800008058548;1.1692479848861694;0.0;0.0;0.0
1495;0.0;0.0;0.0;0.2000799924135208;-0.16299200057983398;1.1370400190353394;0.0;0.0;0.0
1497;0.0;0.0;0.0;0.17665599286556244;-0.13566400110721588;1.1448479890823364;0.0;0.0;0.0
1499;0.0849120020866394;-0.020495999604463577;0.9896639585494995;0.20398399233818054;-0.1512800008058548;1.1360639333724976;0.11374999582767487;0.27125000953674316;0.3500000238418579
1502;0.0;0.0;0.0;0.19227199256420135;-0.1668960005044937;1.156559944152832;0.0;0.0;0.0
1504;0.0;0.0;0.0;0.18836799263954163;-0.17080000042915344;1.165343999862671;0.0;0.0;0.0
1506;0.0;0.0;0.0;0.20398399233818054;-0.14347200095653534;1.148751974105835;0.0;0.0;0.0
1508;0.0849120020866394;-0.02025200054049492;0.98990797996521;0.2000799924135208;-0.15908800065517426;1.148751974105835;0.11374999582767487;0.20125000178813934;0.3500000238418579
1510;0.0;0.0;0.0;0.19227199256420135;-0.1668960005044937;1.1448479890823364;0.0;0.0;0.0
1512;0.0;0.0;0.0;0.20398399233818054;-0.13566400110721588;1.132159948348999;0.0;0.0;0.0
1514;0.0;0.0;0.0;0.2000799924135208;-0.16299200057983398;1.1282559633255005;0.0;0.0;0.0
1516;0.08466799557209015;-0.02025200054049492;0.9901520013809204;0.20398399233818054;-0.15908800065517426;1.1448479890823364;0.11374999582767487;0.20125000178813934;0.34562501311302185
1519;0.0;0.0;0.0;0.18836799263954163;-0.1512800008058548;1.140944004058838;0.0;0.0;0.0
1521;0.0;0.0;0.0;0.18836799263954163;-0.15908800065517426;1.140944004058838;0.0;0.0;0.0
1523;0.0;0.0;0.0;0.20788799226284027;-0.1395680010318756;1.1614400148391724;0.0;0.0;0.0
1525;0.08466799557209015;-0.02025200054049492;0.9901520013809204;0.1844639927148819;-0.15518400073051453;1.1526559591293335;-0.026250001043081284;0.19687500596046448;0.34562501311302185
1527;0.0;0.0;0.0;0.19617599248886108;-0.14737600088119507;1.1614400148391724;0.0;0.0;0.0
1529;0.0;0.0;0.0;0.2117919921875;-0.15908800065517426;1.140944004058838;0.0;0.0;0.0
1531;0.0;0.0;0.0;0.19617599248886108;-0.1395680010318756;1.1204479932785034;0.0;0.0;0.0
1533;0.08515600115060806;-0.02025200054049492;0.98990797996521;0.18836799263954163;-0.16299200057983398;1.1448479890823364;0.04374999925494194;0.19687500596046448;0.34562501311302185
1536;0.0;0.0;0.0;0.2235039919614792;-0.14737600088119507;1.140944004058838;0.0;0.0;0.0
1538;0.0;0.0;0.0;0.2000799924135208;-0.15518400073051453;1.1526559591293335;0.0;0.0;0.0
1540;0.0;0.0;0.0;0.1844639927148819;-0.14347200095653534;1.140944004058838;0.0;0.0;0.0
1542;0.0832040011882782;-0.020495999604463577;0.9903959631919861;0.1844639927148819;-0.17080000042915344;1.1526559591293335;0.04374999925494194;0.19687500596046448;0.3412500023841858
1544;0.0;0.0;0.0;0.19227199256420135;-0.1668960005044937;1.140944004058838;0.0;0.0;0.0
1546;0.0;0.0;0.0;0.18055999279022217;-0.16299200057983398;1.148751974105835;0.0;0.0;0.0
1548;0.0;0.0;0.0;0.19227199256420135;-0.14347200095653534;1.165343999862671;0.0;0.0;0.0
1550;0.08442399650812149;-0.020739998668432236;0.9901520013809204;0.19227199256420135;-0.16299200057983398;1.165343999862671;0.11374999582767487;0.19687500596046448;0.3412500023841858
1553;0.0;0.0;0.0;0.18836799263954163;-0.1512800008058548;1.1282559633255005;0.0;0.0;0.0
1555;0.0;0.0;0.0;0.2000799924135208;-0.1668960005044937;1.1526559591293335;0.0;0.0;0.0
1557;0.0;0.0;0.0;0.19617599248886108;-0.1668960005044937;1.1282559633255005;0.0;0.0;0.0
1559;0.08515600115060806;-0.020495999604463577;0.98990797996521;0.18836799263954163;-0.14737600088119507;1.132159948348999;0.039374999701976776;0.19687500596046448;0.3412500023841858
1561;0.0;0.0;0.0;0.20788799226284027;-0.15518400073051453;1.1370400190353394;0.0;0.0;0.0
1563;0.0;0.0;0.0;0.20398399233818054;-0.15518400073051453;1.1526559591293335;0.0;0.0;0.0
1565;0.0;0.0;0.0;0.20788799226284027;-0.15518400073051453;1.1165440082550049;0.0;0.0;0.0
1567;0.08442399650812149;-0.019763998687267303;0.9896639585494995;0.19617599248886108;-0.17080000042915344;1.1370400190353394;0.109375;0.19249999523162842;0.3368750214576721
1570;0.0;0.0;0.0;0.21569599211215973;-0.15908800065517426;1.1448479890823364;0.0;0.0;0.0
1572;0.0;0.0;0.0;0.2000799924135208;-0.14347200095653534;1.1526559591293335;0.0;0.0;0.0
1574;0.0;0.0;0.0;0.19617599248886108;-0.1512800008058548;1.140944004058838;0.0;0.0;0.0
1576;0.0849120020866394;-0.02000799961388111;0.98990797996521;0.20788799226284027;-0.15518400073051453;1.140944004058838;0.039374999701976776;0.19249999523162842;0.3368750214576721
1578;0.0;0.0;0.0;0.19227199256420135;-0.13566400110721588;1.1370400190353394;0.0;0.0;0.0
1580;0.0;0.0;0.0;0.2000799924135208;-0.15518400073051453;1.132159948348999;0.0;0.0;0.0
1582;0.0;0.0;0.0;0.16884799301624298;-0.16299200057983398;1.1604639291763306;0.0;0.0;0.0
1584;0.08540000021457672;-0.019763998687267303;0.9884439706802368;0.19617599248886108;-0.14347200095653534;1.132159948348999;0.109375;0.12250000983476639;0.33250001072883606
1587;0.0;0.0;0.0;0.19617599248886108;-0.14737600088119507;1.148751974105835;0.0;0.0;0.0
1589;0.0;0.0;0.0;0.19227199256420135;-0.16299200057983398;1.140944004058838;0.0;0.0;0.0
1591;0.0;0.0;0.0;0.18836799263954163;-0.1786080002784729;1.148751974105835;0.0;0.0;0.0
1593;0.08442399650812149;-0.02000799961388111;0.9891759753227234;0.16884799301624298;-0.14737600088119507;1.1360639333724976;0.039374999701976776;0.19249999523162842;0.4025000035762787
1595;0.0;0.0;0.0;0.1727519929409027;-0.14737600088119507;1.1448479890823364;0.0;0.0;0.0
1597;0.0;0.0;0.0;0.20398399233818054;-0.18251200020313263;1.124351978302002;0.0;0.0;0.0
1599;0.0;0.0;0.0;0.1844639927148819;-0.17470400035381317;1.140944004058838;0.0;0.0;0.0
1602;0.08442399650812149;-0.02122800052165985;0.9889319539070129;0.19227199256420135;-0.1512800008058548;1.156559944152832;0.039374999701976776;0.19249999523162842;0.33250001072883606
1604;0.0;0.0;0.0;0.19227199256420135;-0.1512800008058548;1.1526559591293335;0.0;0.0;0.0
1606;0.0;0.0;0.0;0.1727519929409027;-0.13566400110721588;1.140944004058838;0.0;0.0;0.0
1608;0.0;0.0;0.0;0.2000799924135208;-0.15518400073051453;1.148751974105835;0.0;0.0;0.0
1610;0.08661999553442001;-0.019519999623298645;0.990884006023407;0.18055999279022217;-0.1512800008058548;1.132159948348999;0.039374999701976776;0.2581250071525574;0.328125
1612;0.0;0.0;0.0;0.1844639927148819;-0.1668960005044937;1.148751974105835;0.0;0.0;0.0
1614;0.0;0.0;0.0;0.2117919921875;-0.17470400035381317;1.148751974105835;0.0;0.0;0.0
1616;0.0;0.0;0.0;0.18836799263954163;-0.1786080002784729;1.1526559591293335;0.0;0.0;0.0
1619;0.08344800025224686;-0.019763998687267303;0.9918599724769592;0.18836799263954163;-0.1668960005044937;1.148751974105835;-0.030625000596046448;0.2581250071525574;0.3981249928474426
1621;0.0;0.0;0.0;0.16494399309158325;-0.17080000042915344;1.132159948348999;0.0;0.0;0.0
1623;0.0;0.0;0.0;0.19227199256420135;-0.14737600088119507;1.1282559633255005;0.0;0.0;0.0
1625;0.0;0.0;0.0;0.1727519929409027;-0.15908800065517426;1.1448479890823364;0.0;0.0;0.0
1627;0.08369199931621552;-0.019763998687267303;0.9901520013809204;0.19617599248886108;-0.1395680010318756;1.1360639333724976;0.109375;-0.02187500149011612;0.32375001907348633
1629;0.0;0.0;0.0;0.18836799263954163;-0.14347200095653534;1.156559944152832;0.0;0.0;0.0
1631;0.0;0.0;0.0;0.18836799263954163;-0.1512800008058548;1.124351978302002;0.0;0.0;0.0
1633;0.0;0.0;0.0;0.17665599286556244;-0.16299200057983398;1.140944004058838;0.0;0.0;0.0
1636;0.08564399927854538;-0.01903199963271618;0.9882000088691711;0.2000799924135208;-0.17080000042915344;1.1282559633255005;0.109375;0.11812500655651093;0.39375001192092896
1638;0.0;0.0;0.0;0.18836799263954163;-0.16299200057983398;1.1614400148391724;0.0;0.0;0.0
1640;0.0;0.0;0.0;0.18836799263954163;-0.17080000042915344;1.140944004058838;0.0;0.0;0.0
1642;0.0;0.0;0.0;0.2000799924135208;-0.14737600088119507;1.140944004058838;0.0;0.0;0.0
1644;0.08442399650812149;-0.020983999595046043;0.9901520013809204;0.18836799263954163;-0.1903200000524521;1.132159948348999;0.039374999701976776;0.2581250071525574;0.32375001907348633
1646;0.0;0.0;0.0;0.16884799301624298;-0.1668960005044937;1.132159948348999;0.0;0.0;0.0
1648;0.0;0.0;0.0;0.20398399233818054;-0.14347200095653534;1.140944004058838;0.0;0.0;0.0
1650;0.0;0.0;0.0;0.18055999279022217;-0.1668960005044937;1.124351978302002;0.0;0.0;0.0
1653;0.08295999467372894;-0.020495999604463577;0.9901520013809204;0.2117919921875;-0.17080000042915344;1.1692479848861694;0.039374999701976776;0.1837500035762787;0.3893750011920929
1655;0.0;0.0;0.0;0.20788799226284027;-0.17080000042915344;1.148751974105835;0.0;0.0;0.0
1657;0.0;0.0;0.0;0.19227199256420135;-0.13566400110721588;1.1604639291763306;0.0;0.0;0.0
1659;0.0;0.0;0.0;0.1727519929409027;-0.17080000042915344;1.1282559633255005;0.0;0.0;0.0
1661;0.08466799557209015;-0.02122800052165985;0.98990797996521;0.19227199256420135;-0.14347200095653534;1.140944004058838;0.109375;0.11375001072883606;0.31937500834465027
1663;0.0;0.0;0.0;0.2000799924135208;-0.1786080002784729;1.165343999862671;0.0;0.0;0.0
1665;0.0;0.0;0.0;0.20788799226284027;-0.14737600088119507;1.132159948348999;0.0;0.0;0.0
1667;0.0;0.0;0.0;0.20398399233818054;-0.15908800065517426;1.132159948348999;0.0;0.0;0.0
1670;0.0849120020866394;-0.02000799961388111;0.9894199967384338;0.18055999279022217;-0.15908800065517426;1.148751974105835;0.109375;0.2537499964237213;0.3149999976158142
1672;0.0;0.0;0.0;0.20788799226284027;-0.16299200057983398;1.148751974105835;0.0;0.0;0.0
1674;0.0;0.0;0.0;0.1844639927148819;-0.1512800008058548;1.1282559633255005;0.0;0.0;0.0
1676;0.0;0.0;0.0;0.19617599248886108;-0.15518400073051453;1.1204479932785034;0.0;0.0;0.0
1678;0.08442399650812149;-0.020983999595046043;0.9901520013809204;0.1844639927148819;-0.16299200057983398;1.156559944152832;0.03500000014901161;0.2537499964237213;0.3149999976158142
1680;0.0;0.0;0.0;0.1844639927148819;-0.13176000118255615;1.1526559591293335;0.0;0.0;0.0
1682;0.0;0.0;0.0;0.18055999279022217;-0.15908800065517426;1.1526559591293335;0.0;0.0;0.0
1684;0.0;0.0;0.0;0.19617599248886108;-0.13176000118255615;1.140944004058838;0.0;0.0;0.0
1687;0.08515600115060806;-0.02025200054049492;0.9903959631919861;0.19227199256420135;-0.1668960005044937;1.140944004058838;0.03500000014901161;0.24937498569488525;0.3149999976158142
1689;0.0;0.0;0.0;0.19227199256420135;-0.1668960005044937;1.140944004058838;0.0;0.0;0.0
1691;0.0;0.0;0.0;0.19617599248886108;-0.15518400073051453;1.1204479932785034;0.0;0.0;0.0
1693;0.0;0.0;0.0;0.1727519929409027;-0.1786080002784729;1.1370400190353394;0.0;0.0;0.0
1695;0.08515600115060806;-0.02000799961388111;0.9894199967384338;0.22740799188613892;-0.17080000042915344;1.132159948348999;0.10500000417232513;0.1093750074505806;0.31062501668930054
1697;0.0;0.0;0.0;0.18055999279022217;-0.14737600088119507;1.1448479890823364;0.0;0.0;0.0
1699;0.0;0.0;0.0;0.19617599248886108;-0.1512800008058548;1.140944004058838;0.0;0.0;0.0
1701;0.0;0.0;0.0;0.20398399233818054;-0.14737600088119507;1.1370400190353394;0.0;0.0;0.0
1704;0.0861319974064827;-0.019519999623298645;0.9894199967384338;0.2117919921875;-0.13176000118255615;1.1526559591293335;0.03500000014901161;0.17937499284744263;0.31062501668930054
1706;0.0;0.0;0.0;0.1727519929409027;-0.1668960005044937;1.1448479890823364;0.0;0.0;0.0
1708;0.0;0.0;0.0;0.19617599248886108;-0.1512800008058548;1.1448479890823364;0.0;0.0;0.0
1710;0.0;0.0;0.0;0.2000799924135208;-0.1668960005044937;1.1448479890823364;0.0;0.0;0.0
1712;0.0849120020866394;-0.019763998687267303;0.9901520013809204;0.19227199256420135;-0.1668960005044937;1.1448479890823364;0.03500000014901161;0.24937498569488525;0.31062501668930054
1714;0.0;0.0;0.0;0.18055999279022217;-0.14347200095653534;1.1448479890823364;0.0;0.0;0.0
1716;0.0;0.0;0.0;0.17665599286556244;-0.1395680010318756;1.148751974105835;0.0;0.0;0.0
1718;0.0;0.0;0.0;0.2000799924135208;-0.16299200057983398;1.1526559591293335;0.0;0.0;0.0
1721;0.08344800025224686;-0.02025200054049492;0.98990797996521;0.20398399233818054;-0.15518400073051453;1.140944004058838;0.10500000417232513;0.2449999898672104;0.23625001311302185
1723;0.0;0.0;0.0;0.19227199256420135;-0.15908800065517426;1.1360639333724976;0.0;0.0;0.0
1725;0.0;0.0;0.0;0.1844639927148819;-0.17080000042915344;1.148751974105835;0.0;0.0;0.0
1727;0.0;0.0;0.0;0.1844639927148819;-0.15518400073051453;1.132159948348999;0.0;0.0;0.0
1729;0.08393599838018417;-0.020495999604463577;0.9913719892501831;0.19227199256420135;-0.17080000042915344;1.1848639249801636;0.03500000014901161;0.17499999701976776;0.3062500059604645
1731;0.0;0.0;0.0;0.19617599248886108;-0.1512800008058548;1.140944004058838;0.0;0.0;0.0
1733;0.0;0.0;0.0;0.18055999279022217;-0.15518400073051453;1.124351978302002;0.0;0.0;0.0
1735;0.0;0.0;0.0;0.20398399233818054;-0.1786080002784729;1.1370400190353394;0.0;0.0;0.0
1738;0.08344800025224686;-0.02147199958562851;0.9911279678344727;0.18836799263954163;-0.17080000042915344;1.1526559591293335;0.10500000417232513;0.17499999701976776;0.3762499988079071
1740;0.0;0.0;0.0;0.1727519929409027;-0.15908800065517426;1.132159948348999;0.0;0.0;0.0
1742;0.0;0.0;0.0;0.18836799263954163;-0.1512800008058548;1.1282559633255005;0.0;0.0;0.0
1744;0.0;0.0;0.0;0.1844639927148819;-0.14347200095653534;1.140944004058838;0.0;0.0;0.0
1746;0.08369199931621552;-0.02025200054049492;0.98990797996521;0.17665599286556244;-0.1395680010318756;1.1604639291763306;0.10500000417232513;0.10500000417232513;0.3018749952316284
1748;0.0;0.0;0.0;0.19227199256420135;-0.14737600088119507;1.124351978302002;0.0;0.0;0.0
1750;0.0;0.0;0.0;0.2000799924135208;-0.15518400073051453;1.148751974105835;0.0;0.0;0.0
1753;0.0;0.0;0.0;0.2117919921875;-0.1512800008058548;1.156559944152832;0.0;0.0;0.0
1755;0.0849120020866394;-0.019519999623298645;0.98990797996521;0.2117919921875;-0.13566400110721588;1.140944004058838;0.03500000014901161;0.17499999701976776;0.3018749952316284
1757;0.0;0.0;0.0;0.18055999279022217;-0.17080000042915344;1.1448479890823364;0.0;0.0;0.0
1759;0.0;0.0;0.0;0.19617599248886108;-0.1668960005044937;1.140944004058838;0.0;0.0;0.0
1761;0.0;0.0;0.0;0.19617599248886108;-0.14737600088119507;1.1360639333724976;0.0;0.0;0.0
1763;0.08369199931621552;-0.019519999623298645;0.9889319539070129;0.19617599248886108;-0.13176000118255615;1.1282559633255005;0.03500000014901161;0.17499999701976776;0.3018749952316284
1765;0.0;0.0;0.0;0.2000799924135208;-0.1512800008058548;1.1526559591293335;0.0;0.0;0.0
1767;0.0;0.0;0.0;0.16103999316692352;-0.14347200095653534;1.1526559591293335;0.0;0.0;0.0
1770;0.0;0.0;0.0;0.18055999279022217;-0.16299200057983398;1.1282559633255005;0.0;0.0;0.0
1772;0.08466799557209015;-0.02000799961388111;0.9886879920959473;0.20788799226284027;-0.15908800065517426;1.1282559633255005;0.10500000417232513;0.10062500834465027;0.22750002145767212
1774;0.0;0.0;0.0;0.2235039919614792;-0.14737600088119507;1.132159948348999;0.0;0.0;0.0
1776;0.0;0.0;0.0;0.18836799263954163;-0.17080000042915344;1.1526559591293335;0.0;0.0;0.0
1778;0.0;0.0;0.0;0.15811198949813843;-0.1668960005044937;1.1282559633255005;0.0;0.0;0.0
1780;0.08686399459838867;-0.02025200054049492;0.9886879920959473;0.20788799226284027;-0.16299200057983398;1.1370400190353394;0.10500000417232513;0.24062499403953552;0.29750001430511475
1782;0.0;0.0;0.0;0.21569599211215973;-0.1512800008058548;1.1526559591293335;0.0;0.0;0.0
1784;0.0;0.0;0.0;0.19227199256420135;-0.15908800065517426;1.140944004058838;0.0;0.0;0.0
1786;0.0;0.0;0.0;0.19227199256420135;-0.1668960005044937;1.1614400148391724;0.0;0.0;0.0
1789;0.08564399927854538;-0.020495999604463577;0.9901520013809204;0.21959999203681946;-0.16299200057983398;1.1526559591293335;0.030625000596046448;0.31062501668930054;0.29750001430511475
1791;0.0;0.0;0.0;0.2000799924135208;-0.1512800008058548;1.1526559591293335;0.0;0.0;0.0
1793;0.0;0.0;0.0;0.2000799924135208;-0.1512800008058548;1.132159948348999;0.0;0.0;0.0
1795;0.0;0.0;0.0;0.2000799924135208;-0.1512800008058548;1.140944004058838;0.0;0.0;0.0
1797;0.08442399650812149;-0.020739998668432236;0.9911279678344727;0.20398399233818054;-0.17080000042915344;1.1282559633255005;0.10062500089406967;0.24062499403953552;0.2931250035762787
1799;0.0;0.0;0.0;0.20788799226284027;-0.15908800065517426;1.1448479890823364;0.0;0.0;0.0
1801;0.0;0.0;0.0;0.18836799263954163;-0.15518400073051453;1.1604639291763306;0.0;0.0;0.0
1804;0.0;0.0;0.0;0.18836799263954163;-0.15908800065517426;1.140944004058838;0.0;0.0;0.0
1806;0.0861319974064827;-0.02000799961388111;0.9918599724769592;0.19617599248886108;-0.15518400073051453;1.148751974105835;0.10062500089406967;0.0962500050663948;0.2931250035762787
1808;0.0;0.0;0.0;0.18055999279022217;-0.1668960005044937;1.1526559591293335;0.0;0.0;0.0
1810;0.0;0.0;0.0;0.17665599286556244;-0.14347200095653534;1.140944004058838;0.0;0.0;0.0
1812;0.0;0.0;0.0;0.19227199256420135;-0.18251200020313263;1.1370400190353394;0.0;0.0;0.0
1814;0.08564399927854538;-0.01878799870610237;0.9903959631919861;0.1844639927148819;-0.17470400035381317;1.1448479890823364;0.10062500089406967;0.0962500050663948;0.2931250035762787
1816;0.0;0.0;0.0;0.18055999279022217;-0.17080000042915344;1.1448479890823364;0.0;0.0;0.0
1818;0.0;0.0;0.0;0.19617599248886108;-0.1668960005044937;1.1614400148391724;0.0;0.0;0.0
1821;0.0;0.0;0.0;0.2117919921875;-0.14737600088119507;1.140944004058838;0.0;0.0;0.0
1823;0.08588799834251404;-0.02000799961388111;0.98990797996521;0.17665599286556244;-0.13566400110721588;1.1282559633255005;0.10062500089406967;0.16624999046325684;0.2887499928474426
1825;0.0;0.0;0.0;0.2117919921875;-0.18251200020313263;1.1282559633255005;0.0;0.0;0.0
1827;0.0;0.0;0.0;0.20398399233818054;-0.15518400073051453;1.140944004058838;0.0;0.0;0.0
1829;0.0;0.0;0.0;0.1844639927148819;-0.1512800008058548;1.1526559591293335;0.0;0.0;0.0
1831;0.08515600115060806;-0.020739998668432236;0.9916160106658936;0.1844639927148819;-0.16299200057983398;1.156559944152832;0.030625000596046448;0.44624999165534973;0.2887499928474426
1833;0.0;0.0;0.0;0.18836799263954163;-0.15908800065517426;1.156559944152832;0.0;0.0;0.0
1835;0.0;0.0;0.0;0.2117919921875;-0.1668960005044937;1.165343999862671;0.0;0.0;0.0
1838;0.0;0.0;0.0;0.1844639927148819;-0.15908800065517426;1.140944004058838;0.0;0.0;0.0
1840;0.08100800216197968;-0.022447999566793442;0.9918599724769592;0.19227199256420135;-0.1786080002784729;1.148751974105835;0.10062500089406967;0.16187500953674316;0.2887499928474426
1842;0.0;0.0;0.0;0.18836799263954163;-0.1668960005044937;1.1448479890823364;0.0;0.0;0.0
1844;0.0;0.0;0.0;0.13761599361896515;-0.17080000042915344;1.1614400148391724;0.0;0.0;0.0
1846;0.0;0.0;0.0;0.20788799226284027;-0.1512800008058548;1.1448479890823364;0.0;0.0;0.0
1848;0.08442399650812149;-0.020495999604463577;0.9906399846076965;0.1727519929409027;-0.1512800008058548;1.1448479890823364;0.1706250011920929;-0.048124998807907104;0.28437501192092896
1850;0.0;0.0;0.0;0.18836799263954163;-0.1512800008058548;1.148751974105835;0.0;0.0;0.0
1852;0.0;0.0;0.0;0.15323199331760406;-0.16299200057983398;1.1604639291763306;0.0;0.0;0.0
1855;0.0;0.0;0.0;0.16884799301624298;-0.15518400073051453;1.1370400190353394;0.0;0.0;0.0
1857;0.0849120020866394;-0.019763998687267303;0.9896639585494995;0.18055999279022217;-0.16299200057983398;1.1604639291763306;0.10062500089406967;0.2318750023841858;0.28437501192092896
1859;0.0;0.0;0.0;0.18055999279022217;-0.1395680010318756;1.132159948348999;0.0;0.0;0.0
1861;0.0;0.0;0.0;0.1844639927148819;-0.1668960005044937;1.1448479890823364;0.0;0.0;0.0
1863;0.0;0.0;0.0;0.18836799263954163;-0.15518400073051453;1.148751974105835;0.0;0.0;0.0
1865;0.08344800025224686;-0.019763998687267303;0.9906399846076965;0.19227199256420135;-0.12785600125789642;1.156559944152832;0.09624999761581421;0.2318750023841858;0.28437501192092896
1868;0.0;0.0;0.0;0.2117919921875;-0.17080000042915344;1.1370400190353394;0.0;0.0;0.0
1869;0.0;0.0;0.0;0.17665599286556244;-0.17470400035381317;1.132159948348999;0.0;0.0;0.0
1872;0.0;0.0;0.0;0.19227199256420135;-0.15518400073051453;1.1370400190353394;0.0;0.0;0.0
1874;0.08344800025224686;-0.02025200054049492;0.9918599724769592;0.2117919921875;-0.15518400073051453;1.1614400148391724;0.09624999761581421;0.2318750023841858;0.2800000011920929
1876;0.0;0.0;0.0;0.2235039919614792;-0.14737600088119507;1.148751974105835;0.0;0.0;0.0
1878;0.0;0.0;0.0;0.2000799924135208;-0.1512800008058548;1.140944004058838;0.0;0.0;0.0
1880;0.0;0.0;0.0;0.17665599286556244;-0.1512800008058548;1.148751974105835;0.0;0.0;0.0
1882;0.0832040011882782;-0.020983999595046043;0.9930799603462219;0.2117919921875;-0.1512800008058548;1.132159948348999;0.16625000536441803;0.16187500953674316;0.3499999940395355
1884;0.0;0.0;0.0;0.19227199256420135;-0.1668960005044937;1.1448479890823364;0.0;0.0;0.0
1886;0.0;0.0;0.0;0.18836799263954163;-0.14737600088119507;1.1448479890823364;0.0;0.0;0.0
1889;0.0;0.0;0.0;0.21569599211215973;-0.14347200095653534;1.1448479890823364;0.0;0.0;0.0
1891;0.08588799834251404;-0.02000799961388111;0.9930799603462219;0.21959999203681946;-0.14737600088119507;1.156559944152832;0.16625000536441803;0.02187500149011612;0.2800000011920929
1893;0.0;0.0;0.0;0.2000799924135208;-0.15908800065517426;1.148751974105835;0.0;0.0;0.0
1895;0.0;0.0;0.0;0.18055999279022217;-0.15908800065517426;1.132159948348999;0.0;0.0;0.0
1897;0.0;0.0;0.0;0.18836799263954163;-0.14347200095653534;1.124351978302002;0.0;0.0;0.0
1899;0.08637599647045135;-0.018543999642133713;0.9918599724769592;0.20788799226284027;-0.14347200095653534;1.140944004058838;0.16625000536441803;0.08750000596046448;0.27562499046325684
1901;0.0;0.0;0.0;0.18055999279022217;-0.14347200095653534;1.165343999862671;0.0;0.0;0.0
1903;0.0;0.0;0.0;0.19227199256420135;-0.15908800065517426;1.1692479848861694;0.0;0.0;0.0
1906;0.0;0.0;0.0;0.19617599248886108;-0.17080000042915344;1.1370400190353394;0.0;0.0;0.0
1908;0.08466799557209015;-0.020739998668432236;0.9901520013809204;0.17665599286556244;-0.1786080002784729;1.132159948348999;0.16625000536441803;0.017499998211860657;0.27562499046325684
1910;0.0;0.0;0.0;0.19617599248886108;-0.1668960005044937;1.1526559591293335;0.0;0.0;0.0
1912;0.0;0.0;0.0;0.20398399233818054;-0.16299200057983398;1.1526559591293335;0.0;0.0;0.0
1914;0.0;0.0;0.0;0.19617599248886108;-0.14347200095653534;1.140944004058838;0.0;0.0;0.0
1916;0.0878399983048439;-0.02000799961388111;0.9891759753227234;0.2000799924135208;-0.15518400073051453;1.140944004058838;0.16187500953674316;0.08750000596046448;0.27562499046325684
1918;0.0;0.0;0.0;0.17665599286556244;-0.1512800008058548;1.1526559591293335;0.0;0.0;0.0
1920;0.0;0.0;0.0;0.1844639927148819;-0.15518400073051453;1.1526559591293335;0.0;0.0;0.0
1923;0.0;0.0;0.0;0.1844639927148819;-0.15908800065517426;1.1448479890823364;0.0;0.0;0.0
1925;0.08344800025224686;-0.02000799961388111;0.9891759753227234;0.1844639927148819;-0.15518400073051453;1.148751974105835;0.16187500953674316;0.1574999988079071;0.3412500023841858
1927;0.0;0.0;0.0;0.19227199256420135;-0.17470400035381317;1.132159948348999;0.0;0.0;0.0
1929;0.0;0.0;0.0;0.18055999279022217;-0.14737600088119507;1.1448479890823364;0.0;0.0;0.0
1931;0.0;0.0;0.0;0.18836799263954163;-0.17080000042915344;1.148751974105835;0.0;0.0;0.0
1933;0.08637599647045135;-0.02000799961388111;0.9879559874534607;0.1727519929409027;-0.15908800065517426;1.140944004058838;0.2318750023841858;-0.12250000238418579;0.27125000953674316
1935;0.0;0.0;0.0;0.21569599211215973;-0.15518400073051453;1.1448479890823364;0.0;0.0;0.0
1938;0.0;0.0;0.0;0.18836799263954163;-0.1786080002784729;1.1282559633255005;0.0;0.0;0.0
1940;0.0;0.0;0.0;0.19617599248886108;-0.15908800065517426;1.148751974105835;0.0;0.0;0.0
1942;0.08881600201129913;-0.01903199963271618;0.9903959631919861;0.20398399233818054;-0.16299200057983398;1.1448479890823364;0.09187500178813934;0.4375;0.27125000953674316
1944;0.0;0.0;0.0;0.19617599248886108;-0.1668960005044937;1.140944004058838;0.0;0.0;0.0
1946;0.0;0.0;0.0;0.16884799301624298;-0.1668960005044937;1.1526559591293335;0.0;0.0;0.0
1948;0.0;0.0;0.0;0.17665599286556244;-0.14347200095653534;1.132159948348999;0.0;0.0;0.0
1950;0.0802759975194931;-0.021959999576210976;0.9955199956893921;0.19227199256420135;-0.16299200057983398;1.1448479890823364;0.09187500178813934;0.3631250262260437;0.2668750286102295
1953;0.0;0.0;0.0;0.1727519929409027;-0.1668960005044937;1.132159948348999;0.0;0.0;0.0
1954;0.0;0.0;0.0;0.19617599248886108;-0.1512800008058548;1.1448479890823364;0.0;0.0;0.0
1957;0.0;0.0;0.0;0.1844639927148819;-0.1395680010318756;1.1448479890823364;0.0;0.0;0.0
1959;0.08247199654579163;-0.02122800052165985;0.9938119649887085;0.16494399309158325;-0.1512800008058548;1.1360639333724976;0.29749998450279236;-0.26249998807907104;0.2668750286102295
1961;0.0;0.0;0.0;0.18836799263954163;-0.17470400035381317;1.1604639291763306;0.0;0.0;0.0
1963;0.0;0.0;0.0;0.20398399233818054;-0.15908800065517426;1.132159948348999;0.0;0.0;0.0
1965;0.0;0.0;0.0;0.2000799924135208;-0.17080000042915344;1.140944004058838;0.0;0.0;0.0
1967;0.08515600115060806;-0.01903199963271618;0.9874680042266846;0.1844639927148819;-0.15908800065517426;1.1448479890823364;0.22749999165534973;-0.19249999523162842;0.3368750214576721
1970;0.0;0.0;0.0;0.20788799226284027;-0.14737600088119507;1.140944004058838;0.0;0.0;0.0
1972;0.0;0.0;0.0;0.2000799924135208;-0.1395680010318756;1.132159948348999;0.0;0.0;0.0
1974;0.0;0.0;0.0;0.2117919921875;-0.16299200057983398;1.1448479890823364;0.0;0.0;0.0
1976;0.08588799834251404;-0.018543999642133713;0.985759973526001;0.19617599248886108;-0.14347200095653534;1.1370400190353394;0.1574999988079071;0.08750000596046448;0.26249998807907104
1978;0.0;0.0;0.0;0.18055999279022217;-0.15518400073051453;1.1448479890823364;0.0;0.0;0.0
1980;0.0;0.0;0.0;0.19227199256420135;-0.15518400073051453;1.1282559633255005;0.0;0.0;0.0
1982;0.0;0.0;0.0;0.2000799924135208;-0.14347200095653534;1.1165440082550049;0.0;0.0;0.0
1984;0.08393599838018417;-0.019763998687267303;0.9884439706802368;0.16494399309158325;-0.14347200095653534;1.1282559633255005;0.08749999850988388;0.22749999165534973;0.26249998807907104
1987;0.0;0.0;0.0;0.1727519929409027;-0.17080000042915344;1.140944004058838;0.0;0.0;0.0
1989;0.0;0.0;0.0;0.1844639927148819;-0.1512800008058548;1.1370400190353394;0.0;0.0;0.0
1991;0.0;0.0;0.0;0.19617599248886108;-0.13176000118255615;1.1282559633255005;0.0;0.0;0.0
1993;0.08393599838018417;-0.020739998668432236;0.9884439706802368;0.20788799226284027;-0.15908800065517426;1.1604639291763306;0.22749999165534973;0.017499998211860657;0.26249998807907104
1995;0.0;0.0;0.0;0.20398399233818054;-0.1395680010318756;1.1282559633255005;0.0;0.0;0.0
1997;0.0;0.0;0.0;0.22740799188613892;-0.1668960005044937;1.1282559633255005;0.0;0.0;0.0
1999;0.0;0.0;0.0;0.2117919921875;-0.15908800065517426;1.140944004058838;0.0;0.0;0.0
2001;0.08637599647045135;-0.019763998687267303;0.9891759753227234;0.2000799924135208;-0.15518400073051453;1.1448479890823364;0.15312500298023224;0.08312501013278961;0.328125
2004;0.0;0.0;0.0;0.18055999279022217;-0.1668960005044937;1.140944004058838;0.0;0.0;0.0
2006;0.0;0.0;0.0;0.18836799263954163;-0.1512800008058548;1.1448479890823364;0.0;0.0;0.0
2008;0.0;0.0;0.0;0.2117919921875;-0.14737600088119507;1.1370400190353394;0.0;0.0;0.0
2010;0.08442399650812149;-0.020739998668432236;0.9896639585494995;0.1844639927148819;-0.14347200095653534;1.1448479890823364;0.08312499523162842;0.15312500298023224;0.2581250071525574
2012;0.0;0.0;0.0;0.2000799924135208;-0.1512800008058548;1.148751974105835;0.0;0.0;0.0
2014;0.0;0.0;0.0;0.2000799924135208;-0.17080000042915344;1.1448479890823364;0.0;0.0;0.0
2016;0.0;0.0;0.0;0.17665599286556244;-0.14737600088119507;1.1448479890823364;0.0;0.0;0.0
2018;0.08466799557209015;-0.019519999623298645;0.9889319539070129;0.2117919921875;-0.17470400035381317;1.148751974105835;0.15312500298023224;0.013125002384185791;0.2581250071525574
2021;0.0;0.0;0.0;0.20788799226284027;-0.13566400110721588;1.124351978302002;0.0;0.0;0.0
2023;0.0;0.0;0.0;0.16884799301624298;-0.14737600088119507;1.1526559591293335;0.0;0.0;0.0
2025;0.0;0.0;0.0;0.19617599248886108;-0.16299200057983398;1.132159948348999;0.0;0.0;0.0
2027;0.08515600115060806;-0.019519999623298645;0.9882000088691711;0.19227199256420135;-0.14347200095653534;1.148751974105835;0.08312499523162842;0.08312501013278961;0.2581250071525574
2029;0.0;0.0;0.0;0.1844639927148819;-0.1512800008058548;1.107759952545166;0.0;0.0;0.0
2031;0.0;0.0;0.0;0.20398399233818054;-0.1512800008058548;1.1614400148391724;0.0;0.0;0.0
2033;0.0;0.0;0.0;0.18836799263954163;-0.1395680010318756;1.1282559633255005;0.0;0.0;0.0
2035;0.08393599838018417;-0.019763998687267303;0.9891759753227234;0.21569599211215973;-0.15518400073051453;1.1204479932785034;0.15312500298023224;0.15312500298023224;0.32375001907348633
2038;0.0;0.0;0.0;0.2000799924135208;-0.1395680010318756;1.148751974105835;0.0;0.0;0.0
2040;0.0;0.0;0.0;0.17665599286556244;-0.16299200057983398;1.165343999862671;0.0;0.0;0.0
2042;0.0;0.0;0.0;0.19227199256420135;-0.1512800008058548;1.132159948348999;0.0;0.0;0.0
2044;0.08344800025224686;-0.02025200054049492;0.9903959631919861;0.2000799924135208;-0.1512800008058548;1.132159948348999;0.08312499523162842;0.08312501013278961;0.2537500262260437
2046;0.0;0.0;0.0;0.1844639927148819;-0.14347200095653534;1.1360639333724976;0.0;0.0;0.0
2048;0.0;0.0;0.0;0.18836799263954163;-0.15908800065517426;1.1526559591293335;0.0;0.0;0.0
2050;0.0;0.0;0.0;0.19227199256420135;-0.15518400073051453;1.1448479890823364;0.0;0.0;0.0
2052;0.08466799557209015;-0.019519999623298645;0.9901520013809204;0.19227199256420135;-0.1395680010318756;1.1282559633255005;0.08312499523162842;0.013125002384185791;0.32375001907348633
2055;0.0;0.0;0.0;0.19617599248886108;-0.1512800008058548;1.1448479890823364;0.0;0.0;0.0
2057;0.0;0.0;0.0;0.20398399233818054;-0.14737600088119507;1.140944004058838;0.0;0.0;0.0
2059;0.0;0.0;0.0;0.2000799924135208;-0.15518400073051453;1.140944004058838;0.0;0.0;0.0
2061;0.08564399927854538;-0.02025200054049492;0.9901520013809204;0.19227199256420135;-0.15908800065517426;1.1448479890823364;0.08312499523162842;0.15312500298023224;0.31937500834465027
2063;0.0;0.0;0.0;0.2000799924135208;-0.14737600088119507;1.1526559591293335;0.0;0.0;0.0
2065;0.0;0.0;0.0;0.18055999279022217;-0.16299200057983398;1.1526559591293335;0.0;0.0;0.0
2067;0.0;0.0;0.0;0.1844639927148819;-0.16299200057983398;1.1360639333724976;0.0;0.0;0.0
2069;0.08393599838018417;-0.019276000559329987;0.9903959631919861;0.16103999316692352;-0.1395680010318756;1.140944004058838;0.08312499523162842;0.08312501013278961;0.24937501549720764
2072;0.0;0.0;0.0;0.1844639927148819;-0.1239520013332367;1.148751974105835;0.0;0.0;0.0
2074;0.0;0.0;0.0;0.1844639927148819;-0.16299200057983398;1.1448479890823364;0.0;0.0;0.0
2076;0.0;0.0;0.0;0.20398399233818054;-0.15908800065517426;1.1370400190353394;0.0;0.0;0.0
2078;0.08588799834251404;-0.019763998687267303;0.9889319539070129;0.19227199256420135;-0.18641600012779236;1.140944004058838;0.14875000715255737;0.013125002384185791;0.24937501549720764
2080;0.0;0.0;0.0;0.20398399233818054;-0.17080000042915344;1.148751974105835;0.0;0.0;0.0
2082;0.0;0.0;0.0;0.18836799263954163;-0.18251200020313263;1.1282559633255005;0.0;0.0;0.0
2084;0.0;0.0;0.0;0.16884799301624298;-0.17080000042915344;1.140944004058838;0.0;0.0;0.0
2086;0.08759599924087524;-0.02025200054049492;0.9879559874534607;0.1844639927148819;-0.12785600125789642;1.148751974105835;0.008749999105930328;0.07875001430511475;0.24500000476837158
2089;0.0;0.0;0.0;0.2117919921875;-0.1512800008058548;1.148751974105835;0.0;0.0;0.0
2091;0.0;0.0;0.0;0.2000799924135208;-0.16299200057983398;1.156559944152832;0.0;0.0;0.0
2093;0.0;0.0;0.0;0.1844639927148819;-0.1786080002784729;1.132159948348999;0.0;0.0;0.0
2095;0.08637599647045135;-0.020983999595046043;0.9896639585494995;0.18836799263954163;-0.11614400148391724;1.1526559591293335;0.07874999940395355;0.288750022649765;0.24500000476837158
2097;0.0;0.0;0.0;0.18836799263954163;-0.16299200057983398;1.1448479890823364;0.0;0.0;0.0
2099;0.0;0.0;0.0;0.1844639927148819;-0.15518400073051453;1.1448479890823364;0.0;0.0;0.0
2101;0.0;0.0;0.0;0.19227199256420135;-0.17470400035381317;1.156559944152832;0.0;0.0;0.0
2103;0.08369199931621552;-0.02147199958562851;0.9913719892501831;0.1844639927148819;-0.15518400073051453;1.140944004058838;0.14875000715255737;0.07875001430511475;0.3149999976158142
2106;0.0;0.0;0.0;0.2000799924135208;-0.1395680010318756;1.140944004058838;0.0;0.0;0.0
2108;0.0;0.0;0.0;0.18055999279022217;-0.1668960005044937;1.1526559591293335;0.0;0.0;0.0
2110;0.0;0.0;0.0;0.2235039919614792;-0.1512800008058548;1.140944004058838;0.0;0.0;0.0
2112;0.08442399650812149;-0.019763998687267303;0.9901520013809204;0.19227199256420135;-0.15908800065517426;1.156559944152832;0.14875000715255737;0.008750006556510925;0.24062500894069672
2114;0.0;0.0;0.0;0.2117919921875;-0.15518400073051453;1.140944004058838;0.0;0.0;0.0
2116;0.0;0.0;0.0;0.18836799263954163;-0.15908800065517426;1.124351978302002;0.0;0.0;0.0
2118;0.0;0.0;0.0;0.2117919921875;-0.17470400035381317;1.1370400190353394;0.0;0.0;0.0
2120;0.08369199931621552;-0.01903199963271618;0.9891759753227234;0.19227199256420135;-0.16299200057983398;1.1692479848861694;0.008749999105930328;0.07875001430511475;0.24062500894069672
2123;0.0;0.0;0.0;0.23521599173545837;-0.14737600088119507;1.1526559591293335;0.0;0.0;0.0
2125;0.0;0.0;0.0;0.20398399233818054;-0.1668960005044937;1.1448479890823364;0.0;0.0;0.0
2127;0.0;0.0;0.0;0.19227199256420135;-0.15908800065517426;1.124351978302002;0.0;0.0;0.0
2129;0.08222799748182297;-0.019519999623298645;0.9891759753227234;0.16884799301624298;-0.17080000042915344;1.132159948348999;0.07874999940395355;0.14875000715255737;0.24062500894069672
2131;0.0;0.0;0.0;0.18055999279022217;-0.14347200095653534;1.1370400190353394;0.0;0.0;0.0
2133;0.0;0.0;0.0;0.18055999279022217;-0.1512800008058548;1.165343999862671;0.0;0.0;0.0
2135;0.0;0.0;0.0;0.1727519929409027;-0.15908800065517426;1.156559944152832;0.0;0.0;0.0
2137;0.08393599838018417;-0.019276000559329987;0.9886879920959473;0.2000799924135208;-0.14737600088119507;1.156559944152832;0.07874999940395355;0.008750006556510925;0.24062500894069672
2140;0.0;0.0;0.0;0.20788799226284027;-0.15908800065517426;1.1370400190353394;0.0;0.0;0.0
2142;0.0;0.0;0.0;0.18836799263954163;-0.14347200095653534;1.1282559633255005;0.0;0.0;0.0
2144;0.0;0.0;0.0;0.2000799924135208;-0.17080000042915344;1.1370400190353394;0.0;0.0;0.0
2146;0.08393599838018417;-0.019763998687267303;0.9889319539070129;0.1727519929409027;-0.17470400035381317;1.148751974105835;0.008749999105930328;0.28437501192092896;0.23625001311302185
2148;0.0;0.0;0.0;0.1844639927148819;-0.14347200095653534;1.1604639291763306;0.0;0.0;0.0
2150;0.0;0.0;0.0;0.1844639927148819;-0.14347200095653534;1.140944004058838;0.0;0.0;0.0
2152;0.0;0.0;0.0;0.19617599248886108;-0.1668960005044937;1.1448479890823364;0.0;0.0;0.0
2154;0.08295999467372894;-0.02025200054049492;0.9894199967384338;0.18836799263954163;-0.15908800065517426;1.140944004058838;0.07874999940395355;0.1443749964237213;0.23625001311302185
2157;0.0;0.0;0.0;0.20398399233818054;-0.17080000042915344;1.1165440082550049;0.0;0.0;0.0
2159;0.0;0.0;0.0;0.20398399233818054;-0.15908800065517426;1.148751974105835;0.0;0.0;0.0
2161;0.0;0.0;0.0;0.1844639927148819;-0.1512800008058548;1.140944004058838;0.0;0.0;0.0
2163;0.0849120020866394;-0.019519999623298645;0.98990797996521;0.2000799924135208;-0.17080000042915344;1.165343999862671;0.07874999940395355;0.07437500357627869;0.23625001311302185
2165;0.0;0.0;0.0;0.19617599248886108;-0.15908800065517426;1.1448479890823364;0.0;0.0;0.0
2167;0.0;0.0;0.0;0.16591998934745789;-0.16299200057983398;1.1370400190353394;0.0;0.0;0.0
2169;0.0;0.0;0.0;0.18836799263954163;-0.15908800065517426;1.1448479890823364;0.0;0.0;0.0
2171;0.08637599647045135;-0.02000799961388111;0.9889319539070129;0.21569599211215973;-0.14737600088119507;1.148751974105835;0.07874999940395355;0.07437500357627869;0.23625001311302185
2174;0.0;0.0;0.0;0.19617599248886108;-0.15518400073051453;1.1526559591293335;0.0;0.0;0.0
2176;0.0;0.0;0.0;0.1844639927148819;-0.1512800008058548;1.1526559591293335;0.0;0.0;0.0
2178;0.0;0.0;0.0;0.2000799924135208;-0.16299200057983398;1.140944004058838;0.0;0.0;0.0
2180;0.0861319974064827;-0.019519999623298645;0.9886879920959473;0.20788799226284027;-0.1512800008058548;1.1448479890823364;0.07437500357627869;0.1443749964237213;0.2318750023841858
2182;0.0;0.0;0.0;0.2000799924135208;-0.15518400073051453;1.1448479890823364;0.0;0.0;0.0
2184;0.0;0.0;0.0;0.19617599248886108;-0.16299200057983398;1.140944004058838;0.0;0.0;0.0
2186;0.0;0.0;0.0;0.21959999203681946;-0.16299200057983398;1.1448479890823364;0.0;0.0;0.0
2188;0.08515600115060806;-0.02000799961388111;0.9891759753227234;0.1727519929409027;-0.17470400035381317;1.1448479890823364;0.004375003278255463;0.21437498927116394;0.2318750023841858
2191;0.0;0.0;0.0;0.18836799263954163;-0.13566400110721588;1.1448479890823364;0.0;0.0;0.0
2193;0.0;0.0;0.0;0.16884799301624298;-0.14347200095653534;1.124351978302002;0.0;0.0;0.0
2195;0.0;0.0;0.0;0.21569599211215973;-0.1395680010318756;1.1282559633255005;0.0;0.0;0.0
2197;0.08540000021457672;-0.019276000559329987;0.9889319539070129;0.18836799263954163;-0.1668960005044937;1.140944004058838;0.004375003278255463;0.21437498927116394;0.2318750023841858
2199;0.0;0.0;0.0;0.2117919921875;-0.16299200057983398;1.140944004058838;0.0;0.0;0.0
2201;0.0;0.0;0.0;0.19617599248886108;-0.1668960005044937;1.124351978302002;0.0;0.0;0.0
2203;0.0;0.0;0.0;0.19227199256420135;-0.14737600088119507;1.1370400190353394;0.0;0.0;0.0
2205;0.0861319974064827;-0.019519999623298645;0.9903959631919861;0.18836799263954163;-0.14737600088119507;1.1604639291763306;0.07437500357627869;0.14000000059604645;0.29750001430511475
2208;0.0;0.0;0.0;0.18055999279022217;-0.1512800008058548;1.1448479890823364;0.0;0.0;0.0
2210;0.0;0.0;0.0;0.2000799924135208;-0.1786080002784729;1.148751974105835;0.0;0.0;0.0
2212;0.0;0.0;0.0;0.18055999279022217;-0.15908800065517426;1.1526559591293335;0.0;0.0;0.0
2214;0.08466799557209015;-0.019276000559329987;0.9901520013809204;0.18836799263954163;-0.17470400035381317;1.1282559633255005;0.004375003278255463;0.14000000059604645;0.22750002145767212
2216;0.0;0.0;0.0;0.1727519929409027;-0.15908800065517426;1.140944004058838;0.0;0.0;0.0
2218;0.0;0.0;0.0;0.19227199256420135;-0.15518400073051453;1.148751974105835;0.0;0.0;0.0
2220;0.0;0.0;0.0;0.21569599211215973;-0.15908800065517426;1.132159948348999;0.0;0.0;0.0
2222;0.08417999744415283;-0.019519999623298645;0.9891759753227234;0.20788799226284027;-0.13176000118255615;1.1204479932785034;0.07437500357627869;0.07000000774860382;0.22750002145767212
2225;0.0;0.0;0.0;0.19227199256420135;-0.15908800065517426;1.1370400190353394;0.0;0.0;0.0
2227;0.0;0.0;0.0;0.1844639927148819;-0.18251200020313263;1.140944004058838;0.0;0.0;0.0
2229;0.0;0.0;0.0;0.17665599286556244;-0.15908800065517426;1.132159948348999;0.0;0.0;0.0
2231;0.08393599838018417;-0.02025200054049492;0.9894199967384338;0.1727519929409027;-0.16299200057983398;1.132159948348999;0.07437500357627869;0.07000000774860382;0.1575000286102295
2233;0.0;0.0;0.0;0.18836799263954163;-0.1512800008058548;1.132159948348999;0.0;0.0;0.0
2235;0.0;0.0;0.0;0.19617599248886108;-0.17080000042915344;1.1165440082550049;0.0;0.0;0.0
2237;0.0;0.0;0.0;0.2000799924135208;-0.1903200000524521;1.1448479890823364;0.0;0.0;0.0
2239;0.08393599838018417;-0.020495999604463577;0.9901520013809204;0.19617599248886108;-0.1395680010318756;1.148751974105835;0.07437500357627869;0.14000000059604645;0.22312501072883606
2242;0.0;0.0;0.0;0.19617599248886108;-0.1668960005044937;1.140944004058838;0.0;0.0;0.0
2244;0.0;0.0;0.0;0.2000799924135208;-0.14347200095653534;1.1526559591293335;0.0;0.0;0.0
2246;0.0;0.0;0.0;0.1844639927148819;-0.13176000118255615;1.148751974105835;0.0;0.0;0.0
2248;0.08417999744415283;-0.02000799961388111;0.9894199967384338;0.2235039919614792;-0.1395680010318756;1.1370400190353394;-0.06562499701976776;0.14000000059604645;0.22312501072883606
2250;0.0;0.0;0.0;0.2117919921875;-0.15518400073051453;1.140944004058838;0.0;0.0;0.0
2252;0.0;0.0;0.0;0.2117919921875;-0.16299200057983398;1.1448479890823364;0.0;0.0;0.0
2254;0.0;0.0;0.0;0.19617599248886108;-0.14737600088119507;1.1370400190353394;0.0;0.0;0.0
2256;0.08442399650812149;-0.02000799961388111;0.9891759753227234;0.2000799924135208;-0.17080000042915344;1.148751974105835;0.07437500357627869;0.2056249976158142;0.22312501072883606
2259;0.0;0.0;0.0;0.18055999279022217;-0.18251200020313263;1.132159948348999;0.0;0.0;0.0
2261;0.0;0.0;0.0;0.20398399233818054;-0.15518400073051453;1.1370400190353394;0.0;0.0;0.0
2263;0.0;0.0;0.0;0.1727519929409027;-0.15518400073051453;1.1370400190353394;0.0;0.0;0.0
2265;0.08515600115060806;-0.019763998687267303;0.9903959631919861;0.19617599248886108;-0.1512800008058548;1.148751974105835;0.004375003278255463;0.2056249976158142;0.22312501072883606
2267;0.0;0.0;0.0;0.1571359932422638;-0.1786080002784729;1.1360639333724976;0.0;0.0;0.0
2269;0.0;0.0;0.0;0.21569599211215973;-0.18251200020313263;1.124351978302002;0.0;0.0;0.0
2271;0.0;0.0;0.0;0.2117919921875;-0.13566400110721588;1.1526559591293335;0.0;0.0;0.0
2274;0.08515600115060806;-0.019763998687267303;0.9911279678344727;0.1844639927148819;-0.15518400073051453;1.140944004058838;0.004375003278255463;0.06562501192092896;0.15312501788139343
2276;0.0;0.0;0.0;0.18836799263954163;-0.13566400110721588;1.140944004058838;0.0;0.0;0.0
2278;0.0;0.0;0.0;0.19617599248886108;-0.16299200057983398;1.148751974105835;0.0;0.0;0.0
2280;0.0;0.0;0.0;0.20788799226284027;-0.14347200095653534;1.140944004058838;0.0;0.0;0.0
2282;0.08710800111293793;-0.019519999623298645;0.9896639585494995;0.19227199256420135;-0.14737600088119507;1.1604639291763306;0.1443750113248825;0.13562500476837158;0.14875000715255737
2284;0.0;0.0;0.0;0.1844639927148819;-0.15908800065517426;1.1526559591293335;0.0;0.0;0.0
2286;0.0;0.0;0.0;0.20788799226284027;-0.19422399997711182;1.1448479890823364;0.0;0.0;0.0
2288;0.0;0.0;0.0;0.18836799263954163;-0.16299200057983398;1.148751974105835;0.0;0.0;0.0
2290;0.0861319974064827;-0.01903199963271618;0.9894199967384338;0.2235039919614792;-0.1512800008058548;1.165343999862671;0.07437500357627869;0.2056249976158142;0.21875
2293;0.0;0.0;0.0;0.19617599248886108;-0.17470400035381317;1.140944004058838;0.0;0.0;0.0
2295;0.0;0.0;0.0;0.19227199256420135;-0.15908800065517426;1.148751974105835;0.0;0.0;0.0
2297;0.0;0.0;0.0;0.2117919921875;-0.1668960005044937;1.1448479890823364;0.0;0.0;0.0
2299;0.08540000021457672;-0.02000799961388111;0.98990797996521;0.1844639927148819;-0.1512800008058548;1.148751974105835;0.07437500357627869;0.13562500476837158;0.21875
2301;0.0;0.0;0.0;0.18055999279022217;-0.13176000118255615;1.156559944152832;0.0;0.0;0.0
2303;0.0;0.0;0.0;0.2000799924135208;-0.1668960005044937;1.132159948348999;0.0;0.0;0.0
2305;0.0;0.0;0.0;0.20398399233818054;-0.1395680010318756;1.124351978302002;0.0;0.0;0.0
2308;0.08466799557209015;-0.02025200054049492;0.9906399846076965;0.17665599286556244;-0.15908800065517426;1.1282559633255005;0.004375003278255463;0.13124999403953552;0.2887499928474426
2310;0.0;0.0;0.0;0.19617599248886108;-0.17080000042915344;1.140944004058838;0.0;0.0;0.0
2312;0.0;0.0;0.0;0.2117919921875;-0.17470400035381317;1.1526559591293335;0.0;0.0;0.0
2314;0.0;0.0;0.0;0.1844639927148819;-0.15908800065517426;1.148751974105835;0.0;0.0;0.0
2316;0.0849120020866394;-0.019763998687267303;0.9894199967384338;0.2235039919614792;-0.15908800065517426;1.124351978302002;0.004375003278255463;0.13124999403953552;0.28437501192092896
2318;0.0;0.0;0.0;0.19227199256420135;-0.1395680010318756;1.1282559633255005;0.0;0.0;0.0
2320;0.0;0.0;0.0;0.21569599211215973;-0.1512800008058548;1.124351978302002;0.0;0.0;0.0
2322;0.0;0.0;0.0;0.2235039919614792;-0.15908800065517426;1.1526559591293335;0.0;0.0;0.0
2325;0.08515600115060806;-0.020495999604463577;0.98990797996521;0.1844639927148819;-0.16299200057983398;1.1526559591293335;0.07437500357627869;0.13124999403953552;0.1443750262260437
2327;0.0;0.0;0.0;0.18836799263954163;-0.1668960005044937;1.148751974105835;0.0;0.0;0.0
2329;0.0;0.0;0.0;0.18836799263954163;-0.1512800008058548;1.1370400190353394;0.0;0.0;0.0
2331;0.0;0.0;0.0;0.18055999279022217;-0.15908800065517426;1.140944004058838;0.0;0.0;0.0
2333;0.0849120020866394;-0.019276000559329987;0.9889319539070129;0.21569599211215973;-0.1668960005044937;1.1448479890823364;0.07437500357627869;0.061250001192092896;0.21437501907348633
2335;0.0;0.0;0.0;0.19617599248886108;-0.15518400073051453;1.1448479890823364;0.0;0.0;0.0
2337;0.0;0.0;0.0;0.21569599211215973;-0.13176000118255615;1.140944004058838;0.0;0.0;0.0
2339;0.0;0.0;0.0;0.19617599248886108;-0.15908800065517426;1.148751974105835;0.0;0.0;0.0
2342;0.08369199931621552;-0.019519999623298645;0.9901520013809204;0.19617599248886108;-0.1512800008058548;1.1526559591293335;0.004375003278255463;0.20124998688697815;0.21437501907348633
2344;0.0;0.0;0.0;0.20398399233818054;-0.15908800065517426;1.1419199705123901;0.0;0.0;0.0
2346;0.0;0.0;0.0;0.20788799226284027;-0.16299200057983398;1.1380159854888916;0.0;0.0;0.0
2348;0.0;0.0;0.0;0.1844639927148819;-0.14737600088119507;1.1214239597320557;0.0;0.0;0.0
2350;0.08369199931621552;-0.02025200054049492;0.98990797996521;0.18055999279022217;-0.14347200095653534;1.1536319255828857;0.07437500357627869;0.13124999403953552;0.21000000834465027
2352;0.0;0.0;0.0;0.17665599286556244;-0.13566400110721588;1.1419199705123901;0.0;0.0;0.0
2354;0.0;0.0;0.0;0.22740799188613892;-0.15908800065517426;1.1331360340118408;0.0;0.0;0.0
2356;0.0;0.0;0.0;0.18055999279022217;-0.16299200057983398;1.1419199705123901;0.0;0.0;0.0
2359;0.08442399650812149;-0.01903199963271618;0.9901520013809204;0.19617599248886108;-0.16299200057983398;1.1175199747085571;0.07000000029802322;0.13124999403953552;0.21000000834465027
2361;0.0;0.0;0.0;0.2117919921875;-0.1903200000524521;1.1448479890823364;0.0;0.0;0.0
2363;0.0;0.0;0.0;0.2000799924135208;-0.1512800008058548;1.140944004058838;0.0;0.0;0.0
2365;0.0;0.0;0.0;0.2117919921875;-0.16299200057983398;1.1360639333724976;0.0;0.0;0.0
2367;0.0849120020866394;-0.02025200054049492;0.9901520013809204;0.20398399233818054;-0.14737600088119507;1.132159948348999;0.0;0.12687499821186066;0.21000000834465027
2369;0.0;0.0;0.0;0.20398399233818054;-0.14737600088119507;1.1370400190353394;0.0;0.0;0.0
2371;0.0;0.0;0.0;0.1727519929409027;-0.15908800065517426;1.148751974105835;0.0;0.0;0.0
2373;0.0;0.0;0.0;0.1844639927148819;-0.1512800008058548;1.1370400190353394;0.0;0.0;0.0
2376;0.08466799557209015;-0.019519999623298645;0.9906399846076965;0.16494399309158325;-0.16299200057983398;1.132159948348999;0.07000000029802322;0.12687499821186066;0.21000000834465027
2378;0.0;0.0;0.0;0.19227199256420135;-0.1668960005044937;1.1526559591293335;0.0;0.0;0.0
2380;0.0;0.0;0.0;0.18836799263954163;-0.1512800008058548;1.140944004058838;0.0;0.0;0.0
2382;0.0;0.0;0.0;0.19617599248886108;-0.15908800065517426;1.148751974105835;0.0;0.0;0.0
2384;0.08515600115060806;-0.019763998687267303;0.9891759753227234;0.18836799263954163;-0.14737600088119507;1.1282559633255005;0.07000000029802322;0.12687499821186066;0.2056249976158142
2386;0.0;0.0;0.0;0.19617599248886108;-0.14347200095653534;1.1370400190353394;0.0;0.0;0.0
2388;0.0;0.0;0.0;0.19617599248886108;-0.16299200057983398;1.132159948348999;0.0;0.0;0.0
