Timestamp(ms);LG-Accel x(g);LG-Accel y(g);LG-Accel z(g);HG-Accel x(g);HG-Accel y(g);HG-Accel z(g);Gyro x(dps);Gyro y(dps);Gyro z(dps)
48;0.0;0.0;0.0;0.20983999967575073;-0.13468798995018005;1.134112000465393;0.0;0.0;0.0
50;0.0;0.0;0.0;0.19422399997711182;-0.1424959897994995;1.150704026222229;0.0;0.0;0.0
52;0.0;0.0;0.0;0.2176479995250702;-0.16201600432395935;1.1428959369659424;0.0;0.0;0.0
54;0.0;0.0;0.0;0.19812799990177155;-0.1698240041732788;1.1428959369659424;0.0;0.0;0.0
56;0.0;0.0;0.0;0.1903200000524521;-0.15811198949813843;1.1380159854888916;0.0;0.0;0.0
58;0.0;0.0;0.0;0.2000799924135208;-0.15518400073051453;1.1604639291763306;0.0;0.0;0.0
60;0.0;0.0;0.0;0.20398399233818054;-0.1395680010318756;1.156559944152832;0.0;0.0;0.0
63;0.0;0.0;0.0;0.19617599248886108;-0.14737600088119507;1.1448479890823364;0.0;0.0;0.0
65;0.08466799557209015;-0.02025200054049492;0.990884006023407;0.19617599248886108;-0.13566400110721588;1.1448479890823364;0.0;0.0;0.0
67;0.0;0.0;0.0;0.19617599248886108;-0.1512800008058548;1.1204479932785034;0.0;0.0;0.0
69;0.0;0.0;0.0;0.17665599286556244;-0.17080000042915344;1.148751974105835;0.0;0.0;0.0
71;0.0;0.0;0.0;0.20788799226284027;-0.15908800065517426;1.148751974105835;0.0;0.0;0.0
73;0.08466799557209015;-0.020739998668432236;0.9911279678344727;0.19227199256420135;-0.1512800008058548;1.124351978302002;0.0;0.0;0.0
75;0.0;0.0;0.0;0.17665599286556244;-0.15908800065517426;1.1360639333724976;0.0;0.0;0.0
77;0.0;0.0;0.0;0.2000799924135208;-0.1668960005044937;1.140944004058838;0.0;0.0;0.0
80;0.0;0.0;0.0;0.17665599286556244;-0.1668960005044937;1.124351978302002;0.0;0.0;0.0
82;0.08515600115060806;-0.02025200054049492;0.9891759753227234;0.16884799301624298;-0.1668960005044937;1.1448479890823364;0.0;0.0;0.0
84;0.0;0.0;0.0;0.19617599248886108;-0.17080000042915344;1.132159948348999;0.0;0.0;0.0
86;0.0;0.0;0.0;0.1727519929409027;-0.18641600012779236;1.148751974105835;0.0;0.0;0.0
88;0.0;0.0;0.0;0.18836799263954163;-0.15908800065517426;1.1448479890823364;0.0;0.0;0.0
90;0.08515600115060806;-0.02000799961388111;0.9891759753227234;0.18055999279022217;-0.14347200095653534;1.1448479890823364;0.0;0.0;0.0
92;0.0;0.0;0.0;0.2117919921875;-0.18251200020313263;1.124351978302002;0.0;0.0;0.0
94;0.0;0.0;0.0;0.1844639927148819;-0.17080000042915344;1.1370400190353394;0.0;0.0;0.0
97;0.0;0.0;0.0;0.18055999279022217;-0.13566400110721588;1.1448479890823364;0.0;0.0;0.0
99;0.08588799834251404;-0.020739998668432236;0.9901520013809204;0.19227199256420135;-0.14347200095653534;1.140944004058838;0.0;0.0;0.0
101;0.0;0.0;0.0;0.19617599248886108;-0.14347200095653534;1.1370400190353394;0.0;0.0;0.0
103;0.0;0.0;0.0;0.19617599248886108;-0.17470400035381317;1.1526559591293335;0.0;0.0;0.0
105;0.0;0.0;0.0;0.2117919921875;-0.15908800065517426;1.1448479890823364;0.0;0.0;0.0
107;0.0849120020866394;-0.020495999604463577;0.9886879920959473;0.2000799924135208;-0.18251200020313263;1.1282559633255005;0.14000000059604645;0.2800000011920929;0.5600000023841858
110;0.0;0.0;0.0;0.19617599248886108;-0.1512800008058548;1.1370400190353394;0.0;0.0;0.0
111;0.0;0.0;0.0;0.1727519929409027;-0.15908800065517426;1.132159948348999;0.0;0.0;0.0
114;0.0;0.0;0.0;0.19227199256420135;-0.1395680010318756;1.1526559591293335;0.0;0.0;0.0
116;0.08540000021457672;-0.019763998687267303;0.9884439706802368;0.16884799301624298;-0.17080000042915344;1.140944004058838;0.21000000834465027;0.3499999940395355;0.49000000953674316
118;0.0;0.0;0.0;0.1727519929409027;-0.16299200057983398;1.132159948348999;0.0;0.0;0.0
120;0.0;0.0;0.0;0.18055999279022217;-0.1395680010318756;1.1448479890823364;0.0;0.0;0.0
122;0.0;0.0;0.0;0.17665599286556244;-0.1512800008058548;1.1614400148391724;0.0;0.0;0.0
124;0.08442399650812149;-0.02000799961388111;0.98990797996521;0.1844639927148819;-0.16299200057983398;1.1370400190353394;0.07000000029802322;0.2800000011920929;0.49000000953674316
127;0.0;0.0;0.0;0.19617599248886108;-0.1512800008058548;1.148751974105835;0.0;0.0;0.0
128;0.0;0.0;0.0;0.19617599248886108;-0.15908800065517426;1.140944004058838;0.0;0.0;0.0
131;0.0;0.0;0.0;0.21569599211215973;-0.15518400073051453;1.148751974105835;0.0;0.0;0.0
133;0.0849120020866394;-0.020495999604463577;0.9896639585494995;0.1844639927148819;-0.1395680010318756;1.1526559591293335;0.07000000029802322;0.2800000011920929;0.5600000023841858
135;0.0;0.0;0.0;0.20788799226284027;-0.15908800065517426;1.140944004058838;0.0;0.0;0.0
137;0.0;0.0;0.0;0.19617599248886108;-0.15518400073051453;1.140944004058838;0.0;0.0;0.0
139;0.0;0.0;0.0;0.19227199256420135;-0.13566400110721588;1.1448479890823364;0.0;0.0;0.0
141;0.08393599838018417;-0.019763998687267303;0.9901520013809204;0.18836799263954163;-0.15908800065517426;1.1448479890823364;0.07000000029802322;0.3499999940395355;0.49000000953674316
144;0.0;0.0;0.0;0.21569599211215973;-0.17470400035381317;1.140944004058838;0.0;0.0;0.0
146;0.0;0.0;0.0;0.18836799263954163;-0.1395680010318756;1.1370400190353394;0.0;0.0;0.0
148;0.0;0.0;0.0;0.2000799924135208;-0.14347200095653534;1.156559944152832;0.0;0.0;0.0
150;0.08369199931621552;-0.02025200054049492;0.9896639585494995;0.19617599248886108;-0.14737600088119507;1.1448479890823364;0.07000000029802322;0.2800000011920929;0.49000000953674316
152;0.0;0.0;0.0;0.19617599248886108;-0.1668960005044937;1.1370400190353394;0.0;0.0;0.0
154;0.0;0.0;0.0;0.2000799924135208;-0.14737600088119507;1.156559944152832;0.0;0.0;0.0
156;0.0;0.0;0.0;0.2000799924135208;-0.15518400073051453;1.132159948348999;0.0;0.0;0.0
158;0.08466799557209015;-0.019763998687267303;0.9894199967384338;0.19617599248886108;-0.1668960005044937;1.1448479890823364;0.07000000029802322;0.21000000834465027;0.49000000953674316
161;0.0;0.0;0.0;0.20398399233818054;-0.1668960005044937;1.148751974105835;0.0;0.0;0.0
163;0.0;0.0;0.0;0.1571359932422638;-0.15518400073051453;1.132159948348999;0.0;0.0;0.0
165;0.0;0.0;0.0;0.1844639927148819;-0.14347200095653534;1.140944004058838;0.0;0.0;0.0
167;0.08588799834251404;-0.02025200054049492;0.9882000088691711;0.18836799263954163;-0.15518400073051453;1.132159948348999;0.21000000834465027;0.21000000834465027;0.5600000023841858
169;0.0;0.0;0.0;0.2000799924135208;-0.15908800065517426;1.1526559591293335;0.0;0.0;0.0
171;0.0;0.0;0.0;0.1727519929409027;-0.17470400035381317;1.1448479890823364;0.0;0.0;0.0
173;0.0;0.0;0.0;0.19617599248886108;-0.1395680010318756;1.132159948348999;0.0;0.0;0.0
175;0.0861319974064827;-0.020983999595046043;0.9891759753227234;0.21959999203681946;-0.1512800008058548;1.148751974105835;0.07000000029802322;0.2800000011920929;0.5600000023841858
178;0.0;0.0;0.0;0.18055999279022217;-0.16299200057983398;1.1448479890823364;0.0;0.0;0.0
180;0.0;0.0;0.0;0.19227199256420135;-0.15908800065517426;1.132159948348999;0.0;0.0;0.0
182;0.0;0.0;0.0;0.20398399233818054;-0.1512800008058548;1.1360639333724976;0.0;0.0;0.0
184;0.08564399927854538;-0.02000799961388111;0.9903959631919861;0.18836799263954163;-0.1668960005044937;1.140944004058838;0.07000000029802322;0.42000001668930054;0.5600000023841858
186;0.0;0.0;0.0;0.1844639927148819;-0.15518400073051453;1.1204479932785034;0.0;0.0;0.0
188;0.0;0.0;0.0;0.19617599248886108;-0.16299200057983398;1.132159948348999;0.0;0.0;0.0
190;0.0;0.0;0.0;0.19227199256420135;-0.15518400073051453;1.1448479890823364;0.0;0.0;0.0
192;0.08442399650812149;-0.019276000559329987;0.9896639585494995;0.1844639927148819;-0.16299200057983398;1.148751974105835;0.0;0.42000001668930054;0.5600000023841858
195;0.0;0.0;0.0;0.18836799263954163;-0.1512800008058548;1.124351978302002;0.0;0.0;0.0
197;0.0;0.0;0.0;0.19617599248886108;-0.17470400035381317;1.1448479890823364;0.0;0.0;0.0
199;0.0;0.0;0.0;0.18836799263954163;-0.15518400073051453;1.148751974105835;0.0;0.0;0.0
201;0.08466799557209015;-0.02025200054049492;0.9894199967384338;0.1844639927148819;-0.1668960005044937;1.132159948348999;0.14000000059604645;0.21000000834465027;0.49000000953674316
203;0.0;0.0;0.0;0.19227199256420135;-0.1512800008058548;1.1370400190353394;0.0;0.0;0.0
205;0.0;0.0;0.0;0.2117919921875;-0.17470400035381317;1.1614400148391724;0.0;0.0;0.0
207;0.0;0.0;0.0;0.18836799263954163;-0.15518400073051453;1.140944004058838;0.0;0.0;0.0
209;0.08515600115060806;-0.020983999595046043;0.9901520013809204;0.2000799924135208;-0.1395680010318756;1.1448479890823364;0.14000000059604645;0.14000000059604645;0.49000000953674316
212;0.0;0.0;0.0;0.2117919921875;-0.15518400073051453;1.1614400148391724;0.0;0.0;0.0
214;0.0;0.0;0.0;0.2000799924135208;-0.17080000042915344;1.156559944152832;0.0;0.0;0.0
216;0.0;0.0;0.0;0.20398399233818054;-0.14737600088119507;1.1360639333724976;0.0;0.0;0.0
218;0.0861319974064827;-0.020983999595046043;0.9894199967384338;0.19227199256420135;-0.13566400110721588;1.156559944152832;0.21000000834465027;0.21000000834465027;0.5600000023841858
220;0.0;0.0;0.0;0.20788799226284027;-0.15908800065517426;1.1448479890823364;0.0;0.0;0.0
222;0.0;0.0;0.0;0.17665599286556244;-0.15518400073051453;1.132159948348999;0.0;0.0;0.0
224;0.0;0.0;0.0;0.2117919921875;-0.1512800008058548;1.1370400190353394;0.0;0.0;0.0
226;0.08686399459838867;-0.019763998687267303;0.9891759753227234;0.19617599248886108;-0.16299200057983398;1.132159948348999;0.14000000059604645;0.14000000059604645;0.49000000953674316
228;0.0;0.0;0.0;0.19227199256420135;-0.17080000042915344;1.1360639333724976;0.0;0.0;0.0
231;0.0;0.0;0.0;0.18836799263954163;-0.13566400110721588;1.148751974105835;0.0;0.0;0.0
233;0.0;0.0;0.0;0.20398399233818054;-0.19422399997711182;1.140944004058838;0.0;0.0;0.0
235;0.0861319974064827;-0.019519999623298645;0.9889319539070129;0.1844639927148819;-0.16299200057983398;1.165343999862671;0.14000000059604645;0.21000000834465027;0.49000000953674316
237;0.0;0.0;0.0;0.1844639927148819;-0.15518400073051453;1.1282559633255005;0.0;0.0;0.0
239;0.0;0.0;0.0;0.19227199256420135;-0.1395680010318756;1.1448479890823364;0.0;0.0;0.0
241;0.0;0.0;0.0;0.20398399233818054;-0.17470400035381317;1.1526559591293335;0.0;0.0;0.0
243;0.08588799834251404;-0.020495999604463577;0.9894199967384338;0.2117919921875;-0.1668960005044937;1.140944004058838;0.07000000029802322;0.42000001668930054;0.49000000953674316
246;0.0;0.0;0.0;0.18055999279022217;-0.15908800065517426;1.1448479890823364;0.0;0.0;0.0
248;0.0;0.0;0.0;0.2117919921875;-0.17080000042915344;1.148751974105835;0.0;0.0;0.0
250;0.0;0.0;0.0;0.16884799301624298;-0.14737600088119507;1.1282559633255005;0.0;0.0;0.0
252;0.08417999744415283;-0.02025200054049492;0.9903959631919861;0.20788799226284027;-0.1786080002784729;1.148751974105835;0.07000000029802322;0.42000001668930054;0.49000000953674316
254;0.0;0.0;0.0;0.16494399309158325;-0.16299200057983398;1.132159948348999;0.0;0.0;0.0
256;0.0;0.0;0.0;0.17665599286556244;-0.15518400073051453;1.1204479932785034;0.0;0.0;0.0
258;0.0;0.0;0.0;0.18055999279022217;-0.15908800065517426;1.1692479848861694;0.0;0.0;0.0
260;0.0832040011882782;-0.020495999604463577;0.9884439706802368;0.1727519929409027;-0.14347200095653534;1.1448479890823364;0.14000000059604645;0.3499999940395355;0.49000000953674316
263;0.0;0.0;0.0;0.19227199256420135;-0.12785600125789642;1.140944004058838;0.0;0.0;0.0
265;0.0;0.0;0.0;0.19617599248886108;-0.15518400073051453;1.124351978302002;0.0;0.0;0.0
267;0.0;0.0;0.0;0.19227199256420135;-0.1668960005044937;1.1370400190353394;0.0;0.0;0.0
269;0.08393599838018417;-0.02000799961388111;0.9886879920959473;0.18055999279022217;-0.13176000118255615;1.140944004058838;0.14000000059604645;0.21000000834465027;0.49000000953674316
271;0.0;0.0;0.0;0.2117919921875;-0.15908800065517426;1.1692479848861694;0.0;0.0;0.0
273;0.0;0.0;0.0;0.1727519929409027;-0.14347200095653534;1.1448479890823364;0.0;0.0;0.0
275;0.0;0.0;0.0;0.2000799924135208;-0.17470400035381317;1.140944004058838;0.0;0.0;0.0
277;0.08442399650812149;-0.02025200054049492;0.9894199967384338;0.19227199256420135;-0.12785600125789642;1.1604639291763306;0.14000000059604645;0.21000000834465027;0.49000000953674316
280;0.0;0.0;0.0;0.18836799263954163;-0.15908800065517426;1.1370400190353394;0.0;0.0;0.0
282;0.0;0.0;0.0;0.18836799263954163;-0.16299200057983398;1.140944004058838;0.0;0.0;0.0
284;0.0;0.0;0.0;0.2117919921875;-0.15908800065517426;1.1614400148391724;0.0;0.0;0.0
286;0.08466799557209015;-0.020495999604463577;0.9891759753227234;0.22740799188613892;-0.15908800065517426;1.148751974105835;0.14000000059604645;0.2800000011920929;0.49000000953674316
288;0.0;0.0;0.0;0.16103999316692352;-0.13176000118255615;1.132159948348999;0.0;0.0;0.0
290;0.0;0.0;0.0;0.1844639927148819;-0.18641600012779236;1.1282559633255005;0.0;0.0;0.0
292;0.0;0.0;0.0;0.20788799226284027;-0.14347200095653534;1.132159948348999;0.0;0.0;0.0
294;0.0849120020866394;-0.020739998668432236;0.9891759753227234;0.20788799226284027;-0.14737600088119507;1.1282559633255005;0.07000000029802322;0.2800000011920929;0.49000000953674316
297;0.0;0.0;0.0;0.20788799226284027;-0.15518400073051453;1.132159948348999;0.0;0.0;0.0
299;0.0;0.0;0.0;0.18055999279022217;-0.16299200057983398;1.156559944152832;0.0;0.0;0.0
301;0.0;0.0;0.0;0.2000799924135208;-0.15908800065517426;1.1282559633255005;0.0;0.0;0.0
303;0.08515600115060806;-0.020495999604463577;0.9884439706802368;0.2000799924135208;-0.1668960005044937;1.148751974105835;0.07000000029802322;0.3499999940395355;0.49000000953674316
305;0.0;0.0;0.0;0.18836799263954163;-0.14737600088119507;1.1282559633255005;0.0;0.0;0.0
307;0.0;0.0;0.0;0.1844639927148819;-0.15518400073051453;1.1370400190353394;0.0;0.0;0.0
309;0.0;0.0;0.0;0.19617599248886108;-0.14347200095653534;1.124351978302002;0.0;0.0;0.0
311;0.0849120020866394;-0.02000799961388111;0.9896639585494995;0.2000799924135208;-0.17470400035381317;1.165343999862671;0.07000000029802322;0.42000001668930054;0.49000000953674316
314;0.0;0.0;0.0;0.21569599211215973;-0.15518400073051453;1.148751974105835;0.0;0.0;0.0
316;0.0;0.0;0.0;0.2000799924135208;-0.1395680010318756;1.173151969909668;0.0;0.0;0.0
318;0.0;0.0;0.0;0.20398399233818054;-0.15518400073051453;1.1448479890823364;0.0;0.0;0.0
320;0.08515600115060806;-0.019763998687267303;0.98990797996521;0.18055999279022217;-0.17080000042915344;1.1282559633255005;0.14000000059604645;0.2800000011920929;0.49000000953674316
322;0.0;0.0;0.0;0.1727519929409027;-0.13566400110721588;1.1126400232315063;0.0;0.0;0.0
324;0.0;0.0;0.0;0.1727519929409027;-0.1395680010318756;1.1360639333724976;0.0;0.0;0.0
326;0.0;0.0;0.0;0.19227199256420135;-0.1668960005044937;1.1165440082550049;0.0;0.0;0.0
328;0.08564399927854538;-0.02000799961388111;0.9896639585494995;0.19227199256420135;-0.14347200095653534;1.140944004058838;0.07000000029802322;0.2800000011920929;0.49000000953674316
331;0.0;0.0;0.0;0.1844639927148819;-0.15518400073051453;1.148751974105835;0.0;0.0;0.0
333;0.0;0.0;0.0;0.20398399233818054;-0.1512800008058548;1.1448479890823364;0.0;0.0;0.0
335;0.0;0.0;0.0;0.19617599248886108;-0.17470400035381317;1.1448479890823364;0.0;0.0;0.0
337;0.08686399459838867;-0.02025200054049492;0.9901520013809204;0.18836799263954163;-0.15908800065517426;1.148751974105835;0.14000000059604645;0.2800000011920929;0.5600000023841858
339;0.0;0.0;0.0;0.18055999279022217;-0.15518400073051453;1.132159948348999;0.0;0.0;0.0
341;0.0;0.0;0.0;0.2117919921875;-0.14737600088119507;1.1526559591293335;0.0;0.0;0.0
343;0.0;0.0;0.0;0.18836799263954163;-0.14347200095653534;1.1448479890823364;0.0;0.0;0.0
345;0.08540000021457672;-0.020495999604463577;0.9894199967384338;0.18836799263954163;-0.1395680010318756;1.148751974105835;0.14000000059604645;0.2800000011920929;0.49000000953674316
348;0.0;0.0;0.0;0.20788799226284027;-0.17470400035381317;1.1360639333724976;0.0;0.0;0.0
350;0.0;0.0;0.0;0.19227199256420135;-0.17470400035381317;1.1692479848861694;0.0;0.0;0.0
352;0.0;0.0;0.0;0.19617599248886108;-0.16299200057983398;1.140944004058838;0.0;0.0;0.0
354;0.08564399927854538;-0.02025200054049492;0.9896639585494995;0.2000799924135208;-0.17470400035381317;1.165343999862671;0.14000000059604645;0.2800000011920929;0.49000000953674316
356;0.0;0.0;0.0;0.18836799263954163;-0.1512800008058548;1.1282559633255005;0.0;0.0;0.0
358;0.0;0.0;0.0;0.18055999279022217;-0.17470400035381317;1.1282559633255005;0.0;0.0;0.0
360;0.0;0.0;0.0;0.19617599248886108;-0.14737600088119507;1.1204479932785034;0.0;0.0;0.0
362;0.0849120020866394;-0.02025200054049492;0.9891759753227234;0.20398399233818054;-0.16299200057983398;1.1448479890823364;0.07000000029802322;0.14000000059604645;0.49000000953674316
365;0.0;0.0;0.0;0.1844639927148819;-0.15518400073051453;1.1526559591293335;0.0;0.0;0.0
367;0.0;0.0;0.0;0.1844639927148819;-0.15908800065517426;1.140944004058838;0.0;0.0;0.0
369;0.0;0.0;0.0;0.18836799263954163;-0.14347200095653534;1.1282559633255005;0.0;0.0;0.0
371;0.08515600115060806;-0.02000799961388111;0.9886879920959473;0.19617599248886108;-0.15518400073051453;1.132159948348999;0.14000000059604645;0.14000000059604645;0.49000000953674316
373;0.0;0.0;0.0;0.17665599286556244;-0.13176000118255615;1.140944004058838;0.0;0.0;0.0
375;0.0;0.0;0.0;0.18836799263954163;-0.14347200095653534;1.1448479890823364;0.0;0.0;0.0
377;0.0;0.0;0.0;0.20398399233818054;-0.1512800008058548;1.140944004058838;0.0;0.0;0.0
379;0.08564399927854538;-0.02025200054049492;0.9889319539070129;0.2000799924135208;-0.1512800008058548;1.132159948348999;0.14000000059604645;0.21000000834465027;0.49000000953674316
382;0.0;0.0;0.0;0.18836799263954163;-0.1512800008058548;1.132159948348999;0.0;0.0;0.0
384;0.0;0.0;0.0;0.20398399233818054;-0.15518400073051453;1.140944004058838;0.0;0.0;0.0
386;0.0;0.0;0.0;0.17665599286556244;-0.1512800008058548;1.1604639291763306;0.0;0.0;0.0
388;0.08540000021457672;-0.020495999604463577;0.9891759753227234;0.16884799301624298;-0.16299200057983398;1.124351978302002;0.07000000029802322;0.2800000011920929;0.49000000953674316
390;0.0;0.0;0.0;0.2000799924135208;-0.15908800065517426;1.1526559591293335;0.0;0.0;0.0
392;0.0;0.0;0.0;0.1844639927148819;-0.18641600012779236;1.1526559591293335;0.0;0.0;0.0
394;0.0;0.0;0.0;0.20398399233818054;-0.15908800065517426;1.124351978302002;0.0;0.0;0.0
396;0.08515600115060806;-0.019519999623298645;0.98990797996521;0.20788799226284027;-0.1395680010318756;1.1370400190353394;0.07000000029802322;0.3499999940395355;0.49000000953674316
399;0.0;0.0;0.0;0.19617599248886108;-0.17080000042915344;1.1526559591293335;0.0;0.0;0.0
401;0.0;0.0;0.0;0.1571359932422638;-0.17080000042915344;1.140944004058838;0.0;0.0;0.0
403;0.0;0.0;0.0;0.16103999316692352;-0.1668960005044937;1.132159948348999;0.0;0.0;0.0
405;0.08515600115060806;-0.020495999604463577;0.98990797996521;0.18836799263954163;-0.16299200057983398;1.132159948348999;0.0;0.42000001668930054;0.49000000953674316
407;0.0;0.0;0.0;0.1844639927148819;-0.1395680010318756;1.156559944152832;0.0;0.0;0.0
409;0.0;0.0;0.0;0.21569599211215973;-0.15908800065517426;1.1526559591293335;0.0;0.0;0.0
411;0.0;0.0;0.0;0.20788799226284027;-0.14737600088119507;1.1526559591293335;0.0;0.0;0.0
413;0.08442399650812149;-0.020739998668432236;0.98990797996521;0.18836799263954163;-0.1903200000524521;1.148751974105835;0.07000000029802322;0.3499999940395355;0.49000000953674316
416;0.0;0.0;0.0;0.17665599286556244;-0.1512800008058548;1.1448479890823364;0.0;0.0;0.0
418;0.0;0.0;0.0;0.17665599286556244;-0.14347200095653534;1.156559944152832;0.0;0.0;0.0
420;0.0;0.0;0.0;0.19617599248886108;-0.1512800008058548;1.1526559591293335;0.0;0.0;0.0
422;0.08442399650812149;-0.020739998668432236;0.9896639585494995;0.18055999279022217;-0.16299200057983398;1.140944004058838;0.21000000834465027;0.14000000059604645;0.49000000953674316
424;0.0;0.0;0.0;0.18836799263954163;-0.16299200057983398;1.124351978302002;0.0;0.0;0.0
426;0.0;0.0;0.0;0.19227199256420135;-0.1512800008058548;1.132159948348999;0.0;0.0;0.0
428;0.0;0.0;0.0;0.18836799263954163;-0.1395680010318756;1.1448479890823364;0.0;0.0;0.0
430;0.08588799834251404;-0.020495999604463577;0.9889319539070129;0.21959999203681946;-0.17470400035381317;1.1448479890823364;0.14000000059604645;0.14000000059604645;0.42000001668930054
433;0.0;0.0;0.0;0.19227199256420135;-0.1668960005044937;1.132159948348999;0.0;0.0;0.0
435;0.0;0.0;0.0;0.2000799924135208;-0.15908800065517426;1.1526559591293335;0.0;0.0;0.0
437;0.0;0.0;0.0;0.18836799263954163;-0.13566400110721588;1.173151969909668;0.0;0.0;0.0
439;0.08588799834251404;-0.02000799961388111;0.9889319539070129;0.21959999203681946;-0.14347200095653534;1.148751974105835;0.14000000059604645;0.14000000059604645;0.42000001668930054
441;0.0;0.0;0.0;0.1844639927148819;-0.13566400110721588;1.1604639291763306;0.0;0.0;0.0
443;0.0;0.0;0.0;0.18836799263954163;-0.15518400073051453;1.1370400190353394;0.0;0.0;0.0
445;0.0;0.0;0.0;0.18836799263954163;-0.16299200057983398;1.1448479890823364;0.0;0.0;0.0
447;0.08588799834251404;-0.019763998687267303;0.9896639585494995;0.20788799226284027;-0.15908800065517426;1.1370400190353394;0.07000000029802322;0.3499999940395355;0.49000000953674316
450;0.0;0.0;0.0;0.21569599211215973;-0.17470400035381317;1.132159948348999;0.0;0.0;0.0
452;0.0;0.0;0.0;0.19227199256420135;-0.17080000042915344;1.1204479932785034;0.0;0.0;0.0
454;0.0;0.0;0.0;0.1844639927148819;-0.14347200095653534;1.1526559591293335;0.0;0.0;0.0
456;0.08564399927854538;-0.02025200054049492;0.9891759753227234;0.19227199256420135;-0.1786080002784729;1.124351978302002;0.0;0.3499999940395355;0.5600000023841858
458;0.0;0.0;0.0;0.19227199256420135;-0.1512800008058548;1.1282559633255005;0.0;0.0;0.0
460;0.0;0.0;0.0;0.21569599211215973;-0.15908800065517426;1.140944004058838;0.0;0.0;0.0
462;0.0;0.0;0.0;0.20788799226284027;-0.15518400073051453;1.1282559633255005;0.0;0.0;0.0
464;0.08466799557209015;-0.02000799961388111;0.9896639585494995;0.2000799924135208;-0.15908800065517426;1.1614400148391724;0.07000000029802322;0.49000000953674316;0.49000000953674316
467;0.0;0.0;0.0;0.21569599211215973;-0.16299200057983398;1.1370400190353394;0.0;0.0;0.0
469;0.0;0.0;0.0;0.20788799226284027;-0.13176000118255615;1.1448479890823364;0.0;0.0;0.0
471;0.0;0.0;0.0;0.19227199256420135;-0.17470400035381317;1.140944004058838;0.0;0.0;0.0
473;0.0832040011882782;-0.020495999604463577;0.98990797996521;0.19227199256420135;-0.14347200095653534;1.156559944152832;0.07000000029802322;0.42000001668930054;0.49000000953674316
475;0.0;0.0;0.0;0.21569599211215973;-0.14737600088119507;1.156559944152832;0.0;0.0;0.0
477;0.0;0.0;0.0;0.1844639927148819;-0.14347200095653534;1.1370400190353394;0.0;0.0;0.0
479;0.0;0.0;0.0;0.2000799924135208;-0.17080000042915344;1.1370400190353394;0.0;0.0;0.0
482;0.08417999744415283;-0.02025200054049492;0.98990797996521;0.1727519929409027;-0.15908800065517426;1.165343999862671;0.14000000059604645;0.21000000834465027;0.5600000023841858
484;0.0;0.0;0.0;0.20398399233818054;-0.14737600088119507;1.140944004058838;0.0;0.0;0.0
486;0.0;0.0;0.0;0.20398399233818054;-0.15908800065517426;1.1526559591293335;0.0;0.0;0.0
488;0.0;0.0;0.0;0.16103999316692352;-0.15518400073051453;1.1204479932785034;0.0;0.0;0.0
490;0.0849120020866394;-0.02025200054049492;0.9886879920959473;0.18836799263954163;-0.1668960005044937;1.1282559633255005;0.21000000834465027;0.14000000059604645;0.49000000953674316
492;0.0;0.0;0.0;0.18836799263954163;-0.15908800065517426;1.148751974105835;0.0;0.0;0.0
494;0.0;0.0;0.0;0.18055999279022217;-0.15518400073051453;1.132159948348999;0.0;0.0;0.0
496;0.0;0.0;0.0;0.18055999279022217;-0.15908800065517426;1.148751974105835;0.0;0.0;0.0
499;0.08466799557209015;-0.020739998668432236;0.9884439706802368;0.1844639927148819;-0.18641600012779236;1.1448479890823364;0.21000000834465027;0.14000000059604645;0.49000000953674316
501;0.0;0.0;0.0;0.19617599248886108;-0.1395680010318756;1.1282559633255005;0.0;0.0;0.0
503;0.0;0.0;0.0;0.2000799924135208;-0.12004800140857697;1.148751974105835;0.0;0.0;0.0
505;0.0;0.0;0.0;0.2000799924135208;-0.1512800008058548;1.132159948348999;0.0;0.0;0.0
507;0.08637599647045135;-0.019763998687267303;0.9891759753227234;0.20788799226284027;-0.17080000042915344;1.1448479890823364;0.14000000059604645;0.14000000059604645;0.49000000953674316
509;0.0;0.0;0.0;0.1844639927148819;-0.1395680010318756;1.1526559591293335;0.0;0.0;0.0
511;0.0;0.0;0.0;0.19227199256420135;-0.1668960005044937;1.156559944152832;0.0;0.0;0.0
513;0.0;0.0;0.0;0.18836799263954163;-0.15908800065517426;1.1448479890823364;0.0;0.0;0.0
516;0.08661999553442001;-0.019519999623298645;0.9884439706802368;0.2000799924135208;-0.15908800065517426;1.148751974105835;0.14000000059604645;0.2800000011920929;0.49000000953674316
518;0.0;0.0;0.0;0.2117919921875;-0.13566400110721588;1.156559944152832;0.0;0.0;0.0
520;0.0;0.0;0.0;0.1844639927148819;-0.17470400035381317;1.148751974105835;0.0;0.0;0.0
522;0.0;0.0;0.0;0.19227199256420135;-0.1512800008058548;1.148751974105835;0.0;0.0;0.0
524;0.0861319974064827;-0.020495999604463577;0.9889319539070129;0.19617599248886108;-0.15908800065517426;1.1526559591293335;0.07000000029802322;0.42000001668930054;0.49000000953674316
526;0.0;0.0;0.0;0.19227199256420135;-0.1512800008058548;1.124351978302002;0.0;0.0;0.0
528;0.0;0.0;0.0;0.2000799924135208;-0.14737600088119507;1.148751974105835;0.0;0.0;0.0
530;0.0;0.0;0.0;0.19227199256420135;-0.13566400110721588;1.1448479890823364;0.0;0.0;0.0
533;0.08588799834251404;-0.02025200054049492;0.9901520013809204;0.1844639927148819;-0.14347200095653534;1.165343999862671;0.07000000029802322;0.49000000953674316;0.49000000953674316
535;0.0;0.0;0.0;0.19617599248886108;-0.15518400073051453;1.124351978302002;0.0;0.0;0.0
537;0.0;0.0;0.0;0.19617599248886108;-0.1395680010318756;1.1526559591293335;0.0;0.0;0.0
539;0.0;0.0;0.0;0.2000799924135208;-0.1512800008058548;1.1448479890823364;0.0;0.0;0.0
541;0.08466799557209015;-0.02000799961388111;0.9901520013809204;0.18836799263954163;-0.14737600088119507;1.1204479932785034;0.0;0.49000000953674316;0.5600000023841858
543;0.0;0.0;0.0;0.2117919921875;-0.12785600125789642;1.148751974105835;0.0;0.0;0.0
545;0.0;0.0;0.0;0.1844639927148819;-0.14737600088119507;1.132159948348999;0.0;0.0;0.0
547;0.0;0.0;0.0;0.1571359932422638;-0.14737600088119507;1.1614400148391724;0.0;0.0;0.0
550;0.0832040011882782;-0.02025200054049492;0.990884006023407;0.16884799301624298;-0.14737600088119507;1.140944004058838;0.07000000029802322;0.3499999940395355;0.49000000953674316
552;0.0;0.0;0.0;0.19227199256420135;-0.16299200057983398;1.132159948348999;0.0;0.0;0.0
554;0.0;0.0;0.0;0.16884799301624298;-0.15518400073051453;1.1448479890823364;0.0;0.0;0.0
556;0.0;0.0;0.0;0.17665599286556244;-0.1395680010318756;1.156559944152832;0.0;0.0;0.0
558;0.08442399650812149;-0.020739998668432236;0.9896639585494995;0.1844639927148819;-0.16299200057983398;1.140944004058838;0.14000000059604645;0.14000000059604645;0.49000000953674316
560;0.0;0.0;0.0;0.19227199256420135;-0.15518400073051453;1.1448479890823364;0.0;0.0;0.0
562;0.0;0.0;0.0;0.19617599248886108;-0.15518400073051453;1.156559944152832;0.0;0.0;0.0
564;0.0;0.0;0.0;0.19617599248886108;-0.17080000042915344;1.124351978302002;0.0;0.0;0.0
567;0.08417999744415283;-0.02025200054049492;0.9894199967384338;0.19617599248886108;-0.15908800065517426;1.1370400190353394;0.21000000834465027;0.07000000029802322;0.42000001668930054
569;0.0;0.0;0.0;0.2000799924135208;-0.15908800065517426;1.1165440082550049;0.0;0.0;0.0
571;0.0;0.0;0.0;0.20398399233818054;-0.1512800008058548;1.1448479890823364;0.0;0.0;0.0
573;0.0;0.0;0.0;0.2235039919614792;-0.14347200095653534;1.132159948348999;0.0;0.0;0.0
575;0.08540000021457672;-0.02025200054049492;0.9896639585494995;0.2117919921875;-0.15908800065517426;1.1204479932785034;0.21000000834465027;0.14000000059604645;0.49000000953674316
577;0.0;0.0;0.0;0.20788799226284027;-0.17470400035381317;1.1448479890823364;0.0;0.0;0.0
579;0.0;0.0;0.0;0.2000799924135208;-0.1395680010318756;1.124351978302002;0.0;0.0;0.0
581;0.0;0.0;0.0;0.21569599211215973;-0.14737600088119507;1.1526559591293335;0.0;0.0;0.0
584;0.08637599647045135;-0.02025200054049492;0.9886879920959473;0.21959999203681946;-0.1395680010318756;1.1448479890823364;0.07000000029802322;0.21000000834465027;0.49000000953674316
586;0.0;0.0;0.0;0.2000799924135208;-0.16299200057983398;1.1526559591293335;0.0;0.0;0.0
588;0.0;0.0;0.0;0.20398399233818054;-0.16299200057983398;1.1448479890823364;0.0;0.0;0.0
590;0.0;0.0;0.0;0.21959999203681946;-0.15518400073051453;1.1282559633255005;0.0;0.0;0.0
592;0.08661999553442001;-0.02000799961388111;0.98990797996521;0.18836799263954163;-0.1512800008058548;1.140944004058838;0.14000000059604645;0.2800000011920929;0.49000000953674316
594;0.0;0.0;0.0;0.18055999279022217;-0.16299200057983398;1.1370400190353394;0.0;0.0;0.0
596;0.0;0.0;0.0;0.20398399233818054;-0.17470400035381317;1.132159948348999;0.0;0.0;0.0
598;0.0;0.0;0.0;0.19227199256420135;-0.1512800008058548;1.1282559633255005;0.0;0.0;0.0
601;0.08661999553442001;-0.019276000559329987;0.9901520013809204;0.1698240041732788;-0.1395680010318756;1.156559944152832;0.07000000029802322;0.3499999940395355;0.5600000023841858
603;0.0;0.0;0.0;0.20398399233818054;-0.1395680010318756;1.1448479890823364;0.0;0.0;0.0
605;0.0;0.0;0.0;0.20788799226284027;-0.1512800008058548;1.148751974105835;0.0;0.0;0.0
607;0.0;0.0;0.0;0.18836799263954163;-0.1512800008058548;1.1526559591293335;0.0;0.0;0.0
609;0.08588799834251404;-0.02000799961388111;0.98990797996521;0.18836799263954163;-0.17080000042915344;1.132159948348999;0.0;0.42000001668930054;0.49000000953674316
611;0.0;0.0;0.0;0.1844639927148819;-0.14737600088119507;1.140944004058838;0.0;0.0;0.0
613;0.0;0.0;0.0;0.21959999203681946;-0.14347200095653534;1.1370400190353394;0.0;0.0;0.0
615;0.0;0.0;0.0;0.17665599286556244;-0.1668960005044937;1.132159948348999;0.0;0.0;0.0
618;0.0849120020866394;-0.019763998687267303;0.9891759753227234;0.2000799924135208;-0.1668960005044937;1.148751974105835;0.07000000029802322;0.42000001668930054;0.5600000023841858
620;0.0;0.0;0.0;0.1844639927148819;-0.17080000042915344;1.140944004058838;0.0;0.0;0.0
622;0.0;0.0;0.0;0.20398399233818054;-0.15908800065517426;1.1204479932785034;0.0;0.0;0.0
624;0.0;0.0;0.0;0.19617599248886108;-0.15908800065517426;1.148751974105835;0.0;0.0;0.0
626;0.08393599838018417;-0.020739998668432236;0.9896639585494995;0.2000799924135208;-0.13566400110721588;1.1526559591293335;0.14000000059604645;0.2800000011920929;0.5600000023841858
628;0.0;0.0;0.0;0.19617599248886108;-0.15518400073051453;1.1204479932785034;0.0;0.0;0.0
630;0.0;0.0;0.0;0.20398399233818054;-0.1512800008058548;1.140944004058838;0.0;0.0;0.0
633;0.0;0.0;0.0;0.1844639927148819;-0.13566400110721588;1.1360639333724976;0.0;0.0;0.0
635;0.08466799557209015;-0.02000799961388111;0.9901520013809204;0.18055999279022217;-0.15908800065517426;1.1370400190353394;0.14000000059604645;0.14000000059604645;0.49000000953674316
637;0.0;0.0;0.0;0.19617599248886108;-0.14737600088119507;1.148751974105835;0.0;0.0;0.0
639;0.0;0.0;0.0;0.19227199256420135;-0.16299200057983398;1.165343999862671;0.0;0.0;0.0
641;0.0;0.0;0.0;0.19617599248886108;-0.15518400073051453;1.1204479932785034;0.0;0.0;0.0
643;0.08442399650812149;-0.02000799961388111;0.9894199967384338;0.20398399233818054;-0.1512800008058548;1.156559944152832;0.14000000059604645;0.21000000834465027;0.49000000953674316
645;0.0;0.0;0.0;0.20398399233818054;-0.1668960005044937;1.148751974105835;0.0;0.0;0.0
647;0.0;0.0;0.0;0.17665599286556244;-0.16299200057983398;1.140944004058838;0.0;0.0;0.0
650;0.0;0.0;0.0;0.2117919921875;-0.19422399997711182;1.148751974105835;0.0;0.0;0.0
652;0.08515600115060806;-0.02000799961388111;0.98990797996521;0.18836799263954163;-0.14737600088119507;1.1448479890823364;0.14000000059604645;0.21000000834465027;0.49000000953674316
654;0.0;0.0;0.0;0.18055999279022217;-0.16299200057983398;1.165343999862671;0.0;0.0;0.0
656;0.0;0.0;0.0;0.19617599248886108;-0.16299200057983398;1.140944004058838;0.0;0.0;0.0
658;0.0;0.0;0.0;0.18836799263954163;-0.13176000118255615;1.156559944152832;0.0;0.0;0.0
660;0.08466799557209015;-0.019763998687267303;0.9896639585494995;0.19617599248886108;-0.1395680010318756;1.1448479890823364;0.14000000059604645;0.3499999940395355;0.49000000953674316
662;0.0;0.0;0.0;0.18836799263954163;-0.16299200057983398;1.124351978302002;0.0;0.0;0.0
664;0.0;0.0;0.0;0.1844639927148819;-0.16299200057983398;1.1360639333724976;0.0;0.0;0.0
667;0.0;0.0;0.0;0.19227199256420135;-0.13566400110721588;1.140944004058838;0.0;0.0;0.0
669;0.08515600115060806;-0.02025200054049492;0.9882000088691711;0.23131199181079865;-0.15518400073051453;1.124351978302002;0.14000000059604645;0.3499999940395355;0.49000000953674316
671;0.0;0.0;0.0;0.2000799924135208;-0.1512800008058548;1.140944004058838;0.0;0.0;0.0
673;0.0;0.0;0.0;0.2000799924135208;-0.13566400110721588;1.1448479890823364;0.0;0.0;0.0
675;0.0;0.0;0.0;0.1844639927148819;-0.16299200057983398;1.132159948348999;0.0;0.0;0.0
677;0.08466799557209015;-0.020739998668432236;0.98990797996521;0.20788799226284027;-0.12785600125789642;1.1448479890823364;0.14000000059604645;0.2800000011920929;0.49000000953674316
679;0.0;0.0;0.0;0.1844639927148819;-0.1512800008058548;1.132159948348999;0.0;0.0;0.0
681;0.0;0.0;0.0;0.2000799924135208;-0.15908800065517426;1.1204479932785034;0.0;0.0;0.0
684;0.0;0.0;0.0;0.1844639927148819;-0.15908800065517426;1.156559944152832;0.0;0.0;0.0
686;0.08515600115060806;-0.02000799961388111;0.9896639585494995;0.2000799924135208;-0.1512800008058548;1.140944004058838;0.07000000029802322;0.21000000834465027;0.49000000953674316
688;0.0;0.0;0.0;0.20788799226284027;-0.12785600125789642;1.1282559633255005;0.0;0.0;0.0
690;0.0;0.0;0.0;0.18836799263954163;-0.14347200095653534;1.1604639291763306;0.0;0.0;0.0
692;0.0;0.0;0.0;0.20788799226284027;-0.1668960005044937;1.148751974105835;0.0;0.0;0.0
694;0.08564399927854538;-0.02025200054049492;0.9894199967384338;0.19227199256420135;-0.1668960005044937;1.148751974105835;0.07000000029802322;0.2800000011920929;0.49000000953674316
696;0.0;0.0;0.0;0.20398399233818054;-0.1786080002784729;1.140944004058838;0.0;0.0;0.0
698;0.0;0.0;0.0;0.16884799301624298;-0.1512800008058548;1.1526559591293335;0.0;0.0;0.0
701;0.0;0.0;0.0;0.2000799924135208;-0.17470400035381317;1.1526559591293335;0.0;0.0;0.0
703;0.0849120020866394;-0.020983999595046043;0.9889319539070129;0.18836799263954163;-0.15518400073051453;1.1448479890823364;0.14000000059604645;0.2800000011920929;0.49000000953674316
705;0.0;0.0;0.0;0.19617599248886108;-0.11614400148391724;1.1575360298156738;0.0;0.0;0.0
707;0.0;0.0;0.0;0.2000799924135208;-0.15518400073051453;1.1536319255828857;0.0;0.0;0.0
709;0.0;0.0;0.0;0.17665599286556244;-0.14737600088119507;1.1331360340118408;0.0;0.0;0.0
711;0.08442399650812149;-0.020495999604463577;0.9894199967384338;0.18836799263954163;-0.13176000118255615;1.1292319297790527;0.14000000059604645;0.2800000011920929;0.49000000953674316
713;0.0;0.0;0.0;0.20788799226284027;-0.17080000042915344;1.1536319255828857;0.0;0.0;0.0
715;0.0;0.0;0.0;0.2000799924135208;-0.11614400148391724;1.1663199663162231;0.0;0.0;0.0
718;0.0;0.0;0.0;0.16884799301624298;-0.17470400035381317;1.1575360298156738;0.0;0.0;0.0
720;0.0849120020866394;-0.02000799961388111;0.9903959631919861;0.2000799924135208;-0.14737600088119507;1.1497279405593872;0.14000000059604645;0.2800000011920929;0.5600000023841858
722;0.0;0.0;0.0;0.16884799301624298;-0.15518400073051453;1.0960479974746704;0.0;0.0;0.0
724;0.0;0.0;0.0;0.19227199256420135;-0.1512800008058548;1.140944004058838;0.0;0.0;0.0
726;0.0;0.0;0.0;0.1727519929409027;-0.16299200057983398;1.148751974105835;0.0;0.0;0.0
728;0.08540000021457672;-0.02000799961388111;0.9886879920959473;0.19227199256420135;-0.15908800065517426;1.140944004058838;0.14000000059604645;0.21000000834465027;0.49000000953674316
730;0.0;0.0;0.0;0.2000799924135208;-0.18251200020313263;1.1448479890823364;0.0;0.0;0.0
732;0.0;0.0;0.0;0.21569599211215973;-0.17080000042915344;1.148751974105835;0.0;0.0;0.0
735;0.0;0.0;0.0;0.20788799226284027;-0.17080000042915344;1.165343999862671;0.0;0.0;0.0
737;0.08564399927854538;-0.019763998687267303;0.9891759753227234;0.1844639927148819;-0.1512800008058548;1.140944004058838;0.14000000059604645;0.14000000059604645;0.42000001668930054
739;0.0;0.0;0.0;0.16494399309158325;-0.17080000042915344;1.1604639291763306;0.0;0.0;0.0
741;0.0;0.0;0.0;0.1844639927148819;-0.1668960005044937;1.1448479890823364;0.0;0.0;0.0
743;0.0;0.0;0.0;0.20788799226284027;-0.18251200020313263;1.1370400190353394;0.0;0.0;0.0
745;0.0861319974064827;-0.02000799961388111;0.98990797996521;0.19617599248886108;-0.1668960005044937;1.1370400190353394;0.14000000059604645;0.2800000011920929;0.42000001668930054
747;0.0;0.0;0.0;0.18836799263954163;-0.1512800008058548;1.1448479890823364;0.0;0.0;0.0
749;0.0;0.0;0.0;0.17665599286556244;-0.13176000118255615;1.1448479890823364;0.0;0.0;0.0
752;0.0;0.0;0.0;0.2000799924135208;-0.15518400073051453;1.1282559633255005;0.0;0.0;0.0
754;0.0861319974064827;-0.02000799961388111;0.9896639585494995;0.21569599211215973;-0.1512800008058548;1.132159948348999;0.07000000029802322;0.3499999940395355;0.49000000953674316
756;0.0;0.0;0.0;0.18055999279022217;-0.1512800008058548;1.1526559591293335;0.0;0.0;0.0
758;0.0;0.0;0.0;0.17665599286556244;-0.16299200057983398;1.1448479890823364;0.0;0.0;0.0
760;0.0;0.0;0.0;0.2000799924135208;-0.1512800008058548;1.1370400190353394;0.0;0.0;0.0
762;0.08564399927854538;-0.020739998668432236;0.9901520013809204;0.2000799924135208;-0.17470400035381317;1.1526559591293335;0.0;0.42000001668930054;0.49000000953674316
764;0.0;0.0;0.0;0.18055999279022217;-0.15518400073051453;1.1370400190353394;0.0;0.0;0.0
766;0.0;0.0;0.0;0.18055999279022217;-0.17080000042915344;1.1282559633255005;0.0;0.0;0.0
769;0.0;0.0;0.0;0.19617599248886108;-0.1668960005044937;1.1526559591293335;0.0;0.0;0.0
771;0.08222799748182297;-0.02122800052165985;0.9913719892501831;0.18836799263954163;-0.15518400073051453;1.132159948348999;0.07000000029802322;0.2800000011920929;0.49000000953674316
773;0.0;0.0;0.0;0.20398399233818054;-0.1395680010318756;1.1370400190353394;0.0;0.0;0.0
775;0.0;0.0;0.0;0.19227199256420135;-0.15518400073051453;1.132159948348999;0.0;0.0;0.0
777;0.0;0.0;0.0;0.19617599248886108;-0.14347200095653534;1.1448479890823364;0.0;0.0;0.0
779;0.08466799557209015;-0.020495999604463577;0.9894199967384338;0.20788799226284027;-0.14347200095653534;1.140944004058838;0.14000000059604645;0.0;0.49000000953674316
782;0.0;0.0;0.0;0.1844639927148819;-0.17080000042915344;1.1526559591293335;0.0;0.0;0.0
783;0.0;0.0;0.0;0.20788799226284027;-0.15908800065517426;1.140944004058838;0.0;0.0;0.0
786;0.0;0.0;0.0;0.20788799226284027;-0.1668960005044937;1.140944004058838;0.0;0.0;0.0
788;0.08442399650812149;-0.019519999623298645;0.9889319539070129;0.18055999279022217;-0.16299200057983398;1.140944004058838;0.21000000834465027;0.07000000029802322;0.49000000953674316
790;0.0;0.0;0.0;0.19227199256420135;-0.1512800008058548;1.1448479890823364;0.0;0.0;0.0
792;0.0;0.0;0.0;0.19617599248886108;-0.12785600125789642;1.140944004058838;0.0;0.0;0.0
794;0.0;0.0;0.0;0.21959999203681946;-0.13176000118255615;1.1370400190353394;0.0;0.0;0.0
796;0.08564399927854538;-0.019763998687267303;0.9886879920959473;0.19227199256420135;-0.14347200095653534;1.156559944152832;0.14000000059604645;0.07000000029802322;0.49000000953674316
799;0.0;0.0;0.0;0.19617599248886108;-0.14737600088119507;1.1370400190353394;0.0;0.0;0.0
800;0.0;0.0;0.0;0.1844639927148819;-0.15518400073051453;1.1282559633255005;0.0;0.0;0.0
803;0.0;0.0;0.0;0.2235039919614792;-0.15518400073051453;1.148751974105835;0.0;0.0;0.0
805;0.08686399459838867;-0.019519999623298645;0.9886879920959473;0.19617599248886108;-0.14737600088119507;1.1526559591293335;0.07000000029802322;0.2800000011920929;0.49000000953674316
807;0.0;0.0;0.0;0.20788799226284027;-0.1668960005044937;1.1165440082550049;0.0;0.0;0.0
809;0.0;0.0;0.0;0.21569599211215973;-0.1512800008058548;1.1282559633255005;0.0;0.0;0.0
811;0.0;0.0;0.0;0.2000799924135208;-0.15518400073051453;1.148751974105835;0.0;0.0;0.0
813;0.08661999553442001;-0.019276000559329987;0.9889319539070129;0.20788799226284027;-0.14347200095653534;1.1526559591293335;0.0;0.49000000953674316;0.49000000953674316
816;0.0;0.0;0.0;0.20398399233818054;-0.14347200095653534;1.148751974105835;0.0;0.0;0.0
818;0.0;0.0;0.0;0.18836799263954163;-0.15908800065517426;1.1370400190353394;0.0;0.0;0.0
820;0.0;0.0;0.0;0.2000799924135208;-0.17080000042915344;1.1370400190353394;0.0;0.0;0.0
822;0.08540000021457672;-0.019519999623298645;0.9896639585494995;0.20788799226284027;-0.1512800008058548;1.1614400148391724;-0.07000000029802322;0.5600000023841858;0.5600000023841858
824;0.0;0.0;0.0;0.19617599248886108;-0.16299200057983398;1.165343999862671;0.0;0.0;0.0
826;0.0;0.0;0.0;0.20398399233818054;-0.1512800008058548;1.148751974105835;0.0;0.0;0.0
828;0.0;0.0;0.0;0.16103999316692352;-0.1668960005044937;1.132159948348999;0.0;0.0;0.0
830;0.08271599560976028;-0.020739998668432236;0.9896639585494995;0.18836799263954163;-0.1512800008058548;1.156559944152832;0.0;0.49000000953674316;0.49000000953674316
833;0.0;0.0;0.0;0.19227199256420135;-0.1512800008058548;1.148751974105835;0.0;0.0;0.0
835;0.0;0.0;0.0;0.21569599211215973;-0.1668960005044937;1.148751974105835;0.0;0.0;0.0
837;0.0;0.0;0.0;0.19617599248886108;-0.17080000042915344;1.148751974105835;0.0;0.0;0.0
839;0.08369199931621552;-0.020495999604463577;0.98990797996521;0.20788799226284027;-0.15518400073051453;1.1370400190353394;0.14000000059604645;0.14000000059604645;0.49000000953674316
841;0.0;0.0;0.0;0.2117919921875;-0.12785600125789642;1.1282559633255005;0.0;0.0;0.0
843;0.0;0.0;0.0;0.18836799263954163;-0.15908800065517426;1.1448479890823364;0.0;0.0;0.0
845;0.0;0.0;0.0;0.20788799226284027;-0.17470400035381317;1.1526559591293335;0.0;0.0;0.0
847;0.08515600115060806;-0.019519999623298645;0.9901520013809204;0.19227199256420135;-0.17080000042915344;1.1204479932785034;0.14000000059604645;0.14000000059604645;0.49000000953674316
850;0.0;0.0;0.0;0.16884799301624298;-0.14737600088119507;1.1448479890823364;0.0;0.0;0.0
852;0.0;0.0;0.0;0.21569599211215973;-0.15908800065517426;1.124351978302002;0.0;0.0;0.0
854;0.0;0.0;0.0;0.18055999279022217;-0.17080000042915344;1.140944004058838;0.0;0.0;0.0
856;0.0849120020866394;-0.020739998668432236;0.9894199967384338;0.20398399233818054;-0.14737600088119507;1.124351978302002;0.14000000059604645;0.21000000834465027;0.49000000953674316
858;0.0;0.0;0.0;0.18055999279022217;-0.1512800008058548;1.1526559591293335;0.0;0.0;0.0
860;0.0;0.0;0.0;0.19227199256420135;-0.14347200095653534;1.1282559633255005;0.0;0.0;0.0
862;0.0;0.0;0.0;0.1727519929409027;-0.15908800065517426;1.165343999862671;0.0;0.0;0.0
864;0.08588799834251404;-0.019276000559329987;0.9896639585494995;0.20788799226284027;-0.14737600088119507;1.148751974105835;0.07000000029802322;0.21000000834465027;0.49000000953674316
867;0.0;0.0;0.0;0.2000799924135208;-0.15908800065517426;1.124351978302002;0.0;0.0;0.0
869;0.0;0.0;0.0;0.18055999279022217;-0.14737600088119507;1.140944004058838;0.0;0.0;0.0
871;0.0;0.0;0.0;0.20398399233818054;-0.1512800008058548;1.140944004058838;0.0;0.0;0.0
873;0.08686399459838867;-0.019276000559329987;0.9896639585494995;0.2117919921875;-0.16299200057983398;1.1370400190353394;0.07000000029802322;0.2800000011920929;0.49000000953674316
875;0.0;0.0;0.0;0.19227199256420135;-0.12785600125789642;1.156559944152832;0.0;0.0;0.0
877;0.0;0.0;0.0;0.20788799226284027;-0.16299200057983398;1.132159948348999;0.0;0.0;0.0
879;0.0;0.0;0.0;0.19617599248886108;-0.15518400073051453;1.1448479890823364;0.0;0.0;0.0
881;0.08515600115060806;-0.019763998687267303;0.9896639585494995;0.20398399233818054;-0.15908800065517426;1.1448479890823364;0.07000000029802322;0.49000000953674316;0.49000000953674316
884;0.0;0.0;0.0;0.19617599248886108;-0.14737600088119507;1.148751974105835;0.0;0.0;0.0
886;0.0;0.0;0.0;0.2000799924135208;-0.1786080002784729;1.1282559633255005;0.0;0.0;0.0
888;0.0;0.0;0.0;0.2235039919614792;-0.13566400110721588;1.1604639291763306;0.0;0.0;0.0
890;0.08540000021457672;-0.020739998668432236;0.990884006023407;0.18836799263954163;-0.14347200095653534;1.132159948348999;0.07000000029802322;0.49000000953674316;0.49000000953674316
892;0.0;0.0;0.0;0.1727519929409027;-0.14737600088119507;1.148751974105835;0.0;0.0;0.0
894;0.0;0.0;0.0;0.19227199256420135;-0.15908800065517426;1.156559944152832;0.0;0.0;0.0
896;0.0;0.0;0.0;0.18055999279022217;-0.14737600088119507;1.165343999862671;0.0;0.0;0.0
898;0.08344800025224686;-0.02147199958562851;0.9921039938926697;0.18055999279022217;-0.14347200095653534;1.1370400190353394;0.07000000029802322;0.2800000011920929;0.49000000953674316
901;0.0;0.0;0.0;0.18836799263954163;-0.14737600088119507;1.1204479932785034;0.0;0.0;0.0
903;0.0;0.0;0.0;0.20398399233818054;-0.15908800065517426;1.148751974105835;0.0;0.0;0.0
905;0.0;0.0;0.0;0.20398399233818054;-0.14737600088119507;1.1448479890823364;0.0;0.0;0.0
907;0.08442399650812149;-0.020739998668432236;0.9886879920959473;0.20788799226284027;-0.15518400073051453;1.140944004058838;0.21000000834465027;0.0;0.4856249988079071
909;0.0;0.0;0.0;0.19227199256420135;-0.15908800065517426;1.140944004058838;0.0;0.0;0.0
911;0.0;0.0;0.0;0.2000799924135208;-0.12785600125789642;1.132159948348999;0.0;0.0;0.0
913;0.0;0.0;0.0;0.18836799263954163;-0.12785600125789642;1.132159948348999;0.0;0.0;0.0
915;0.08466799557209015;-0.019763998687267303;0.9884439706802368;0.1727519929409027;-0.1512800008058548;1.140944004058838;0.21000000834465027;-0.07000000029802322;0.4856249988079071
918;0.0;0.0;0.0;0.17665599286556244;-0.15518400073051453;1.148751974105835;0.0;0.0;0.0
920;0.0;0.0;0.0;0.20398399233818054;-0.16299200057983398;1.1165440082550049;0.0;0.0;0.0
922;0.0;0.0;0.0;0.18836799263954163;-0.1512800008058548;1.173151969909668;0.0;0.0;0.0
924;0.08515600115060806;-0.019763998687267303;0.9886879920959473;0.16884799301624298;-0.1512800008058548;1.148751974105835;0.14000000059604645;0.0;0.48125001788139343
926;0.0;0.0;0.0;0.18836799263954163;-0.15518400073051453;1.1331360340118408;0.0;0.0;0.0
928;0.0;0.0;0.0;0.1844639927148819;-0.15908800065517426;1.1497279405593872;0.0;0.0;0.0
930;0.0;0.0;0.0;0.16884799301624298;-0.14347200095653534;1.1292319297790527;0.0;0.0;0.0
932;0.0861319974064827;-0.019763998687267303;0.9882000088691711;0.21569599211215973;-0.1395680010318756;1.1497279405593872;0.14000000059604645;0.21000000834465027;0.48125001788139343
935;0.0;0.0;0.0;0.18055999279022217;-0.1786080002784729;1.1458239555358887;0.0;0.0;0.0
937;0.0;0.0;0.0;0.19227199256420135;-0.15518400073051453;1.1419199705123901;0.0;0.0;0.0
939;0.0;0.0;0.0;0.19617599248886108;-0.15908800065517426;1.1370400190353394;0.0;0.0;0.0
941;0.08661999553442001;-0.019763998687267303;0.9896639585494995;0.20788799226284027;-0.17080000042915344;1.1253279447555542;0.0;0.5556250214576721;0.4768750071525574
943;0.0;0.0;0.0;0.19227199256420135;-0.1512800008058548;1.140944004058838;0.0;0.0;0.0
945;0.0;0.0;0.0;0.19617599248886108;-0.1395680010318756;1.1526559591293335;0.0;0.0;0.0
947;0.0;0.0;0.0;0.19227199256420135;-0.15908800065517426;1.1282559633255005;0.0;0.0;0.0
949;0.08564399927854538;-0.02025200054049492;0.990884006023407;0.18055999279022217;-0.17080000042915344;1.1282559633255005;-0.07000000029802322;0.765625;0.4768750071525574
952;0.0;0.0;0.0;0.1727519929409027;-0.14737600088119507;1.1526559591293335;0.0;0.0;0.0
954;0.0;0.0;0.0;0.2000799924135208;-0.1395680010318756;1.1448479890823364;0.0;0.0;0.0
956;0.0;0.0;0.0;0.18055999279022217;-0.17080000042915344;1.132159948348999;0.0;0.0;0.0
958;0.08149600028991699;-0.021715998649597168;0.9918599724769592;0.21959999203681946;-0.14737600088119507;1.156559944152832;0.0;0.5512499809265137;0.5425000190734863
960;0.0;0.0;0.0;0.16103999316692352;-0.1239520013332367;1.140944004058838;0.0;0.0;0.0
962;0.0;0.0;0.0;0.1844639927148819;-0.1512800008058548;1.140944004058838;0.0;0.0;0.0
964;0.0;0.0;0.0;0.2117919921875;-0.14737600088119507;1.1370400190353394;0.0;0.0;0.0
966;0.08295999467372894;-0.02122800052165985;0.990884006023407;0.19617599248886108;-0.15908800065517426;1.1282559633255005;0.13562500476837158;-0.008750000037252903;0.46812501549720764
969;0.0;0.0;0.0;0.18836799263954163;-0.12004800140857697;1.1204479932785034;0.0;0.0;0.0
971;0.0;0.0;0.0;0.20788799226284027;-0.15518400073051453;1.1282559633255005;0.0;0.0;0.0
973;0.0;0.0;0.0;0.2000799924135208;-0.15908800065517426;1.1370400190353394;0.0;0.0;0.0
975;0.08515600115060806;-0.02000799961388111;0.9882000088691711;0.22740799188613892;-0.1395680010318756;1.1448479890823364;0.27562499046325684;-0.07874999940395355;0.46812501549720764
977;0.0;0.0;0.0;0.18055999279022217;-0.14347200095653534;1.1419199705123901;0.0;0.0;0.0
979;0.0;0.0;0.0;0.1844639927148819;-0.1239520013332367;1.1536319255828857;0.0;0.0;0.0
981;0.0;0.0;0.0;0.19617599248886108;-0.17470400035381317;1.1497279405593872;0.0;0.0;0.0
983;0.08540000021457672;-0.02025200054049492;0.9884439706802368;0.23521599173545837;-0.15908800065517426;1.1614400148391724;0.2056250125169754;-0.07874999940395355;0.4637500047683716
986;0.0;0.0;0.0;0.19227199256420135;-0.1668960005044937;1.1380159854888916;0.0;0.0;0.0
988;0.0;0.0;0.0;0.20398399233818054;-0.1512800008058548;1.1458239555358887;0.0;0.0;0.0
990;0.0;0.0;0.0;0.1727519929409027;-0.17080000042915344;1.1536319255828857;0.0;0.0;0.0
992;0.08735200017690659;-0.019276000559329987;0.9884439706802368;0.19617599248886108;-0.15908800065517426;1.1702239513397217;0.13562500476837158;0.061250001192092896;0.4637500047683716
994;0.0;0.0;0.0;0.19617599248886108;-0.15518400073051453;1.124351978302002;0.0;0.0;0.0
996;0.0;0.0;0.0;0.19227199256420135;-0.17080000042915344;1.1692479848861694;0.0;0.0;0.0
998;0.0;0.0;0.0;0.20398399233818054;-0.15518400073051453;1.140944004058838;0.0;0.0;0.0
1000;0.0878399983048439;-0.019276000559329987;0.9889319539070129;0.20788799226284027;-0.1512800008058548;1.124351978302002;-0.0043750000186264515;0.4768750071525574;0.4593750238418579
1003;0.0;0.0;0.0;0.2000799924135208;-0.15908800065517426;1.1370400190353394;0.0;0.0;0.0
1005;0.0;0.0;0.0;0.19617599248886108;-0.1512800008058548;1.1370400190353394;0.0;0.0;0.0
1007;0.0;0.0;0.0;0.16494399309158325;-0.16299200057983398;1.124351978302002;0.0;0.0;0.0
1009;0.08686399459838867;-0.019519999623298645;0.9889319539070129;0.19227199256420135;-0.14737600088119507;1.132159948348999;-0.1443749964237213;0.7568749785423279;0.5293750166893005
1011;0.0;0.0;0.0;0.18836799263954163;-0.1395680010318756;1.140944004058838;0.0;0.0;0.0
1013;0.0;0.0;0.0;0.17665599286556244;-0.16299200057983398;1.1526559591293335;0.0;0.0;0.0
1015;0.0;0.0;0.0;0.19227199256420135;-0.1512800008058548;1.165343999862671;0.0;0.0;0.0
1017;0.08295999467372894;-0.02122800052165985;0.9906399846076965;0.1727519929409027;-0.13566400110721588;1.1526559591293335;-0.1443749964237213;0.7524999976158142;0.45500001311302185
1020;0.0;0.0;0.0;0.1844639927148819;-0.13566400110721588;1.1448479890823364;0.0;0.0;0.0
1022;0.0;0.0;0.0;0.18836799263954163;-0.15518400073051453;1.1282559633255005;0.0;0.0;0.0
1024;0.0;0.0;0.0;0.19227199256420135;-0.15908800065517426;1.1526559591293335;0.0;0.0;0.0
1026;0.08100800216197968;-0.021715998649597168;0.9921039938926697;0.19617599248886108;-0.1512800008058548;1.1448479890823364;0.06562499701976776;0.1925000101327896;0.5249999761581421
1028;0.0;0.0;0.0;0.19617599248886108;-0.15908800065517426;1.132159948348999;0.0;0.0;0.0
1030;0.0;0.0;0.0;0.21569599211215973;-0.1512800008058548;1.132159948348999;0.0;0.0;0.0
1032;0.0;0.0;0.0;0.20788799226284027;-0.15518400073051453;1.1448479890823364;0.0;0.0;0.0
1034;0.08540000021457672;-0.020983999595046043;0.9894199967384338;0.2117919921875;-0.15908800065517426;1.1692479848861694;0.27562499046325684;-0.22750000655651093;0.4506250023841858
1037;0.0;0.0;0.0;0.18836799263954163;-0.1395680010318756;1.1370400190353394;0.0;0.0;0.0
1039;0.0;0.0;0.0;0.18836799263954163;-0.1395680010318756;1.148751974105835;0.0;0.0;0.0
1041;0.0;0.0;0.0;0.2117919921875;-0.1512800008058548;1.1165440082550049;0.0;0.0;0.0
1043;0.08588799834251404;-0.02025200054049492;0.9884439706802368;0.19617599248886108;-0.15908800065517426;1.140944004058838;0.27125000953674316;-0.017500000074505806;0.4506250023841858
1045;0.0;0.0;0.0;0.18836799263954163;-0.1668960005044937;1.1526559591293335;0.0;0.0;0.0
1047;0.0;0.0;0.0;0.1844639927148819;-0.14347200095653534;1.140944004058838;0.0;0.0;0.0
1049;0.0;0.0;0.0;0.20788799226284027;-0.1395680010318756;1.148751974105835;0.0;0.0;0.0
1051;0.08564399927854538;-0.02025200054049492;0.9886879920959473;0.17665599286556244;-0.14737600088119507;1.1360639333724976;0.20125000178813934;0.12250000238418579;0.4462500214576721
1054;0.0;0.0;0.0;0.20788799226284027;-0.15908800065517426;1.1448479890823364;0.0;0.0;0.0
1056;0.0;0.0;0.0;0.19617599248886108;-0.15518400073051453;1.1448479890823364;0.0;0.0;0.0
1058;0.0;0.0;0.0;0.19227199256420135;-0.15908800065517426;1.1604639291763306;0.0;0.0;0.0
1060;0.08564399927854538;-0.02025200054049492;0.9886879920959473;0.20398399233818054;-0.14347200095653534;1.1204479932785034;0.061250001192092896;0.328125;0.4462500214576721
1062;0.0;0.0;0.0;0.20398399233818054;-0.1395680010318756;1.1380159854888916;0.0;0.0;0.0
1064;0.0;0.0;0.0;0.20788799226284027;-0.1512800008058548;1.1331360340118408;0.0;0.0;0.0
1066;0.0;0.0;0.0;0.17665599286556244;-0.15518400073051453;1.1331360340118408;0.0;0.0;0.0
1068;0.0861319974064827;-0.02025200054049492;0.9889319539070129;0.21959999203681946;-0.13176000118255615;1.1458239555358887;-0.008750000037252903;0.6081249713897705;0.44187501072883606
1071;0.0;0.0;0.0;0.19227199256420135;-0.17080000042915344;1.1458239555358887;0.0;0.0;0.0
1073;0.0;0.0;0.0;0.20398399233818054;-0.1395680010318756;1.1458239555358887;0.0;0.0;0.0
1075;0.0;0.0;0.0;0.18055999279022217;-0.15518400073051453;1.1380159854888916;0.0;0.0;0.0
1077;0.08417999744415283;-0.020495999604463577;0.9894199967384338;0.1844639927148819;-0.1512800008058548;1.1575360298156738;-0.008750000037252903;0.5337499976158142;0.4375
1079;0.0;0.0;0.0;0.1571359932422638;-0.13566400110721588;1.1692479848861694;0.0;0.0;0.0
1081;0.0;0.0;0.0;0.2235039919614792;-0.1512800008058548;1.140944004058838;0.0;0.0;0.0
1083;0.0;0.0;0.0;0.2000799924135208;-0.12785600125789642;1.156559944152832;0.0;0.0;0.0
1085;0.08417999744415283;-0.020739998668432236;0.9911279678344727;0.19227199256420135;-0.1512800008058548;1.156559944152832;-0.008750000037252903;0.32374998927116394;0.4375
1088;0.0;0.0;0.0;0.17665599286556244;-0.14737600088119507;1.140944004058838;0.0;0.0;0.0
1090;0.0;0.0;0.0;0.19617599248886108;-0.1668960005044937;1.124351978302002;0.0;0.0;0.0
1092;0.0;0.0;0.0;0.20398399233818054;-0.1668960005044937;1.1370400190353394;0.0;0.0;0.0
1094;0.08515600115060806;-0.020495999604463577;0.98990797996521;0.17665599286556244;-0.14737600088119507;1.1370400190353394;0.13124999403953552;0.109375;0.4375
1096;0.0;0.0;0.0;0.18836799263954163;-0.1395680010318756;1.1448479890823364;0.0;0.0;0.0
1098;0.0;0.0;0.0;0.19227199256420135;-0.14737600088119507;1.1370400190353394;0.0;0.0;0.0
1100;0.0;0.0;0.0;0.18055999279022217;-0.15518400073051453;1.1448479890823364;0.0;0.0;0.0
1102;0.08588799834251404;-0.020495999604463577;0.9901520013809204;0.20398399233818054;-0.17080000042915344;1.1448479890823364;0.20125000178813934;0.109375;0.43312501907348633
1105;0.0;0.0;0.0;0.20398399233818054;-0.18641600012779236;1.1448479890823364;0.0;0.0;0.0
1107;0.0;0.0;0.0;0.18836799263954163;-0.15908800065517426;1.1448479890823364;0.0;0.0;0.0
1109;0.0;0.0;0.0;0.19617599248886108;-0.15518400073051453;1.1526559591293335;0.0;0.0;0.0
1111;0.08442399650812149;-0.019519999623298645;0.9903959631919861;0.19617599248886108;-0.16299200057983398;1.148751974105835;0.061250001192092896;0.17937500774860382;0.43312501907348633
1113;0.0;0.0;0.0;0.2235039919614792;-0.14347200095653534;1.140944004058838;0.0;0.0;0.0
1115;0.0;0.0;0.0;0.19617599248886108;-0.18251200020313263;1.1448479890823364;0.0;0.0;0.0
1117;0.0;0.0;0.0;0.2000799924135208;-0.14737600088119507;1.1526559591293335;0.0;0.0;0.0
1119;0.08466799557209015;-0.020495999604463577;0.9901520013809204;0.19617599248886108;-0.1786080002784729;1.1448479890823364;0.13124999403953552;0.17937500774860382;0.42875000834465027
1122;0.0;0.0;0.0;0.18836799263954163;-0.16299200057983398;1.140944004058838;0.0;0.0;0.0
1124;0.0;0.0;0.0;0.1844639927148819;-0.15908800065517426;1.140944004058838;0.0;0.0;0.0
1126;0.0;0.0;0.0;0.21569599211215973;-0.17470400035381317;1.1370400190353394;0.0;0.0;0.0
1128;0.08564399927854538;-0.020495999604463577;0.98990797996521;0.2000799924135208;-0.14347200095653534;1.148751974105835;-0.008750000037252903;0.24937500059604645;0.42875000834465027
1130;0.0;0.0;0.0;0.2000799924135208;-0.17080000042915344;1.1536319255828857;0.0;0.0;0.0
1132;0.0;0.0;0.0;0.16884799301624298;-0.15908800065517426;1.1370400190353394;0.0;0.0;0.0
1134;0.0;0.0;0.0;0.19617599248886108;-0.1239520013332367;1.1536319255828857;0.0;0.0;0.0
1136;0.08417999744415283;-0.020495999604463577;0.9896639585494995;0.1727519929409027;-0.16299200057983398;1.1380159854888916;0.061250001192092896;0.3149999976158142;0.4243749976158142
1139;0.0;0.0;0.0;0.18055999279022217;-0.13566400110721588;1.1497279405593872;0.0;0.0;0.0
1141;0.0;0.0;0.0;0.19617599248886108;-0.13566400110721588;1.1292319297790527;0.0;0.0;0.0
1143;0.0;0.0;0.0;0.18836799263954163;-0.15518400073051453;1.1419199705123901;0.0;0.0;0.0
1145;0.08344800025224686;-0.020739998668432236;0.9906399846076965;0.18836799263954163;-0.16299200057983398;1.1536319255828857;0.12687499821186066;0.17500001192092896;0.49000000953674316
1147;0.0;0.0;0.0;0.2000799924135208;-0.17080000042915344;1.1370400190353394;0.0;0.0;0.0
1149;0.0;0.0;0.0;0.18836799263954163;-0.1512800008058548;1.156559944152832;0.0;0.0;0.0
1151;0.0;0.0;0.0;0.20398399233818054;-0.17470400035381317;1.148751974105835;0.0;0.0;0.0
1154;0.08540000021457672;-0.019763998687267303;0.9891759753227234;0.20788799226284027;-0.15908800065517426;1.148751974105835;0.05687499791383743;0.17500001192092896;0.3500000238418579
1156;0.0;0.0;0.0;0.19617599248886108;-0.14737600088119507;1.1526559591293335;0.0;0.0;0.0
1158;0.0;0.0;0.0;0.18836799263954163;-0.1668960005044937;1.132159948348999;0.0;0.0;0.0
1160;0.0;0.0;0.0;0.1844639927148819;-0.1239520013332367;1.132159948348999;0.0;0.0;0.0
1162;0.0849120020866394;-0.02000799961388111;0.9894199967384338;0.18055999279022217;-0.16299200057983398;1.140944004058838;0.05687499791383743;0.3149999976158142;0.42000001668930054
1164;0.0;0.0;0.0;0.18836799263954163;-0.15908800065517426;1.1448479890823364;0.0;0.0;0.0
1166;0.0;0.0;0.0;0.20788799226284027;-0.1512800008058548;1.140944004058838;0.0;0.0;0.0
1168;0.0;0.0;0.0;0.20788799226284027;-0.17080000042915344;1.1448479890823364;0.0;0.0;0.0
1171;0.08466799557209015;-0.020495999604463577;0.98990797996521;0.2000799924135208;-0.1668960005044937;1.1448479890823364;0.05687499791383743;0.31062498688697815;0.4856249988079071
1173;0.0;0.0;0.0;0.18836799263954163;-0.1512800008058548;1.140944004058838;0.0;0.0;0.0
1175;0.0;0.0;0.0;0.1844639927148819;-0.16299200057983398;1.1360639333724976;0.0;0.0;0.0
1177;0.0;0.0;0.0;0.18055999279022217;-0.14737600088119507;1.1370400190353394;0.0;0.0;0.0
1179;0.08344800025224686;-0.02000799961388111;0.9896639585494995;0.20398399233818054;-0.1668960005044937;1.1448479890823364;0.05687499791383743;0.24062499403953552;0.4156250059604645
1181;0.0;0.0;0.0;0.19617599248886108;-0.15908800065517426;1.1282559633255005;0.0;0.0;0.0
1183;0.0;0.0;0.0;0.2000799924135208;-0.1512800008058548;1.1448479890823364;0.0;0.0;0.0
1185;0.0;0.0;0.0;0.20788799226284027;-0.1395680010318756;1.1370400190353394;0.0;0.0;0.0
1188;0.08466799557209015;-0.019519999623298645;0.9891759753227234;0.19227199256420135;-0.16299200057983398;1.148751974105835;0.05687499791383743;0.1706250011920929;0.4112499952316284
1190;0.0;0.0;0.0;0.17665599286556244;-0.17080000042915344;1.1448479890823364;0.0;0.0;0.0
1192;0.0;0.0;0.0;0.19617599248886108;-0.1512800008058548;1.148751974105835;0.0;0.0;0.0
1194;0.0;0.0;0.0;0.19227199256420135;-0.15518400073051453;1.148751974105835;0.0;0.0;0.0
1196;0.08540000021457672;-0.02000799961388111;0.9894199967384338;0.18055999279022217;-0.16299200057983398;1.1448479890823364;0.12687499821186066;0.1706250011920929;0.4112499952316284
1198;0.0;0.0;0.0;0.20398399233818054;-0.15908800065517426;1.156559944152832;0.0;0.0;0.0
1200;0.0;0.0;0.0;0.15323199331760406;-0.16299200057983398;1.140944004058838;0.0;0.0;0.0
1202;0.0;0.0;0.0;0.1844639927148819;-0.14347200095653534;1.1360639333724976;0.0;0.0;0.0
1205;0.08540000021457672;-0.02025200054049492;0.9889319539070129;0.17665599286556244;-0.17080000042915344;1.140944004058838;0.19687500596046448;0.16625000536441803;0.40687501430511475
1207;0.0;0.0;0.0;0.2000799924135208;-0.1512800008058548;1.132159948348999;0.0;0.0;0.0
1209;0.0;0.0;0.0;0.2000799924135208;-0.1668960005044937;1.1448479890823364;0.0;0.0;0.0
1211;0.0;0.0;0.0;0.1844639927148819;-0.1395680010318756;1.1282559633255005;0.0;0.0;0.0
1213;0.08588799834251404;-0.020495999604463577;0.98990797996521;0.21569599211215973;-0.14737600088119507;1.140944004058838;0.05687499791383743;0.16625000536441803;0.40687501430511475
1215;0.0;0.0;0.0;0.18836799263954163;-0.13566400110721588;1.165343999862671;0.0;0.0;0.0
1217;0.0;0.0;0.0;0.1727519929409027;-0.14347200095653534;1.140944004058838;0.0;0.0;0.0
1219;0.0;0.0;0.0;0.1844639927148819;-0.15518400073051453;1.1448479890823364;0.0;0.0;0.0
1222;0.08637599647045135;-0.02025200054049492;0.9894199967384338;0.20398399233818054;-0.13566400110721588;1.1282559633255005;0.05687499791383743;0.3062500059604645;0.4724999964237213
1224;0.0;0.0;0.0;0.21959999203681946;-0.1395680010318756;1.1448479890823364;0.0;0.0;0.0
1226;0.0;0.0;0.0;0.2117919921875;-0.15908800065517426;1.140944004058838;0.0;0.0;0.0
1228;0.0;0.0;0.0;0.1844639927148819;-0.1512800008058548;1.156559944152832;0.0;0.0;0.0
1230;0.08466799557209015;-0.02025200054049492;0.9906399846076965;0.16884799301624298;-0.17080000042915344;1.1526559591293335;0.05687499791383743;0.37187501788139343;0.4025000035762787
1232;0.0;0.0;0.0;0.16103999316692352;-0.14347200095653534;1.1448479890823364;0.0;0.0;0.0
1234;0.0;0.0;0.0;0.20398399233818054;-0.15518400073051453;1.156559944152832;0.0;0.0;0.0
1236;0.0;0.0;0.0;0.18836799263954163;-0.14737600088119507;1.1282559633255005;0.0;0.0;0.0
1239;0.08295999467372894;-0.02000799961388111;0.9911279678344727;0.19227199256420135;-0.1395680010318756;1.1604639291763306;-0.013125000521540642;0.3018749952316284;0.3981249928474426
1241;0.0;0.0;0.0;0.20398399233818054;-0.14347200095653534;1.1448479890823364;0.0;0.0;0.0
1243;0.0;0.0;0.0;0.20398399233818054;-0.15908800065517426;1.1526559591293335;0.0;0.0;0.0
1245;0.0;0.0;0.0;0.1844639927148819;-0.1512800008058548;1.140944004058838;0.0;0.0;0.0
1247;0.08417999744415283;-0.02000799961388111;0.9891759753227234;0.19227199256420135;-0.15518400073051453;1.1282559633255005;0.05250000208616257;0.02187500149011612;0.328125
1249;0.0;0.0;0.0;0.18836799263954163;-0.1239520013332367;1.1331360340118408;0.0;0.0;0.0
1251;0.0;0.0;0.0;0.19227199256420135;-0.15518400073051453;1.1292319297790527;0.0;0.0;0.0
1253;0.0;0.0;0.0;0.18055999279022217;-0.15518400073051453;1.1536319255828857;0.0;0.0;0.0
1256;0.0849120020866394;-0.02025200054049492;0.9889319539070129;0.17665599286556244;-0.14737600088119507;1.1663199663162231;0.12250000238418579;0.09187500178813934;0.39375001192092896
1258;0.0;0.0;0.0;0.19617599248886108;-0.15518400073051453;1.1253279447555542;0.0;0.0;0.0
1260;0.0;0.0;0.0;0.18055999279022217;-0.1512800008058548;1.1253279447555542;0.0;0.0;0.0
1262;0.0;0.0;0.0;0.2000799924135208;-0.16299200057983398;1.1370400190353394;0.0;0.0;0.0
1264;0.08564399927854538;-0.02000799961388111;0.9884439706802368;0.18055999279022217;-0.14737600088119507;1.1419199705123901;0.12250000238418579;0.16187500953674316;0.39375001192092896
1266;0.0;0.0;0.0;0.18055999279022217;-0.15908800065517426;1.1526559591293335;0.0;0.0;0.0
1268;0.0;0.0;0.0;0.2000799924135208;-0.17080000042915344;1.1526559591293335;0.0;0.0;0.0
1270;0.0;0.0;0.0;0.22740799188613892;-0.1395680010318756;1.1526559591293335;0.0;0.0;0.0
1273;0.08564399927854538;-0.02025200054049492;0.9891759753227234;0.19617599248886108;-0.14737600088119507;1.140944004058838;0.05250000208616257;0.22749999165534973;0.39375001192092896
1275;0.0;0.0;0.0;0.2000799924135208;-0.1512800008058548;1.148751974105835;0.0;0.0;0.0
1277;0.0;0.0;0.0;0.18055999279022217;-0.16299200057983398;1.140944004058838;0.0;0.0;0.0
1279;0.0;0.0;0.0;0.19617599248886108;-0.1668960005044937;1.140944004058838;0.0;0.0;0.0
1281;0.08515600115060806;-0.02000799961388111;0.9889319539070129;0.20398399233818054;-0.15908800065517426;1.132159948348999;0.05250000208616257;0.22749999165534973;0.3893750011920929
1283;0.0;0.0;0.0;0.2000799924135208;-0.16299200057983398;1.1292319297790527;0.0;0.0;0.0
1285;0.0;0.0;0.0;0.1571359932422638;-0.15908800065517426;1.1419199705123901;0.0;0.0;0.0
1287;0.0;0.0;0.0;0.21569599211215973;-0.1668960005044937;1.1458239555358887;0.0;0.0;0.0
1290;0.08466799557209015;-0.020739998668432236;0.9901520013809204;0.18836799263954163;-0.1512800008058548;1.1458239555358887;-0.017500000074505806;0.3675000071525574;0.3893750011920929
1292;0.0;0.0;0.0;0.17665599286556244;-0.17080000042915344;1.1292319297790527;0.0;0.0;0.0
1294;0.0;0.0;0.0;0.19617599248886108;-0.15908800065517426;1.1497279405593872;0.0;0.0;0.0
1296;0.0;0.0;0.0;0.20788799226284027;-0.15518400073051453;1.1458239555358887;0.0;0.0;0.0
1298;0.08344800025224686;-0.02122800052165985;0.9901520013809204;0.19227199256420135;-0.15518400073051453;1.1370400190353394;0.05250000208616257;0.2931250035762787;0.38499999046325684
1300;0.0;0.0;0.0;0.19227199256420135;-0.15908800065517426;1.1536319255828857;0.0;0.0;0.0
1302;0.0;0.0;0.0;0.2000799924135208;-0.1668960005044937;1.1458239555358887;0.0;0.0;0.0
1304;0.0;0.0;0.0;0.19617599248886108;-0.1395680010318756;1.1458239555358887;0.0;0.0;0.0
1307;0.08466799557209015;-0.020739998668432236;0.9894199967384338;0.16494399309158325;-0.17080000042915344;1.1575360298156738;0.1925000101327896;0.013124998658895493;0.38499999046325684
1309;0.0;0.0;0.0;0.21959999203681946;-0.15518400073051453;1.1575360298156738;0.0;0.0;0.0
1311;0.0;0.0;0.0;0.18836799263954163;-0.13176000118255615;1.1497279405593872;0.0;0.0;0.0
1313;0.0;0.0;0.0;0.18055999279022217;-0.1395680010318756;1.1614400148391724;0.0;0.0;0.0
1315;0.08588799834251404;-0.020495999604463577;0.9891759753227234;0.19227199256420135;-0.17470400035381317;1.1497279405593872;0.12250000238418579;0.08312499523162842;0.38062500953674316
1317;0.0;0.0;0.0;0.19227199256420135;-0.17080000042915344;1.132159948348999;0.0;0.0;0.0
1319;0.0;0.0;0.0;0.2000799924135208;-0.12785600125789642;1.148751974105835;0.0;0.0;0.0
1322;0.0;0.0;0.0;0.21959999203681946;-0.14347200095653534;1.140944004058838;0.0;0.0;0.0
1324;0.08540000021457672;-0.02025200054049492;0.9903959631919861;0.19617599248886108;-0.15518400073051453;1.1604639291763306;0.12250000238418579;0.22312499582767487;0.38062500953674316
1326;0.0;0.0;0.0;0.19227199256420135;-0.1786080002784729;1.1614400148391724;0.0;0.0;0.0
1328;0.0;0.0;0.0;0.20398399233818054;-0.14737600088119507;1.1526559591293335;0.0;0.0;0.0
1330;0.0;0.0;0.0;0.2000799924135208;-0.15908800065517426;1.124351978302002;0.0;0.0;0.0
1332;0.08564399927854538;-0.019763998687267303;0.9891759753227234;0.20788799226284027;-0.14737600088119507;1.1448479890823364;0.048124998807907104;0.22312499582767487;0.3762499988079071
1334;0.0;0.0;0.0;0.19617599248886108;-0.16299200057983398;1.1380159854888916;0.0;0.0;0.0
1336;0.0;0.0;0.0;0.21569599211215973;-0.14347200095653534;1.1292319297790527;0.0;0.0;0.0
1339;0.0;0.0;0.0;0.19617599248886108;-0.14347200095653534;1.1419199705123901;0.0;0.0;0.0
1341;0.08417999744415283;-0.02025200054049492;0.9901520013809204;0.2000799924135208;-0.1395680010318756;1.1253279447555542;0.048124998807907104;0.35875001549720764;0.3762499988079071
1343;0.0;0.0;0.0;0.2000799924135208;-0.1668960005044937;1.1497279405593872;0.0;0.0;0.0
1345;0.0;0.0;0.0;0.20788799226284027;-0.1512800008058548;1.1458239555358887;0.0;0.0;0.0
1347;0.0;0.0;0.0;0.21959999203681946;-0.1786080002784729;1.1614400148391724;0.0;0.0;0.0
1349;0.08393599838018417;-0.02025200054049492;0.9903959631919861;0.1727519929409027;-0.1668960005044937;1.1419199705123901;0.11812499910593033;0.2887499928474426;0.3762499988079071
1351;0.0;0.0;0.0;0.1844639927148819;-0.1668960005044937;1.1536319255828857;0.0;0.0;0.0
1353;0.0;0.0;0.0;0.19617599248886108;-0.14737600088119507;1.1370400190353394;0.0;0.0;0.0
1356;0.0;0.0;0.0;0.20398399233818054;-0.15908800065517426;1.1497279405593872;0.0;0.0;0.0
1358;0.08417999744415283;-0.02025200054049492;0.990884006023407;0.1844639927148819;-0.14737600088119507;1.1419199705123901;0.048124998807907104;0.14875000715255737;0.37187501788139343
1360;0.0;0.0;0.0;0.19227199256420135;-0.15908800065517426;1.1380159854888916;0.0;0.0;0.0
1362;0.0;0.0;0.0;0.19227199256420135;-0.1512800008058548;1.1292319297790527;0.0;0.0;0.0
1364;0.0;0.0;0.0;0.19617599248886108;-0.17080000042915344;1.1458239555358887;0.0;0.0;0.0
1366;0.08564399927854538;-0.019763998687267303;0.9894199967384338;0.19227199256420135;-0.1512800008058548;1.1419199705123901;0.11812499910593033;0.07874999940395355;0.37187501788139343
1368;0.0;0.0;0.0;0.19617599248886108;-0.14347200095653534;1.1741279363632202;0.0;0.0;0.0
1370;0.0;0.0;0.0;0.18055999279022217;-0.16299200057983398;1.1292319297790527;0.0;0.0;0.0
1373;0.0;0.0;0.0;0.2117919921875;-0.17080000042915344;1.1497279405593872;0.0;0.0;0.0
1375;0.0861319974064827;-0.02000799961388111;0.9889319539070129;0.16884799301624298;-0.12785600125789642;1.1419199705123901;0.11812499910593033;0.14875000715255737;0.3675000071525574
1377;0.0;0.0;0.0;0.2117919921875;-0.14347200095653534;1.1292319297790527;0.0;0.0;0.0
1379;0.0;0.0;0.0;0.20398399233818054;-0.1668960005044937;1.1458239555358887;0.0;0.0;0.0
1381;0.0;0.0;0.0;0.16494399309158325;-0.12004800140857697;1.1292319297790527;0.0;0.0;0.0
1383;0.08588799834251404;-0.019519999623298645;0.9896639585494995;0.20398399233818054;-0.1512800008058548;1.1497279405593872;-0.02187499962747097;0.21437500417232513;0.29750001430511475
1385;0.0;0.0;0.0;0.20788799226284027;-0.13176000118255615;1.1575360298156738;0.0;0.0;0.0
1387;0.0;0.0;0.0;0.20788799226284027;-0.15518400073051453;1.1458239555358887;0.0;0.0;0.0
1390;0.0;0.0;0.0;0.19617599248886108;-0.13566400110721588;1.1370400190353394;0.0;0.0;0.0
1392;0.08540000021457672;-0.019519999623298645;0.9894199967384338;0.19617599248886108;-0.1395680010318756;1.1536319255828857;0.11812499910593033;0.28437501192092896;0.3675000071525574
1394;0.0;0.0;0.0;0.19617599248886108;-0.13566400110721588;1.1331360340118408;0.0;0.0;0.0
1396;0.0;0.0;0.0;0.2000799924135208;-0.1395680010318756;1.1331360340118408;0.0;0.0;0.0
1398;0.0;0.0;0.0;0.2000799924135208;-0.1512800008058548;1.1614400148391724;0.0;0.0;0.0
1400;0.08637599647045135;-0.02025200054049492;0.98990797996521;0.2000799924135208;-0.1512800008058548;1.1331360340118408;0.048124998807907104;0.3543750047683716;0.3631250262260437
1402;0.0;0.0;0.0;0.1844639927148819;-0.13566400110721588;1.1458239555358887;0.0;0.0;0.0
1404;0.0;0.0;0.0;0.1844639927148819;-0.16299200057983398;1.1380159854888916;0.0;0.0;0.0
1407;0.0;0.0;0.0;0.1571359932422638;-0.18251200020313263;1.1497279405593872;0.0;0.0;0.0
1409;0.08442399650812149;-0.019519999623298645;0.990884006023407;0.21569599211215973;-0.1668960005044937;1.1214239597320557;0.048124998807907104;0.21000000834465027;0.3631250262260437
1411;0.0;0.0;0.0;0.19617599248886108;-0.16299200057983398;1.1458239555358887;0.0;0.0;0.0
1413;0.0;0.0;0.0;0.23131199181079865;-0.17470400035381317;1.1458239555358887;0.0;0.0;0.0
1415;0.0;0.0;0.0;0.19617599248886108;-0.15518400073051453;1.1497279405593872;0.0;0.0;0.0
1417;0.08442399650812149;-0.019763998687267303;0.9903959631919861;0.19227199256420135;-0.14737600088119507;1.1614400148391724;0.11812499910593033;0.14000001549720764;0.42875000834465027
1419;0.0;0.0;0.0;0.2117919921875;-0.14347200095653534;1.1663199663162231;0.0;0.0;0.0
1421;0.0;0.0;0.0;0.2117919921875;-0.14737600088119507;1.134112000465393;0.0;0.0;0.0
1424;0.0;0.0;0.0;0.2000799924135208;-0.1395680010318756;1.1497279405593872;0.0;0.0;0.0
1426;0.08515600115060806;-0.020495999604463577;0.9891759753227234;0.1844639927148819;-0.1512800008058548;1.1380159854888916;0.11812499910593033;0.07000000029802322;0.42875000834465027
1428;0.0;0.0;0.0;0.19617599248886108;-0.17080000042915344;1.1663199663162231;0.0;0.0;0.0
1430;0.0;0.0;0.0;0.18836799263954163;-0.14737600088119507;1.1575360298156738;0.0;0.0;0.0
1432;0.0;0.0;0.0;0.18836799263954163;-0.15908800065517426;1.1331360340118408;0.0;0.0;0.0
1434;0.0849120020866394;-0.020495999604463577;0.9891759753227234;0.2000799924135208;-0.1512800008058548;1.1331360340118408;0.11374999582767487;0.14000001549720764;0.3543750047683716
1436;0.0;0.0;0.0;0.19227199256420135;-0.13566400110721588;1.1360639333724976;0.0;0.0;0.0
1438;0.0;0.0;0.0;0.18055999279022217;-0.18641600012779236;1.156559944152832;0.0;0.0;0.0
1441;0.0;0.0;0.0;0.2117919921875;-0.16299200057983398;1.132159948348999;0.0;0.0;0.0
1443;0.08588799834251404;-0.02000799961388111;0.9896639585494995;0.20398399233818054;-0.1512800008058548;1.156559944152832;0.11374999582767487;0.21000000834465027;0.3543750047683716
1445;0.0;0.0;0.0;0.19617599248886108;-0.1512800008058548;1.1448479890823364;0.0;0.0;0.0
1447;0.0;0.0;0.0;0.2000799924135208;-0.17080000042915344;1.1370400190353394;0.0;0.0;0.0
1449;0.0;0.0;0.0;0.19227199256420135;-0.15908800065517426;1.132159948348999;0.0;0.0;0.0
1451;0.08515600115060806;-0.02000799961388111;0.9901520013809204;0.19617599248886108;-0.14347200095653534;1.140944004058838;0.04374999925494194;0.34562501311302185;0.3543750047683716
1454;0.0;0.0;0.0;0.19227199256420135;-0.16299200057983398;1.1370400190353394;0.0;0.0;0.0
1455;0.0;0.0;0.0;0.18836799263954163;-0.15908800065517426;1.1458239555358887;0.0;0.0;0.0
1458;0.0;0.0;0.0;0.19617599248886108;-0.18251200020313263;1.1419199705123901;0.0;0.0;0.0
1460;0.08442399650812149;-0.020495999604463577;0.9901520013809204;0.1844639927148819;-0.16299200057983398;1.1253279447555542;0.11374999582767487;0.27562499046325684;0.42000001668930054
1462;0.0;0.0;0.0;0.20398399233818054;-0.15518400073051453;1.1419199705123901;0.0;0.0;0.0
1464;0.0;0.0;0.0;0.20398399233818054;-0.15518400073051453;1.1175199747085571;0.0;0.0;0.0
1466;0.0;0.0;0.0;0.2000799924135208;-0.14347200095653534;1.1458239555358887;0.0;0.0;0.0
1468;0.08393599838018417;-0.019763998687267303;0.9894199967384338;0.19617599248886108;-0.1395680010318756;1.1419199705123901;0.04374999925494194;0.13562500476837158;0.3500000238418579
1471;0.0;0.0;0.0;0.20788799226284027;-0.12785600125789642;1.1292319297790527;0.0;0.0;0.0
1472;0.0;0.0;0.0;0.19227199256420135;-0.17470400035381317;1.1419199705123901;0.0;0.0;0.0
1475;0.0;0.0;0.0;0.16884799301624298;-0.15518400073051453;1.1536319255828857;0.0;0.0;0.0
1477;0.08466799557209015;-0.019763998687267303;0.9884439706802368;0.19617599248886108;-0.14347200095653534;1.1575360298156738;0.11374999582767487;0.06562499701976776;0.34562501311302185
1479;0.0;0.0;0.0;0.18836799263954163;-0.15908800065517426;1.1380159854888916;0.0;0.0;0.0
1481;0.0;0.0;0.0;0.19617599248886108;-0.15518400073051453;1.1292319297790527;0.0;0.0;0.0
1483;0.0;0.0;0.0;0.18836799263954163;-0.15908800065517426;1.1292319297790527;0.0;0.0;0.0
1485;0.0849120020866394;-0.020739998668432236;0.9891759753227234;0.19617599248886108;-0.1668960005044937;1.1419199705123901;0.11374999582767487;0.13562500476837158;0.34562501311302185
1488;0.0;0.0;0.0;0.20398399233818054;-0.1512800008058548;1.1497279405593872;0.0;0.0;0.0
1489;0.0;0.0;0.0;0.21959999203681946;-0.1786080002784729;1.1536319255828857;0.0;0.0;0.0
1492;0.0;0.0;0.0;0.2117919921875;-0.15908800065517426;1.1458239555358887;0.0;0.0;0.0
1494;0.08515600115060806;-0.02000799961388111;0.9896639585494995;0.2000799924135208;-0.15518400073051453;1.1331360340118408;0.04374999925494194;0.27125000953674316;0.3412500023841858
1496;0.0;0.0;0.0;0.18836799263954163;-0.15908800065517426;1.1458239555358887;0.0;0.0;0.0
1498;0.0;0.0;0.0;0.1844639927148819;-0.14737600088119507;1.1419199705123901;0.0;0.0;0.0
1500;0.0;0.0;0.0;0.19617599248886108;-0.14737600088119507;1.1458239555358887;0.0;0.0;0.0
1502;0.08466799557209015;-0.02025200054049492;0.9901520013809204;0.16494399309158325;-0.1239520013332367;1.1458239555358887;0.11374999582767487;0.27125000953674316;0.4112499952316284
1504;0.0;0.0;0.0;0.2000799924135208;-0.1512800008058548;1.124351978302002;0.0;0.0;0.0
1507;0.0;0.0;0.0;0.18055999279022217;-0.12004800140857697;1.165343999862671;0.0;0.0;0.0
1509;0.0;0.0;0.0;0.19617599248886108;-0.15908800065517426;1.1282559633255005;0.0;0.0;0.0
1511;0.08466799557209015;-0.020739998668432236;0.9896639585494995;0.1844639927148819;-0.15518400073051453;1.132159948348999;0.04374999925494194;0.3412500023841858;0.3412500023841858
1513;0.0;0.0;0.0;0.19227199256420135;-0.1668960005044937;1.132159948348999;0.0;0.0;0.0
1515;0.0;0.0;0.0;0.2000799924135208;-0.14737600088119507;1.1526559591293335;0.0;0.0;0.0
1517;0.0;0.0;0.0;0.1727519929409027;-0.1512800008058548;1.1370400190353394;0.0;0.0;0.0
1519;0.08344800025224686;-0.020739998668432236;0.98990797996521;0.19227199256420135;-0.15518400073051453;1.1448479890823364;0.109375;0.13125000894069672;0.3368750214576721
1522;0.0;0.0;0.0;0.19227199256420135;-0.15518400073051453;1.1419199705123901;0.0;0.0;0.0
1524;0.0;0.0;0.0;0.2000799924135208;-0.16299200057983398;1.1331360340118408;0.0;0.0;0.0
1526;0.0;0.0;0.0;0.18055999279022217;-0.15518400073051453;1.1331360340118408;0.0;0.0;0.0
1528;0.0849120020866394;-0.02025200054049492;0.9896639585494995;0.20398399233818054;-0.16299200057983398;1.1497279405593872;0.109375;0.05687499791383743;0.40687501430511475
1530;0.0;0.0;0.0;0.19227199256420135;-0.15518400073051453;1.1370400190353394;0.0;0.0;0.0
1532;0.0;0.0;0.0;0.1844639927148819;-0.13566400110721588;1.1663199663162231;0.0;0.0;0.0
1534;0.0;0.0;0.0;0.2000799924135208;-0.14737600088119507;1.1370400190353394;0.0;0.0;0.0
1536;0.08515600115060806;-0.02000799961388111;0.9894199967384338;0.19617599248886108;-0.17470400035381317;1.1536319255828857;0.039374999701976776;0.05687499791383743;0.33250001072883606
1539;0.0;0.0;0.0;0.2000799924135208;-0.17080000042915344;1.140944004058838;0.0;0.0;0.0
1541;0.0;0.0;0.0;0.20398399233818054;-0.1512800008058548;1.1370400190353394;0.0;0.0;0.0
1543;0.0;0.0;0.0;0.17665599286556244;-0.1395680010318756;1.148751974105835;0.0;0.0;0.0
1545;0.08588799834251404;-0.02025200054049492;0.9896639585494995;0.19227199256420135;-0.14347200095653534;1.156559944152832;0.039374999701976776;0.19687500596046448;0.33250001072883606
1547;0.0;0.0;0.0;0.1844639927148819;-0.1395680010318756;1.1526559591293335;0.0;0.0;0.0
1549;0.0;0.0;0.0;0.2000799924135208;-0.15518400073051453;1.1526559591293335;0.0;0.0;0.0
1551;0.0;0.0;0.0;0.21569599211215973;-0.1512800008058548;1.124351978302002;0.0;0.0;0.0
1553;0.08540000021457672;-0.019763998687267303;0.9894199967384338;0.18836799263954163;-0.1395680010318756;1.148751974105835;0.109375;0.3368750214576721;0.33250001072883606
1556;0.0;0.0;0.0;0.18836799263954163;-0.18641600012779236;1.1360639333724976;0.0;0.0;0.0
1558;0.0;0.0;0.0;0.2000799924135208;-0.17080000042915344;1.140944004058838;0.0;0.0;0.0
1560;0.0;0.0;0.0;0.2000799924135208;-0.1668960005044937;1.140944004058838;0.0;0.0;0.0
1562;0.0849120020866394;-0.02000799961388111;0.9894199967384338;0.1844639927148819;-0.1668960005044937;1.148751974105835;0.039374999701976776;0.2668749988079071;0.3981249928474426
1564;0.0;0.0;0.0;0.21569599211215973;-0.16299200057983398;1.1448479890823364;0.0;0.0;0.0
1566;0.0;0.0;0.0;0.18836799263954163;-0.1668960005044937;1.1370400190353394;0.0;0.0;0.0
1568;0.0;0.0;0.0;0.18055999279022217;-0.14737600088119507;1.156559944152832;0.0;0.0;0.0
1570;0.08417999744415283;-0.020983999595046043;0.990884006023407;0.19617599248886108;-0.14347200095653534;1.1204479932785034;0.039374999701976776;0.26249998807907104;0.328125
1573;0.0;0.0;0.0;0.1727519929409027;-0.18251200020313263;1.1458239555358887;0.0;0.0;0.0
1575;0.0;0.0;0.0;0.19617599248886108;-0.1512800008058548;1.1575360298156738;0.0;0.0;0.0
1577;0.0;0.0;0.0;0.19227199256420135;-0.14737600088119507;1.1458239555358887;0.0;0.0;0.0
1579;0.0849120020866394;-0.020495999604463577;0.98990797996521;0.19617599248886108;-0.1668960005044937;1.1292319297790527;0.109375;0.12250000983476639;0.2537500262260437
1581;0.0;0.0;0.0;0.21959999203681946;-0.18641600012779236;1.1331360340118408;0.0;0.0;0.0
1583;0.0;0.0;0.0;0.1844639927148819;-0.15908800065517426;1.1292319297790527;0.0;0.0;0.0
1585;0.0;0.0;0.0;0.18836799263954163;-0.14737600088119507;1.1458239555358887;0.0;0.0;0.0
1587;0.08564399927854538;-0.02025200054049492;0.9886879920959473;0.1727519929409027;-0.16299200057983398;1.1663199663162231;0.109375;0.05250000208616257;0.32375001907348633
1590;0.0;0.0;0.0;0.2000799924135208;-0.1668960005044937;1.1370400190353394;0.0;0.0;0.0
1592;0.0;0.0;0.0;0.2000799924135208;-0.1512800008058548;1.1360639333724976;0.0;0.0;0.0
1594;0.0;0.0;0.0;0.2000799924135208;-0.14737600088119507;1.1370400190353394;0.0;0.0;0.0
1596;0.08588799834251404;-0.020495999604463577;0.9896639585494995;0.20398399233818054;-0.15908800065517426;1.156559944152832;0.039374999701976776;0.19249999523162842;0.39375001192092896
1598;0.0;0.0;0.0;0.17665599286556244;-0.1668960005044937;1.156559944152832;0.0;0.0;0.0
1600;0.0;0.0;0.0;0.20398399233818054;-0.14347200095653534;1.1526559591293335;0.0;0.0;0.0
1602;0.0;0.0;0.0;0.19227199256420135;-0.16299200057983398;1.1526559591293335;0.0;0.0;0.0
1604;0.0849120020866394;-0.02025200054049492;0.9896639585494995;0.19227199256420135;-0.1512800008058548;1.132159948348999;0.039374999701976776;0.19249999523162842;0.3893750011920929
1607;0.0;0.0;0.0;0.2235039919614792;-0.17470400035381317;1.1419199705123901;0.0;0.0;0.0
1609;0.0;0.0;0.0;0.21569599211215973;-0.15908800065517426;1.1458239555358887;0.0;0.0;0.0
1611;0.0;0.0;0.0;0.2000799924135208;-0.15518400073051453;1.1458239555358887;0.0;0.0;0.0
1613;0.08540000021457672;-0.020739998668432236;0.98990797996521;0.20788799226284027;-0.1512800008058548;1.1419199705123901;0.039374999701976776;0.328125;0.31937500834465027
1615;0.0;0.0;0.0;0.19617599248886108;-0.16299200057983398;1.1331360340118408;0.0;0.0;0.0
1617;0.0;0.0;0.0;0.1844639927148819;-0.15908800065517426;1.1458239555358887;0.0;0.0;0.0
1619;0.0;0.0;0.0;0.21569599211215973;-0.17470400035381317;1.1380159854888916;0.0;0.0;0.0
1621;0.08393599838018417;-0.020495999604463577;0.9901520013809204;0.17665599286556244;-0.1395680010318756;1.1497279405593872;-0.030625000596046448;0.328125;0.31937500834465027
1624;0.0;0.0;0.0;0.17665599286556244;-0.17080000042915344;1.1419199705123901;0.0;0.0;0.0
1626;0.0;0.0;0.0;0.17665599286556244;-0.15518400073051453;1.1419199705123901;0.0;0.0;0.0
1628;0.0;0.0;0.0;0.18836799263954163;-0.1395680010318756;1.1380159854888916;0.0;0.0;0.0
1630;0.08417999744415283;-0.020495999604463577;0.9894199967384338;0.19617599248886108;-0.17080000042915344;1.1331360340118408;-0.030625000596046448;0.18812499940395355;0.3149999976158142
1632;0.0;0.0;0.0;0.1844639927148819;-0.14347200095653534;1.1458239555358887;0.0;0.0;0.0
1634;0.0;0.0;0.0;0.20398399233818054;-0.17080000042915344;1.1497279405593872;0.0;0.0;0.0
1636;0.0;0.0;0.0;0.20398399233818054;-0.14737600088119507;1.1380159854888916;0.0;0.0;0.0
1638;0.08588799834251404;-0.020495999604463577;0.990884006023407;0.18836799263954163;-0.15518400073051453;1.1458239555358887;0.109375;0.048124998807907104;0.38499999046325684
1641;0.0;0.0;0.0;0.18055999279022217;-0.1512800008058548;1.1536319255828857;0.0;0.0;0.0
1643;0.0;0.0;0.0;0.1844639927148819;-0.1512800008058548;1.1458239555358887;0.0;0.0;0.0
1645;0.0;0.0;0.0;0.20788799226284027;-0.15518400073051453;1.1370400190353394;0.0;0.0;0.0
1647;0.08515600115060806;-0.02025200054049492;0.9891759753227234;0.18836799263954163;-0.1668960005044937;1.1380159854888916;0.17500001192092896;0.11375001072883606;0.31062501668930054
1649;0.0;0.0;0.0;0.18836799263954163;-0.14737600088119507;1.1497279405593872;0.0;0.0;0.0
1651;0.0;0.0;0.0;0.1844639927148819;-0.15518400073051453;1.1458239555358887;0.0;0.0;0.0
1653;0.0;0.0;0.0;0.19227199256420135;-0.14347200095653534;1.1331360340118408;0.0;0.0;0.0
1655;0.08588799834251404;-0.02000799961388111;0.9896639585494995;0.2117919921875;-0.14737600088119507;1.1575360298156738;0.03500000014901161;0.11375001072883606;0.31062501668930054
1658;0.0;0.0;0.0;0.19227199256420135;-0.16299200057983398;1.1458239555358887;0.0;0.0;0.0
1660;0.0;0.0;0.0;0.2000799924135208;-0.17470400035381317;1.1458239555358887;0.0;0.0;0.0
1662;0.0;0.0;0.0;0.16884799301624298;-0.16299200057983398;1.1292319297790527;0.0;0.0;0.0
1664;0.0849120020866394;-0.02025200054049492;0.9896639585494995;0.1571359932422638;-0.15518400073051453;1.1458239555358887;0.03500000014901161;0.1837500035762787;0.31062501668930054
1666;0.0;0.0;0.0;0.19227199256420135;-0.15518400073051453;1.1380159854888916;0.0;0.0;0.0
1668;0.0;0.0;0.0;0.1727519929409027;-0.1395680010318756;1.1331360340118408;0.0;0.0;0.0
1670;0.0;0.0;0.0;0.16884799301624298;-0.17080000042915344;1.1458239555358887;0.0;0.0;0.0
1672;0.0849120020866394;-0.020983999595046043;0.9891759753227234;0.19227199256420135;-0.15908800065517426;1.1497279405593872;0.10500000417232513;0.2537499964237213;0.3062500059604645
1675;0.0;0.0;0.0;0.20788799226284027;-0.1786080002784729;1.148751974105835;0.0;0.0;0.0
1677;0.0;0.0;0.0;0.2000799924135208;-0.15908800065517426;1.1370400190353394;0.0;0.0;0.0
1679;0.0;0.0;0.0;0.18055999279022217;-0.13566400110721588;1.1370400190353394;0.0;0.0;0.0
1681;0.08417999744415283;-0.020739998668432236;0.9901520013809204;0.1844639927148819;-0.1395680010318756;1.1526559591293335;0.03500000014901161;0.1837500035762787;0.3762499988079071
1683;0.0;0.0;0.0;0.19227199256420135;-0.1668960005044937;1.148751974105835;0.0;0.0;0.0
1685;0.0;0.0;0.0;0.20398399233818054;-0.15908800065517426;1.1360639333724976;0.0;0.0;0.0
1687;0.0;0.0;0.0;0.17665599286556244;-0.13176000118255615;1.1360639333724976;0.0;0.0;0.0
1689;0.0849120020866394;-0.02025200054049492;0.9891759753227234;0.19617599248886108;-0.15908800065517426;1.1448479890823364;0.10500000417232513;0.1093750074505806;0.3062500059604645
1692;0.0;0.0;0.0;0.18348799645900726;-0.1542080044746399;1.1624159812927246;0.0;0.0;0.0
1694;0.0;0.0;0.0;0.19129599630832672;-0.15811198949813843;1.1380159854888916;0.0;0.0;0.0
1696;0.0;0.0;0.0;0.2147199958562851;-0.15811198949813843;1.1741279363632202;0.0;0.0;0.0
1698;0.08564399927854538;-0.02000799961388111;0.9896639585494995;0.19910399615764618;-0.15811198949813843;1.1214239597320557;0.10500000417232513;0.1093750074505806;0.3018749952316284
1700;0.0;0.0;0.0;0.21081599593162537;-0.15030398964881897;1.1292319297790527;0.0;0.0;0.0
1702;0.0;0.0;0.0;0.2147199958562851;-0.15030398964881897;1.1536319255828857;0.0;0.0;0.0
1704;0.0;0.0;0.0;0.20691199600696564;-0.15030398964881897;1.1214239597320557;0.0;0.0;0.0
1706;0.08540000021457672;-0.019519999623298645;0.9896639585494995;0.17958399653434753;-0.14640000462532043;1.1497279405593872;0.10500000417232513;0.1093750074505806;0.3018749952316284
1709;0.0;0.0;0.0;0.18836799263954163;-0.14347200095653534;1.124351978302002;0.0;0.0;0.0
1711;0.0;0.0;0.0;0.19617599248886108;-0.14347200095653534;1.1526559591293335;0.0;0.0;0.0
1713;0.0;0.0;0.0;0.2000799924135208;-0.14347200095653534;1.1448479890823364;0.0;0.0;0.0
1715;0.08588799834251404;-0.02000799961388111;0.9896639585494995;0.18055999279022217;-0.16299200057983398;1.140944004058838;0.03500000014901161;0.24937498569488525;0.29750001430511475
1717;0.0;0.0;0.0;0.2000799924135208;-0.1668960005044937;1.156559944152832;0.0;0.0;0.0
1719;0.0;0.0;0.0;0.2000799924135208;-0.15518400073051453;1.140944004058838;0.0;0.0;0.0
1721;0.0;0.0;0.0;0.19227199256420135;-0.14347200095653534;1.1526559591293335;0.0;0.0;0.0
1723;0.08515600115060806;-0.02000799961388111;0.9896639585494995;0.20398399233818054;-0.1668960005044937;1.1370400190353394;0.03500000014901161;0.24937498569488525;0.3675000071525574
1726;0.0;0.0;0.0;0.2117919921875;-0.15908800065517426;1.1419199705123901;0.0;0.0;0.0
1728;0.0;0.0;0.0;0.19227199256420135;-0.1668960005044937;1.1536319255828857;0.0;0.0;0.0
1730;0.0;0.0;0.0;0.19617599248886108;-0.17080000042915344;1.1331360340118408;0.0;0.0;0.0
1732;0.08369199931621552;-0.02122800052165985;0.9906399846076965;0.1844639927148819;-0.1512800008058548;1.1458239555358887;0.03500000014901161;0.2449999898672104;0.29750001430511475
1734;0.0;0.0;0.0;0.18055999279022217;-0.1668960005044937;1.1331360340118408;0.0;0.0;0.0
1736;0.0;0.0;0.0;0.18836799263954163;-0.12785600125789642;1.1419199705123901;0.0;0.0;0.0
1738;0.0;0.0;0.0;0.16494399309158325;-0.16299200057983398;1.1497279405593872;0.0;0.0;0.0
1740;0.08442399650812149;-0.020495999604463577;0.9891759753227234;0.18836799263954163;-0.14737600088119507;1.1331360340118408;0.10500000417232513;0.10500000417232513;0.2931250035762787
1743;0.0;0.0;0.0;0.20788799226284027;-0.1395680010318756;1.1214239597320557;0.0;0.0;0.0
1745;0.0;0.0;0.0;0.18055999279022217;-0.15518400073051453;1.1458239555358887;0.0;0.0;0.0
1747;0.0;0.0;0.0;0.20788799226284027;-0.15518400073051453;1.1663199663162231;0.0;0.0;0.0
1749;0.08564399927854538;-0.02025200054049492;0.9886879920959473;0.2000799924135208;-0.16299200057983398;1.1536319255828857;0.1706250011920929;0.034999996423721313;0.3631249964237213
1751;0.0;0.0;0.0;0.19617599248886108;-0.1512800008058548;1.1419199705123901;0.0;0.0;0.0
1753;0.0;0.0;0.0;0.20398399233818054;-0.1668960005044937;1.1458239555358887;0.0;0.0;0.0
1755;0.0;0.0;0.0;0.20788799226284027;-0.13176000118255615;1.1380159854888916;0.0;0.0;0.0
1757;0.0849120020866394;-0.019763998687267303;0.9891759753227234;0.19227199256420135;-0.1512800008058548;1.1331360340118408;0.030625000596046448;0.10500000417232513;0.3631249964237213
1760;0.0;0.0;0.0;0.18836799263954163;-0.17470400035381317;1.1360639333724976;0.0;0.0;0.0
1762;0.0;0.0;0.0;0.19617599248886108;-0.17080000042915344;1.1370400190353394;0.0;0.0;0.0
1764;0.0;0.0;0.0;0.18836799263954163;-0.1512800008058548;1.1370400190353394;0.0;0.0;0.0
1766;0.08540000021457672;-0.019763998687267303;0.9886879920959473;0.2391199916601181;-0.16299200057983398;1.148751974105835;0.030625000596046448;0.17499999701976776;0.2887499928474426
1768;0.0;0.0;0.0;0.21569599211215973;-0.14347200095653534;1.124351978302002;0.0;0.0;0.0
1770;0.0;0.0;0.0;0.19617599248886108;-0.1395680010318756;1.132159948348999;0.0;0.0;0.0
1772;0.0;0.0;0.0;0.19617599248886108;-0.14347200095653534;1.1526559591293335;0.0;0.0;0.0
1774;0.08540000021457672;-0.02000799961388111;0.9896639585494995;0.16103999316692352;-0.14737600088119507;1.1526559591293335;0.10062500089406967;0.3149999976158142;0.2887499928474426
1777;0.0;0.0;0.0;0.18055999279022217;-0.14737600088119507;1.140944004058838;0.0;0.0;0.0
1779;0.0;0.0;0.0;0.1844639927148819;-0.15518400073051453;1.140944004058838;0.0;0.0;0.0
1781;0.0;0.0;0.0;0.18055999279022217;-0.17080000042915344;1.1370400190353394;0.0;0.0;0.0
1783;0.08417999744415283;-0.020739998668432236;0.98990797996521;0.16103999316692352;-0.16299200057983398;1.1282559633255005;0.030625000596046448;0.31062501668930054;0.3543750047683716
1785;0.0;0.0;0.0;0.18055999279022217;-0.15908800065517426;1.132159948348999;0.0;0.0;0.0
1787;0.0;0.0;0.0;0.20788799226284027;-0.16299200057983398;1.1526559591293335;0.0;0.0;0.0
1789;0.0;0.0;0.0;0.18836799263954163;-0.16299200057983398;1.140944004058838;0.0;0.0;0.0
1791;0.08369199931621552;-0.020495999604463577;0.990884006023407;0.19227199256420135;-0.15908800065517426;1.1204479932785034;0.030625000596046448;0.1706250011920929;0.3543750047683716
1794;0.0;0.0;0.0;0.2000799924135208;-0.1512800008058548;1.1448479890823364;0.0;0.0;0.0
1796;0.0;0.0;0.0;0.1727519929409027;-0.1512800008058548;1.148751974105835;0.0;0.0;0.0
1798;0.0;0.0;0.0;0.16103999316692352;-0.13566400110721588;1.1448479890823364;0.0;0.0;0.0
1800;0.08442399650812149;-0.02000799961388111;0.9906399846076965;0.20398399233818054;-0.13176000118255615;1.140944004058838;0.030625000596046448;0.030625000596046448;0.28437501192092896
1802;0.0;0.0;0.0;0.19227199256420135;-0.1239520013332367;1.1360639333724976;0.0;0.0;0.0
1804;0.0;0.0;0.0;0.18836799263954163;-0.15518400073051453;1.148751974105835;0.0;0.0;0.0
1806;0.0;0.0;0.0;0.1844639927148819;-0.14737600088119507;1.1370400190353394;0.0;0.0;0.0
1808;0.08540000021457672;-0.02000799961388111;0.9889319539070129;0.19617599248886108;-0.15908800065517426;1.148751974105835;0.10062500089406967;0.1706250011920929;0.21000000834465027
1811;0.0;0.0;0.0;0.16884799301624298;-0.1668960005044937;1.1458239555358887;0.0;0.0;0.0
1813;0.0;0.0;0.0;0.19227199256420135;-0.1512800008058548;1.1458239555358887;0.0;0.0;0.0
1815;0.0;0.0;0.0;0.20398399233818054;-0.1668960005044937;1.1253279447555542;0.0;0.0;0.0
1817;0.08515600115060806;-0.02000799961388111;0.9901520013809204;0.20398399233818054;-0.15908800065517426;1.1419199705123901;0.10062500089406967;0.1706250011920929;0.2800000011920929
1819;0.0;0.0;0.0;0.20788799226284027;-0.17080000042915344;1.1458239555358887;0.0;0.0;0.0
1821;0.0;0.0;0.0;0.18836799263954163;-0.12785600125789642;1.1380159854888916;0.0;0.0;0.0
1823;0.0;0.0;0.0;0.16884799301624298;-0.15908800065517426;1.1380159854888916;0.0;0.0;0.0
1825;0.0861319974064827;-0.02000799961388111;0.9896639585494995;0.1844639927148819;-0.15908800065517426;1.1292319297790527;0.10062500089406967;0.16624999046325684;0.2800000011920929
1828;0.0;0.0;0.0;0.1727519929409027;-0.15518400073051453;1.1497279405593872;0.0;0.0;0.0
1830;0.0;0.0;0.0;0.1844639927148819;-0.16299200057983398;1.1292319297790527;0.0;0.0;0.0
1832;0.0;0.0;0.0;0.19617599248886108;-0.16299200057983398;1.1458239555358887;0.0;0.0;0.0
1834;0.08564399927854538;-0.02000799961388111;0.9891759753227234;0.18055999279022217;-0.1395680010318756;1.1497279405593872;0.10062500089406967;0.23624998331069946;0.2800000011920929
1836;0.0;0.0;0.0;0.20398399233818054;-0.15908800065517426;1.1614400148391724;0.0;0.0;0.0
1838;0.0;0.0;0.0;0.18836799263954163;-0.15518400073051453;1.1380159854888916;0.0;0.0;0.0
1840;0.0;0.0;0.0;0.19617599248886108;-0.14737600088119507;1.1458239555358887;0.0;0.0;0.0
1843;0.0849120020866394;-0.020495999604463577;0.9901520013809204;0.18055999279022217;-0.15518400073051453;1.1331360340118408;0.030625000596046448;0.3062500059604645;0.27562499046325684
1845;0.0;0.0;0.0;0.2000799924135208;-0.14347200095653534;1.132159948348999;0.0;0.0;0.0
1847;0.0;0.0;0.0;0.19227199256420135;-0.1668960005044937;1.1526559591293335;0.0;0.0;0.0
1849;0.0;0.0;0.0;0.1844639927148819;-0.15518400073051453;1.132159948348999;0.0;0.0;0.0
1851;0.08393599838018417;-0.020495999604463577;0.9903959631919861;0.19227199256420135;-0.14737600088119507;1.148751974105835;0.030625000596046448;0.23624998331069946;0.27562499046325684
1853;0.0;0.0;0.0;0.1844639927148819;-0.1395680010318756;1.148751974105835;0.0;0.0;0.0
1855;0.0;0.0;0.0;0.19227199256420135;-0.14737600088119507;1.1448479890823364;0.0;0.0;0.0
1857;0.0;0.0;0.0;0.1844639927148819;-0.15518400073051453;1.1604639291763306;0.0;0.0;0.0
1860;0.08442399650812149;-0.02025200054049492;0.98990797996521;0.2000799924135208;-0.18641600012779236;1.1448479890823364;0.09624999761581421;0.09187500923871994;0.27562499046325684
1862;0.0;0.0;0.0;0.18055999279022217;-0.15518400073051453;1.1536319255828857;0.0;0.0;0.0
1864;0.0;0.0;0.0;0.19227199256420135;-0.17080000042915344;1.1497279405593872;0.0;0.0;0.0
1866;0.0;0.0;0.0;0.17665599286556244;-0.15908800065517426;1.1458239555358887;0.0;0.0;0.0
1868;0.08515600115060806;-0.02025200054049492;0.98990797996521;0.1844639927148819;-0.12785600125789642;1.1702239513397217;0.09624999761581421;0.09187500923871994;0.27125000953674316
1870;0.0;0.0;0.0;0.18836799263954163;-0.16299200057983398;1.1614400148391724;0.0;0.0;0.0
1872;0.0;0.0;0.0;0.22740799188613892;-0.15518400073051453;1.1292319297790527;0.0;0.0;0.0
1874;0.0;0.0;0.0;0.1727519929409027;-0.15518400073051453;1.1458239555358887;0.0;0.0;0.0
1877;0.08515600115060806;-0.02025200054049492;0.9901520013809204;0.18836799263954163;-0.17080000042915344;1.1214239597320557;0.09624999761581421;0.09187500923871994;0.27125000953674316
1879;0.0;0.0;0.0;0.20788799226284027;-0.14737600088119507;1.156559944152832;0.0;0.0;0.0
1881;0.0;0.0;0.0;0.20788799226284027;-0.14737600088119507;1.140944004058838;0.0;0.0;0.0
1883;0.0;0.0;0.0;0.19227199256420135;-0.15908800065517426;1.1448479890823364;0.0;0.0;0.0
1885;0.08564399927854538;-0.019763998687267303;0.9901520013809204;0.17665599286556244;-0.1512800008058548;1.124351978302002;0.09624999761581421;0.16187500953674316;0.27125000953674316
1887;0.0;0.0;0.0;0.20788799226284027;-0.1512800008058548;1.148751974105835;0.0;0.0;0.0
1889;0.0;0.0;0.0;0.20398399233818054;-0.15908800065517426;1.124351978302002;0.0;0.0;0.0
1891;0.0;0.0;0.0;0.17665599286556244;-0.1512800008058548;1.148751974105835;0.0;0.0;0.0
1894;0.0849120020866394;-0.02000799961388111;0.98990797996521;0.19617599248886108;-0.14737600088119507;1.124351978302002;0.026250001043081284;0.16187500953674316;0.2668750286102295
1896;0.0;0.0;0.0;0.19227199256420135;-0.17080000042915344;1.1292319297790527;0.0;0.0;0.0
1898;0.0;0.0;0.0;0.16103999316692352;-0.1786080002784729;1.1292319297790527;0.0;0.0;0.0
1900;0.0;0.0;0.0;0.19617599248886108;-0.15518400073051453;1.1419199705123901;0.0;0.0;0.0
1902;0.08515600115060806;-0.020739998668432236;0.9903959631919861;0.20398399233818054;-0.17080000042915344;1.1380159854888916;0.026250001043081284;0.2318750023841858;0.2668750286102295
1904;0.0;0.0;0.0;0.19617599248886108;-0.15908800065517426;1.1253279447555542;0.0;0.0;0.0
1906;0.0;0.0;0.0;0.1727519929409027;-0.15908800065517426;1.1370400190353394;0.0;0.0;0.0
1908;0.0;0.0;0.0;0.18055999279022217;-0.17080000042915344;1.1497279405593872;0.0;0.0;0.0
1911;0.08442399650812149;-0.02000799961388111;0.9903959631919861;0.1844639927148819;-0.1668960005044937;1.1497279405593872;0.09624999761581421;0.1574999988079071;0.2668750286102295
1913;0.0;0.0;0.0;0.17665599286556244;-0.13566400110721588;1.1380159854888916;0.0;0.0;0.0
1915;0.0;0.0;0.0;0.19617599248886108;-0.15518400073051453;1.1292319297790527;0.0;0.0;0.0
1917;0.0;0.0;0.0;0.2117919921875;-0.15908800065517426;1.1497279405593872;0.0;0.0;0.0
1919;0.08417999744415283;-0.019519999623298645;0.98990797996521;0.19617599248886108;-0.1395680010318756;1.1458239555358887;0.026250001043081284;0.08750000596046448;0.26249998807907104
1921;0.0;0.0;0.0;0.2117919921875;-0.1668960005044937;1.1380159854888916;0.0;0.0;0.0
1923;0.0;0.0;0.0;0.2117919921875;-0.14347200095653534;1.1497279405593872;0.0;0.0;0.0
1925;0.0;0.0;0.0;0.21569599211215973;-0.17080000042915344;1.1253279447555542;0.0;0.0;0.0
1928;0.08515600115060806;-0.019763998687267303;0.9889319539070129;0.18055999279022217;-0.15518400073051453;1.1292319297790527;0.09624999761581421;0.08750000596046448;0.26249998807907104
1930;0.0;0.0;0.0;0.2000799924135208;-0.15518400073051453;1.1419199705123901;0.0;0.0;0.0
1932;0.0;0.0;0.0;0.19617599248886108;-0.1512800008058548;1.1497279405593872;0.0;0.0;0.0
1934;0.0;0.0;0.0;0.18836799263954163;-0.14347200095653534;1.1536319255828857;0.0;0.0;0.0
1936;0.08540000021457672;-0.019763998687267303;0.9891759753227234;0.20788799226284027;-0.1668960005044937;1.1331360340118408;0.09624999761581421;0.1574999988079071;0.26249998807907104
1938;0.0;0.0;0.0;0.2000799924135208;-0.1668960005044937;1.1458239555358887;0.0;0.0;0.0
1940;0.0;0.0;0.0;0.19227199256420135;-0.13566400110721588;1.1380159854888916;0.0;0.0;0.0
1942;0.0;0.0;0.0;0.19227199256420135;-0.1395680010318756;1.1370400190353394;0.0;0.0;0.0
1945;0.08515600115060806;-0.02025200054049492;0.9894199967384338;0.1844639927148819;-0.1668960005044937;1.1536319255828857;0.026250001043081284;0.1574999988079071;0.26249998807907104
1947;0.0;0.0;0.0;0.19617599248886108;-0.15908800065517426;1.1458239555358887;0.0;0.0;0.0
1949;0.0;0.0;0.0;0.19227199256420135;-0.15908800065517426;1.1380159854888916;0.0;0.0;0.0
1951;0.0;0.0;0.0;0.18836799263954163;-0.15518400073051453;1.1497279405593872;0.0;0.0;0.0
1953;0.08540000021457672;-0.02025200054049492;0.9894199967384338;0.18836799263954163;-0.1786080002784729;1.1458239555358887;0.026250001043081284;0.22749999165534973;0.2581250071525574
1955;0.0;0.0;0.0;0.23131199181079865;-0.1512800008058548;1.1458239555358887;0.0;0.0;0.0
1957;0.0;0.0;0.0;0.1844639927148819;-0.1239520013332367;1.1419199705123901;0.0;0.0;0.0
1959;0.0;0.0;0.0;0.18055999279022217;-0.16299200057983398;1.1663199663162231;0.0;0.0;0.0
1962;0.08442399650812149;-0.02000799961388111;0.9903959631919861;0.20398399233818054;-0.1668960005044937;1.1331360340118408;0.026250001043081284;0.15312500298023224;0.2581250071525574
1964;0.0;0.0;0.0;0.21569599211215973;-0.1668960005044937;1.1497279405593872;0.0;0.0;0.0
1966;0.0;0.0;0.0;0.1844639927148819;-0.16299200057983398;1.1419199705123901;0.0;0.0;0.0
1968;0.0;0.0;0.0;0.19617599248886108;-0.14347200095653534;1.1331360340118408;0.0;0.0;0.0
1970;0.08466799557209015;-0.02000799961388111;0.98990797996521;0.2000799924135208;-0.14737600088119507;1.1458239555358887;0.09624999761581421;0.08312501013278961;0.2581250071525574
1972;0.0;0.0;0.0;0.16884799301624298;-0.15908800065517426;1.1536319255828857;0.0;0.0;0.0
1974;0.0;0.0;0.0;0.19227199256420135;-0.15908800065517426;1.1292319297790527;0.0;0.0;0.0
1976;0.0;0.0;0.0;0.20398399233818054;-0.14737600088119507;1.1370400190353394;0.0;0.0;0.0
1979;0.0861319974064827;-0.020495999604463577;0.9894199967384338;0.17665599286556244;-0.17080000042915344;1.1419199705123901;0.09187500178813934;0.08312501013278961;0.2537500262260437
1981;0.0;0.0;0.0;0.1844639927148819;-0.15518400073051453;1.1663199663162231;0.0;0.0;0.0
1983;0.0;0.0;0.0;0.18055999279022217;-0.15518400073051453;1.1380159854888916;0.0;0.0;0.0
1985;0.0;0.0;0.0;0.1844639927148819;-0.13176000118255615;1.1380159854888916;0.0;0.0;0.0
1987;0.08515600115060806;-0.020495999604463577;0.9889319539070129;0.1844639927148819;-0.1395680010318756;1.1419199705123901;0.02187500149011612;0.08312501013278961;0.32375001907348633
1989;0.0;0.0;0.0;0.2000799924135208;-0.15518400073051453;1.1253279447555542;0.0;0.0;0.0
1991;0.0;0.0;0.0;0.23131199181079865;-0.1239520013332367;1.1536319255828857;0.0;0.0;0.0
1993;0.0;0.0;0.0;0.18836799263954163;-0.16299200057983398;1.1575360298156738;0.0;0.0;0.0
1996;0.0861319974064827;-0.02025200054049492;0.9886879920959473;0.18836799263954163;-0.1668960005044937;1.1370400190353394;0.09187500178813934;0.15312500298023224;0.2537500262260437
1998;0.0;0.0;0.0;0.2000799924135208;-0.14737600088119507;1.1419199705123901;0.0;0.0;0.0
2000;0.0;0.0;0.0;0.2000799924135208;-0.16299200057983398;1.1497279405593872;0.0;0.0;0.0
2002;0.0;0.0;0.0;0.18836799263954163;-0.1395680010318756;1.1292319297790527;0.0;0.0;0.0
2004;0.08540000021457672;-0.02000799961388111;0.9889319539070129;0.2000799924135208;-0.13566400110721588;1.1253279447555542;0.02187500149011612;0.22312499582767487;0.18375001847743988
2006;0.0;0.0;0.0;0.2000799924135208;-0.1512800008058548;1.1458239555358887;0.0;0.0;0.0
2008;0.0;0.0;0.0;0.20788799226284027;-0.14737600088119507;1.1458239555358887;0.0;0.0;0.0
2011;0.0;0.0;0.0;0.19227199256420135;-0.1786080002784729;1.1419199705123901;0.0;0.0;0.0
2013;0.08540000021457672;-0.02025200054049492;0.9894199967384338;0.19227199256420135;-0.14737600088119507;1.1497279405593872;0.02187500149011612;0.288750022649765;0.24937501549720764
2015;0.0;0.0;0.0;0.1844639927148819;-0.17080000042915344;1.1536319255828857;0.0;0.0;0.0
2017;0.0;0.0;0.0;0.2000799924135208;-0.15518400073051453;1.1419199705123901;0.0;0.0;0.0
2019;0.0;0.0;0.0;0.20398399233818054;-0.17080000042915344;1.1497279405593872;0.0;0.0;0.0
2021;0.08417999744415283;-0.02025200054049492;0.9901520013809204;0.1844639927148819;-0.14347200095653534;1.1458239555358887;0.02187500149011612;0.21875;0.24937501549720764
2023;0.0;0.0;0.0;0.18836799263954163;-0.14737600088119507;1.1331360340118408;0.0;0.0;0.0
2025;0.0;0.0;0.0;0.19227199256420135;-0.1512800008058548;1.1458239555358887;0.0;0.0;0.0
2028;0.0;0.0;0.0;0.19227199256420135;-0.17080000042915344;1.1575360298156738;0.0;0.0;0.0
2030;0.08417999744415283;-0.02000799961388111;0.9916160106658936;0.2000799924135208;-0.15908800065517426;1.1175199747085571;0.09187500178813934;0.07875001430511475;0.24937501549720764
2032;0.0;0.0;0.0;0.18055999279022217;-0.1668960005044937;1.1331360340118408;0.0;0.0;0.0
2034;0.0;0.0;0.0;0.2117919921875;-0.1668960005044937;1.1419199705123901;0.0;0.0;0.0
2036;0.0;0.0;0.0;0.21569599211215973;-0.14347200095653534;1.1331360340118408;0.0;0.0;0.0
2038;0.08466799557209015;-0.020495999604463577;0.9896639585494995;0.1844639927148819;-0.1668960005044937;1.1253279447555542;0.16187500953674316;-0.0612499937415123;0.24500000476837158
2041;0.0;0.0;0.0;0.19227199256420135;-0.1668960005044937;1.1536319255828857;0.0;0.0;0.0
2042;0.0;0.0;0.0;0.20788799226284027;-0.14347200095653534;1.1497279405593872;0.0;0.0;0.0
2045;0.0;0.0;0.0;0.20398399233818054;-0.18251200020313263;1.1458239555358887;0.0;0.0;0.0
2047;0.08540000021457672;-0.020495999604463577;0.9891759753227234;0.18836799263954163;-0.15908800065517426;1.1253279447555542;0.16187500953674316;-0.0612499937415123;0.24500000476837158
2049;0.0;0.0;0.0;0.17665599286556244;-0.1395680010318756;1.1536319255828857;0.0;0.0;0.0
2051;0.0;0.0;0.0;0.18055999279022217;-0.17080000042915344;1.1419199705123901;0.0;0.0;0.0
2053;0.0;0.0;0.0;0.20398399233818054;-0.16299200057983398;1.1175199747085571;0.0;0.0;0.0
2055;0.08564399927854538;-0.02000799961388111;0.9889319539070129;0.16494399309158325;-0.14737600088119507;1.1419199705123901;0.09187500178813934;0.07875001430511475;0.24500000476837158
2057;0.0;0.0;0.0;0.2117919921875;-0.15518400073051453;1.1331360340118408;0.0;0.0;0.0
2059;0.0;0.0;0.0;0.20398399233818054;-0.16299200057983398;1.1370400190353394;0.0;0.0;0.0
2062;0.0;0.0;0.0;0.19227199256420135;-0.14737600088119507;1.1370400190353394;0.0;0.0;0.0
2064;0.0861319974064827;-0.02000799961388111;0.9889319539070129;0.18836799263954163;-0.17080000042915344;1.1536319255828857;-0.048124998807907104;0.21875;0.24500000476837158
2066;0.0;0.0;0.0;0.19617599248886108;-0.17080000042915344;1.132159948348999;0.0;0.0;0.0
2068;0.0;0.0;0.0;0.20398399233818054;-0.1668960005044937;1.1448479890823364;0.0;0.0;0.0
2070;0.0;0.0;0.0;0.1727519929409027;-0.1395680010318756;1.140944004058838;0.0;0.0;0.0
2072;0.08588799834251404;-0.020739998668432236;0.98990797996521;0.2000799924135208;-0.1786080002784729;1.148751974105835;-0.048124998807907104;0.3543750047683716;0.24062500894069672
2074;0.0;0.0;0.0;0.20398399233818054;-0.16299200057983398;1.148751974105835;0.0;0.0;0.0
2076;0.0;0.0;0.0;0.2000799924135208;-0.1395680010318756;1.1448479890823364;0.0;0.0;0.0
2079;0.0;0.0;0.0;0.18055999279022217;-0.17470400035381317;1.140944004058838;0.0;0.0;0.0
2081;0.0832040011882782;-0.020739998668432236;0.990884006023407;0.19617599248886108;-0.1512800008058548;1.1448479890823364;0.02187500149011612;0.28437501192092896;0.24062500894069672
2083;0.0;0.0;0.0;0.1844639927148819;-0.15908800065517426;1.1497279405593872;0.0;0.0;0.0
2085;0.0;0.0;0.0;0.16103999316692352;-0.17080000042915344;1.1614400148391724;0.0;0.0;0.0
2087;0.0;0.0;0.0;0.2117919921875;-0.1395680010318756;1.1380159854888916;0.0;0.0;0.0
2089;0.08393599838018417;-0.020739998668432236;0.9903959631919861;0.2000799924135208;-0.14737600088119507;1.1380159854888916;0.16187500953674316;0.004374995827674866;0.24062500894069672
2091;0.0;0.0;0.0;0.20788799226284027;-0.1512800008058548;1.1292319297790527;0.0;0.0;0.0
2093;0.0;0.0;0.0;0.20398399233818054;-0.17080000042915344;1.1497279405593872;0.0;0.0;0.0
2096;0.0;0.0;0.0;0.16884799301624298;-0.16299200057983398;1.1380159854888916;0.0;0.0;0.0
2098;0.08540000021457672;-0.019519999623298645;0.9894199967384338;0.18836799263954163;-0.13566400110721588;1.1331360340118408;0.1574999988079071;-0.06562500447034836;0.23625001311302185
2100;0.0;0.0;0.0;0.18836799263954163;-0.1668960005044937;1.1331360340118408;0.0;0.0;0.0
2102;0.0;0.0;0.0;0.19617599248886108;-0.15908800065517426;1.1702239513397217;0.0;0.0;0.0
2104;0.0;0.0;0.0;0.20398399233818054;-0.17470400035381317;1.1497279405593872;0.0;0.0;0.0
2106;0.08515600115060806;-0.019763998687267303;0.9896639585494995;0.19617599248886108;-0.15518400073051453;1.1380159854888916;0.08749999850988388;0.004374995827674866;0.23625001311302185
2108;0.0;0.0;0.0;0.19227199256420135;-0.14347200095653534;1.1497279405593872;0.0;0.0;0.0
2110;0.0;0.0;0.0;0.17665599286556244;-0.16299200057983398;1.1497279405593872;0.0;0.0;0.0
2113;0.0;0.0;0.0;0.1844639927148819;-0.15518400073051453;1.1536319255828857;0.0;0.0;0.0
2115;0.08515600115060806;-0.02000799961388111;0.9889319539070129;0.18836799263954163;-0.16299200057983398;1.1497279405593872;0.017499998211860657;0.07437500357627869;0.23625001311302185
2117;0.0;0.0;0.0;0.18836799263954163;-0.15518400073051453;1.1419199705123901;0.0;0.0;0.0
2119;0.0;0.0;0.0;0.2000799924135208;-0.1668960005044937;1.1292319297790527;0.0;0.0;0.0
2121;0.0;0.0;0.0;0.19227199256420135;-0.1668960005044937;1.1331360340118408;0.0;0.0;0.0
2123;0.08637599647045135;-0.019763998687267303;0.9886879920959473;0.1844639927148819;-0.13176000118255615;1.1458239555358887;0.017499998211860657;0.1443749964237213;0.23625001311302185
2125;0.0;0.0;0.0;0.20398399233818054;-0.1786080002784729;1.1536319255828857;0.0;0.0;0.0
2127;0.0;0.0;0.0;0.20788799226284027;-0.14737600088119507;1.1458239555358887;0.0;0.0;0.0
2130;0.0;0.0;0.0;0.20398399233818054;-0.16299200057983398;1.1380159854888916;0.0;0.0;0.0
2132;0.08564399927854538;-0.02000799961388111;0.9896639585494995;0.18836799263954163;-0.15518400073051453;1.1458239555358887;0.017499998211860657;0.3543750047683716;0.2318750023841858
2134;0.0;0.0;0.0;0.2000799924135208;-0.15518400073051453;1.1380159854888916;0.0;0.0;0.0
2136;0.0;0.0;0.0;0.1727519929409027;-0.16299200057983398;1.1536319255828857;0.0;0.0;0.0
2138;0.0;0.0;0.0;0.19227199256420135;-0.15518400073051453;1.1497279405593872;0.0;0.0;0.0
2140;0.08344800025224686;-0.020739998668432236;0.9918599724769592;0.17665599286556244;-0.1668960005044937;1.1419199705123901;0.017499998211860657;0.2800000309944153;0.3018749952316284
2142;0.0;0.0;0.0;0.18836799263954163;-0.16299200057983398;1.1331360340118408;0.0;0.0;0.0
2144;0.0;0.0;0.0;0.2000799924135208;-0.16299200057983398;1.1497279405593872;0.0;0.0;0.0
2147;0.0;0.0;0.0;0.16494399309158325;-0.1395680010318756;1.1380159854888916;0.0;0.0;0.0
2149;0.08442399650812149;-0.020495999604463577;0.9896639585494995;0.1844639927148819;-0.13566400110721588;1.1536319255828857;0.08749999850988388;0.0;0.3018749952316284
2151;0.0;0.0;0.0;0.20788799226284027;-0.16299200057983398;1.1575360298156738;0.0;0.0;0.0
2153;0.0;0.0;0.0;0.20788799226284027;-0.15908800065517426;1.1458239555358887;0.0;0.0;0.0
2155;0.0;0.0;0.0;0.20398399233818054;-0.18251200020313263;1.1458239555358887;0.0;0.0;0.0
2157;0.08588799834251404;-0.02000799961388111;0.9882000088691711;0.18836799263954163;-0.1668960005044937;1.1331360340118408;0.08749999850988388;0.0;0.1575000286102295
2160;0.0;0.0;0.0;0.20398399233818054;-0.14737600088119507;1.1536319255828857;0.0;0.0;0.0
2161;0.0;0.0;0.0;0.22740799188613892;-0.1668960005044937;1.1380159854888916;0.0;0.0;0.0
2164;0.0;0.0;0.0;0.1844639927148819;-0.13176000118255615;1.1331360340118408;0.0;0.0;0.0
2166;0.08466799557209015;-0.02000799961388111;0.9884439706802368;0.17665599286556244;-0.18641600012779236;1.1497279405593872;0.08749999850988388;0.07000000774860382;0.22750002145767212
2168;0.0;0.0;0.0;0.18055999279022217;-0.14737600088119507;1.1282559633255005;0.0;0.0;0.0
2170;0.0;0.0;0.0;0.2000799924135208;-0.15908800065517426;1.1370400190353394;0.0;0.0;0.0
2172;0.0;0.0;0.0;0.16884799301624298;-0.15518400073051453;1.132159948348999;0.0;0.0;0.0
2174;0.08540000021457672;-0.02000799961388111;0.98990797996521;0.19617599248886108;-0.14737600088119507;1.1282559633255005;0.017499998211860657;0.14000000059604645;0.22750002145767212
2176;0.0;0.0;0.0;0.19617599248886108;-0.15908800065517426;1.140944004058838;0.0;0.0;0.0
2179;0.0;0.0;0.0;0.19227199256420135;-0.1512800008058548;1.1614400148391724;0.0;0.0;0.0
2181;0.0;0.0;0.0;0.16884799301624298;-0.14347200095653534;1.156559944152832;0.0;0.0;0.0
2183;0.08515600115060806;-0.02025200054049492;0.9894199967384338;0.19227199256420135;-0.1512800008058548;1.148751974105835;0.017499998211860657;0.2800000309944153;0.22750002145767212
2185;0.0;0.0;0.0;0.18836799263954163;-0.14347200095653534;1.148751974105835;0.0;0.0;0.0
2187;0.0;0.0;0.0;0.16494399309158325;-0.15518400073051453;1.165343999862671;0.0;0.0;0.0
2189;0.0;0.0;0.0;0.19617599248886108;-0.16299200057983398;1.1204479932785034;0.0;0.0;0.0
2191;0.08417999744415283;-0.02025200054049492;0.990884006023407;0.19227199256420135;-0.1395680010318756;1.140944004058838;-0.05250000208616257;0.2056249976158142;0.22312501072883606
2194;0.0;0.0;0.0;0.1844639927148819;-0.17080000042915344;1.140944004058838;0.0;0.0;0.0
2196;0.0;0.0;0.0;0.17665599286556244;-0.15518400073051453;1.1604639291763306;0.0;0.0;0.0
2198;0.0;0.0;0.0;0.18836799263954163;-0.14737600088119507;1.148751974105835;0.0;0.0;0.0
2200;0.0832040011882782;-0.020983999595046043;0.9913719892501831;0.2117919921875;-0.17080000042915344;1.132159948348999;0.08749999850988388;0.06562501192092896;0.22312501072883606
2202;0.0;0.0;0.0;0.18836799263954163;-0.15518400073051453;1.1253279447555542;0.0;0.0;0.0
2204;0.0;0.0;0.0;0.2000799924135208;-0.17470400035381317;1.1292319297790527;0.0;0.0;0.0
2206;0.0;0.0;0.0;0.17665599286556244;-0.17470400035381317;1.1380159854888916;0.0;0.0;0.0
2208;0.0849120020866394;-0.02000799961388111;0.9882000088691711;0.19227199256420135;-0.16299200057983398;1.1497279405593872;0.08749999850988388;-0.07437499612569809;0.22312501072883606
2211;0.0;0.0;0.0;0.18836799263954163;-0.14737600088119507;1.1292319297790527;0.0;0.0;0.0
2213;0.0;0.0;0.0;0.19617599248886108;-0.16299200057983398;1.1663199663162231;0.0;0.0;0.0
2215;0.0;0.0;0.0;0.19617599248886108;-0.18251200020313263;1.1497279405593872;0.0;0.0;0.0
2217;0.08564399927854538;-0.02025200054049492;0.98990797996521;0.19227199256420135;-0.15518400073051453;1.1253279447555542;0.1574999988079071;-0.07000000029802322;0.22312501072883606
2219;0.0;0.0;0.0;0.20398399233818054;-0.16299200057983398;1.1497279405593872;0.0;0.0;0.0
2221;0.0;0.0;0.0;0.19617599248886108;-0.13566400110721588;1.1292319297790527;0.0;0.0;0.0
2223;0.0;0.0;0.0;0.20788799226284027;-0.14737600088119507;1.1380159854888916;0.0;0.0;0.0
2225;0.08515600115060806;-0.02025200054049492;0.9886879920959473;0.1844639927148819;-0.17080000042915344;1.1380159854888916;0.08749999850988388;0.13562500476837158;0.21875
2228;0.0;0.0;0.0;0.2000799924135208;-0.1395680010318756;1.1331360340118408;0.0;0.0;0.0
2230;0.0;0.0;0.0;0.20788799226284027;-0.14737600088119507;1.1624159812927246;0.0;0.0;0.0
2232;0.0;0.0;0.0;0.2000799924135208;-0.1668960005044937;1.1292319297790527;0.0;0.0;0.0
2234;0.08540000021457672;-0.019763998687267303;0.9896639585494995;0.17665599286556244;-0.12785600125789642;1.1458239555358887;0.08312499523162842;0.2056249976158142;0.2887499928474426
2236;0.0;0.0;0.0;0.18055999279022217;-0.15908800065517426;1.1458239555358887;0.0;0.0;0.0
2238;0.0;0.0;0.0;0.19227199256420135;-0.1512800008058548;1.1458239555358887;0.0;0.0;0.0
2240;0.0;0.0;0.0;0.20398399233818054;-0.1786080002784729;1.1419199705123901;0.0;0.0;0.0
2242;0.08515600115060806;-0.019519999623298645;0.9891759753227234;0.18055999279022217;-0.14737600088119507;1.1575360298156738;-0.05250000208616257;0.2756250202655792;0.21875
2245;0.0;0.0;0.0;0.20398399233818054;-0.16299200057983398;1.1458239555358887;0.0;0.0;0.0
2247;0.0;0.0;0.0;0.20398399233818054;-0.1395680010318756;1.1380159854888916;0.0;0.0;0.0
2249;0.0;0.0;0.0;0.1844639927148819;-0.15518400073051453;1.1458239555358887;0.0;0.0;0.0
2251;0.08369199931621552;-0.02025200054049492;0.9906399846076965;0.1727519929409027;-0.17080000042915344;1.1419199705123901;0.08312499523162842;0.2056249976158142;0.21875
2253;0.0;0.0;0.0;0.19227199256420135;-0.1668960005044937;1.1292319297790527;0.0;0.0;0.0
2255;0.0;0.0;0.0;0.2117919921875;-0.14347200095653534;1.1497279405593872;0.0;0.0;0.0
2257;0.0;0.0;0.0;0.17665599286556244;-0.1512800008058548;1.1331360340118408;0.0;0.0;0.0
2259;0.08344800025224686;-0.02025200054049492;0.9906399846076965;0.1844639927148819;-0.16299200057983398;1.1497279405593872;0.08312499523162842;0.13124999403953552;0.21437501907348633
2262;0.0;0.0;0.0;0.1844639927148819;-0.14737600088119507;1.1497279405593872;0.0;0.0;0.0
2264;0.0;0.0;0.0;0.16494399309158325;-0.1903200000524521;1.1458239555358887;0.0;0.0;0.0
2266;0.0;0.0;0.0;0.18055999279022217;-0.15908800065517426;1.1419199705123901;0.0;0.0;0.0
2268;0.08466799557209015;-0.02000799961388111;0.98990797996521;0.19617599248886108;-0.17470400035381317;1.1253279447555542;0.08312499523162842;-0.008750006556510925;0.21437501907348633
2270;0.0;0.0;0.0;0.1727519929409027;-0.15908800065517426;1.1331360340118408;0.0;0.0;0.0
2272;0.0;0.0;0.0;0.16884799301624298;-0.1395680010318756;1.1419199705123901;0.0;0.0;0.0
2274;0.0;0.0;0.0;0.2000799924135208;-0.16299200057983398;1.1419199705123901;0.0;0.0;0.0
2276;0.08540000021457672;-0.020495999604463577;0.9891759753227234;0.20398399233818054;-0.16299200057983398;1.1575360298156738;0.15312500298023224;0.061250001192092896;0.21437501907348633
2279;0.0;0.0;0.0;0.2000799924135208;-0.14347200095653534;1.1419199705123901;0.0;0.0;0.0
2281;0.0;0.0;0.0;0.19617599248886108;-0.1512800008058548;1.1331360340118408;0.0;0.0;0.0
2283;0.0;0.0;0.0;0.2000799924135208;-0.14737600088119507;1.1497279405593872;0.0;0.0;0.0
2285;0.08588799834251404;-0.02000799961388111;0.9894199967384338;0.2000799924135208;-0.15518400073051453;1.1624159812927246;0.013124998658895493;0.061250001192092896;0.21437501907348633
2287;0.0;0.0;0.0;0.21569599211215973;-0.1668960005044937;1.148751974105835;0.0;0.0;0.0
2289;0.0;0.0;0.0;0.20788799226284027;-0.17080000042915344;1.1526559591293335;0.0;0.0;0.0
2291;0.0;0.0;0.0;0.18055999279022217;-0.1395680010318756;1.1282559633255005;0.0;0.0;0.0
2293;0.08564399927854538;-0.019763998687267303;0.9896639585494995;0.18836799263954163;-0.1512800008058548;1.156559944152832;0.013124998658895493;0.20124998688697815;0.21000000834465027
2296;0.0;0.0;0.0;0.1844639927148819;-0.17080000042915344;1.132159948348999;0.0;0.0;0.0
2298;0.0;0.0;0.0;0.2235039919614792;-0.1512800008058548;1.1526559591293335;0.0;0.0;0.0
2300;0.0;0.0;0.0;0.20788799226284027;-0.15518400073051453;1.1448479890823364;0.0;0.0;0.0
2302;0.08564399927854538;-0.02025200054049492;0.9896639585494995;0.20398399233818054;-0.17080000042915344;1.1448479890823364;-0.05687500163912773;0.27125000953674316;0.21000000834465027
2304;0.0;0.0;0.0;0.18836799263954163;-0.15518400073051453;1.1526559591293335;0.0;0.0;0.0
2306;0.0;0.0;0.0;0.18836799263954163;-0.15908800065517426;1.148751974105835;0.0;0.0;0.0
2308;0.0;0.0;0.0;0.17665599286556244;-0.1668960005044937;1.1282559633255005;0.0;0.0;0.0
2310;0.08466799557209015;-0.020739998668432236;0.9903959631919861;0.2000799924135208;-0.14737600088119507;1.156559944152832;0.013124998658895493;0.20124998688697815;0.21000000834465027
2313;0.0;0.0;0.0;0.1727519929409027;-0.15908800065517426;1.140944004058838;0.0;0.0;0.0
2315;0.0;0.0;0.0;0.18836799263954163;-0.15518400073051453;1.1204479932785034;0.0;0.0;0.0
2317;0.0;0.0;0.0;0.2000799924135208;-0.1512800008058548;1.140944004058838;0.0;0.0;0.0
2319;0.08442399650812149;-0.02025200054049492;0.9911279678344727;0.18055999279022217;-0.16299200057983398;1.1282559633255005;0.013124998658895493;0.061250001192092896;0.21000000834465027
2321;0.0;0.0;0.0;0.18836799263954163;-0.1512800008058548;1.1536319255828857;0.0;0.0;0.0
2323;0.0;0.0;0.0;0.18836799263954163;-0.1668960005044937;1.1419199705123901;0.0;0.0;0.0
2325;0.0;0.0;0.0;0.18836799263954163;-0.17080000042915344;1.1136159896850586;0.0;0.0;0.0
2327;0.08540000021457672;-0.020495999604463577;0.9903959631919861;0.18836799263954163;-0.13176000118255615;1.1497279405593872;0.08312499523162842;-0.008750006556510925;0.27562499046325684
2330;0.0;0.0;0.0;0.1844639927148819;-0.17080000042915344;1.1419199705123901;0.0;0.0;0.0
2332;0.0;0.0;0.0;0.19227199256420135;-0.1668960005044937;1.1380159854888916;0.0;0.0;0.0
2334;0.0;0.0;0.0;0.18055999279022217;-0.17470400035381317;1.1380159854888916;0.0;0.0;0.0
2336;0.08515600115060806;-0.02025200054049492;0.9896639585494995;0.19227199256420135;-0.1512800008058548;1.1214239597320557;0.08312499523162842;0.05687500536441803;0.2056249976158142
2338;0.0;0.0;0.0;0.16494399309158325;-0.1395680010318756;1.1458239555358887;0.0;0.0;0.0
2340;0.0;0.0;0.0;0.21569599211215973;-0.15518400073051453;1.1419199705123901;0.0;0.0;0.0
2342;0.0;0.0;0.0;0.2117919921875;-0.1512800008058548;1.1419199705123901;0.0;0.0;0.0
2344;0.08588799834251404;-0.019763998687267303;0.9894199967384338;0.2000799924135208;-0.13566400110721588;1.1497279405593872;0.013124998658895493;0.12687499821186066;0.2056249976158142
2347;0.0;0.0;0.0;0.19227199256420135;-0.18251200020313263;1.1253279447555542;0.0;0.0;0.0
2349;0.0;0.0;0.0;0.1844639927148819;-0.16299200057983398;1.1536319255828857;0.0;0.0;0.0
