Timestamp(ms);LG-Accel x(g);LG-Accel y(g);LG-Accel z(g);HG-Accel x(g);HG-Accel y(g);HG-Accel z(g);Gyro x(dps);Gyro y(dps);Gyro z(dps)
67;0.0;0.0;0.0;0.17080000042915344;-0.16201600432395935;1.1380159854888916;0.0;0.0;0.0
70;0.0;0.0;0.0;0.1903200000524521;-0.15030398964881897;1.1428959369659424;0.0;0.0;0.0
72;0.0;0.0;0.0;0.18641600012779236;-0.1542080044746399;1.1136159896850586;0.0;0.0;0.0
74;0.0;0.0;0.0;0.19422399997711182;-0.1542080044746399;1.1389919519424438;0.0;0.0;0.0
76;0.0;0.0;0.0;0.187391996383667;-0.14640000462532043;1.1672959327697754;0.0;0.0;0.0
78;0.0;0.0;0.0;0.1815359890460968;-0.1786080002784729;1.124351978302002;0.0;0.0;0.0
80;0.0;0.0;0.0;0.21276798844337463;-0.15518400073051453;1.148751974105835;0.0;0.0;0.0
82;0.0;0.0;0.0;0.19715198874473572;-0.17470400035381317;1.165343999862671;0.0;0.0;0.0
84;0.08466799557209015;-0.020495999604463577;0.9894199967384338;0.19715198874473572;-0.15908800065517426;1.140944004058838;0.0;0.0;0.0
87;0.0;0.0;0.0;0.16201600432395935;-0.1668960005044937;1.1692479848861694;0.0;0.0;0.0
89;0.0;0.0;0.0;0.18544000387191772;-0.13566400110721588;1.132159948348999;0.0;0.0;0.0
91;0.0;0.0;0.0;0.20495998859405518;-0.15518400073051453;1.148751974105835;0.0;0.0;0.0
93;0.08417999744415283;-0.020983999595046043;0.9896639585494995;0.18934398889541626;-0.16299200057983398;1.1604639291763306;0.0;0.0;0.0
95;0.0;0.0;0.0;0.21276798844337463;-0.1512800008058548;1.1370400190353394;0.0;0.0;0.0
97;0.0;0.0;0.0;0.22448000311851501;-0.14737600088119507;1.140944004058838;0.0;0.0;0.0
99;0.0;0.0;0.0;0.18934398889541626;-0.17080000042915344;1.148751974105835;0.0;0.0;0.0
101;0.08540000021457672;-0.02025200054049492;0.9889319539070129;0.1815359890460968;-0.16299200057983398;1.140944004058838;0.0;0.0;0.0
104;0.0;0.0;0.0;0.20495998859405518;-0.14737600088119507;1.1370400190353394;0.0;0.0;0.0
106;0.0;0.0;0.0;0.19324800372123718;-0.1395680010318756;1.1204479932785034;0.0;0.0;0.0
108;0.0;0.0;0.0;0.20105600357055664;-0.15908800065517426;1.132159948348999;0.0;0.0;0.0
110;0.0861319974064827;-0.020739998668432236;0.9896639585494995;0.19715198874473572;-0.13566400110721588;1.1282559633255005;0.0;0.0;0.0
112;0.0;0.0;0.0;0.19324800372123718;-0.15518400073051453;1.156559944152832;0.0;0.0;0.0
114;0.0;0.0;0.0;0.18934398889541626;-0.17080000042915344;1.140944004058838;0.0;0.0;0.0
116;0.0;0.0;0.0;0.18544000387191772;-0.13176000118255615;1.148751974105835;0.0;0.0;0.0
118;0.08295999467372894;-0.020739998668432236;0.9901520013809204;0.2088640034198761;-0.1512800008058548;1.1526559591293335;0.0;0.0;0.0
121;0.0;0.0;0.0;0.20105600357055664;-0.1512800008058548;1.1526559591293335;0.0;0.0;0.0
123;0.0;0.0;0.0;0.20105600357055664;-0.14347200095653534;1.140944004058838;0.0;0.0;0.0
125;0.0;0.0;0.0;0.19324800372123718;-0.17080000042915344;1.132159948348999;0.0;0.0;0.0
127;0.08344800025224686;-0.02025200054049492;0.9894199967384338;0.19324800372123718;-0.1786080002784729;1.1526559591293335;0.14000000059604645;0.21000000834465027;0.49000000953674316
129;0.0;0.0;0.0;0.2117919921875;-0.1395680010318756;1.140944004058838;0.0;0.0;0.0
131;0.0;0.0;0.0;0.1727519929409027;-0.1512800008058548;1.1526559591293335;0.0;0.0;0.0
133;0.0;0.0;0.0;0.21959999203681946;-0.15518400073051453;1.1526559591293335;0.0;0.0;0.0
135;0.08515600115060806;-0.019519999623298645;0.9889319539070129;0.1844639927148819;-0.1512800008058548;1.165343999862671;0.14000000059604645;0.14000000059604645;0.49000000953674316
138;0.0;0.0;0.0;0.20398399233818054;-0.1395680010318756;1.140944004058838;0.0;0.0;0.0
140;0.0;0.0;0.0;0.16884799301624298;-0.1239520013332367;1.1282559633255005;0.0;0.0;0.0
142;0.0;0.0;0.0;0.1844639927148819;-0.15908800065517426;1.132159948348999;0.0;0.0;0.0
144;0.08515600115060806;-0.02025200054049492;0.9891759753227234;0.19227199256420135;-0.15518400073051453;1.1370400190353394;0.14000000059604645;0.3499999940395355;0.5600000023841858
146;0.0;0.0;0.0;0.1844639927148819;-0.1512800008058548;1.1282559633255005;0.0;0.0;0.0
148;0.0;0.0;0.0;0.18055999279022217;-0.1239520013332367;1.1448479890823364;0.0;0.0;0.0
150;0.0;0.0;0.0;0.2117919921875;-0.13566400110721588;1.148751974105835;0.0;0.0;0.0
152;0.08417999744415283;-0.02025200054049492;0.9894199967384338;0.19617599248886108;-0.1512800008058548;1.1448479890823364;0.07000000029802322;0.3499999940395355;0.49000000953674316
155;0.0;0.0;0.0;0.17665599286556244;-0.1512800008058548;1.156559944152832;0.0;0.0;0.0
157;0.0;0.0;0.0;0.19227199256420135;-0.15518400073051453;1.148751974105835;0.0;0.0;0.0
159;0.0;0.0;0.0;0.20398399233818054;-0.17080000042915344;1.148751974105835;0.0;0.0;0.0
161;0.08393599838018417;-0.020983999595046043;0.9896639585494995;0.19617599248886108;-0.13566400110721588;1.1360639333724976;0.14000000059604645;0.21000000834465027;0.5600000023841858
163;0.0;0.0;0.0;0.2000799924135208;-0.15908800065517426;1.1204479932785034;0.0;0.0;0.0
165;0.0;0.0;0.0;0.19227199256420135;-0.1512800008058548;1.140944004058838;0.0;0.0;0.0
167;0.0;0.0;0.0;0.1844639927148819;-0.16299200057983398;1.1604639291763306;0.0;0.0;0.0
170;0.08442399650812149;-0.020495999604463577;0.9894199967384338;0.1727519929409027;-0.15518400073051453;1.1448479890823364;0.14000000059604645;0.21000000834465027;0.5600000023841858
172;0.0;0.0;0.0;0.18055999279022217;-0.14347200095653534;1.124351978302002;0.0;0.0;0.0
174;0.0;0.0;0.0;0.19617599248886108;-0.1512800008058548;1.1360639333724976;0.0;0.0;0.0
176;0.0;0.0;0.0;0.21569599211215973;-0.15908800065517426;1.140944004058838;0.0;0.0;0.0
178;0.08588799834251404;-0.02000799961388111;0.9896639585494995;0.18836799263954163;-0.1903200000524521;1.1526559591293335;0.07000000029802322;0.2800000011920929;0.49000000953674316
180;0.0;0.0;0.0;0.19227199256420135;-0.1668960005044937;1.173151969909668;0.0;0.0;0.0
182;0.0;0.0;0.0;0.20398399233818054;-0.1512800008058548;1.1604639291763306;0.0;0.0;0.0
184;0.0;0.0;0.0;0.19227199256420135;-0.16299200057983398;1.1370400190353394;0.0;0.0;0.0
187;0.08540000021457672;-0.02025200054049492;0.9891759753227234;0.17665599286556244;-0.16299200057983398;1.132159948348999;0.07000000029802322;0.3499999940395355;0.49000000953674316
189;0.0;0.0;0.0;0.1844639927148819;-0.1512800008058548;1.132159948348999;0.0;0.0;0.0
191;0.0;0.0;0.0;0.19227199256420135;-0.13566400110721588;1.1614400148391724;0.0;0.0;0.0
193;0.0;0.0;0.0;0.18055999279022217;-0.15908800065517426;1.124351978302002;0.0;0.0;0.0
195;0.0849120020866394;-0.020495999604463577;0.9891759753227234;0.21959999203681946;-0.14347200095653534;1.148751974105835;0.14000000059604645;0.2800000011920929;0.49000000953674316
197;0.0;0.0;0.0;0.18544000387191772;-0.14347200095653534;1.140944004058838;0.0;0.0;0.0
199;0.0;0.0;0.0;0.20495998859405518;-0.1512800008058548;1.1526559591293335;0.0;0.0;0.0
201;0.0;0.0;0.0;0.2088640034198761;-0.13176000118255615;1.165343999862671;0.0;0.0;0.0
204;0.08466799557209015;-0.020495999604463577;0.9896639585494995;0.19324800372123718;-0.1512800008058548;1.132159948348999;0.14000000059604645;0.2800000011920929;0.49000000953674316
206;0.0;0.0;0.0;0.19324800372123718;-0.14347200095653534;1.1370400190353394;0.0;0.0;0.0
208;0.0;0.0;0.0;0.2088640034198761;-0.15518400073051453;1.1526559591293335;0.0;0.0;0.0
210;0.0;0.0;0.0;0.2205759882926941;-0.13176000118255615;1.140944004058838;0.0;0.0;0.0
212;0.08540000021457672;-0.019519999623298645;0.9891759753227234;0.19324800372123718;-0.14347200095653534;1.1360639333724976;0.14000000059604645;0.21000000834465027;0.49000000953674316
214;0.0;0.0;0.0;0.20788799226284027;-0.1668960005044937;1.132159948348999;0.0;0.0;0.0
216;0.0;0.0;0.0;0.19227199256420135;-0.12785600125789642;1.148751974105835;0.0;0.0;0.0
218;0.0;0.0;0.0;0.19617599248886108;-0.15518400073051453;1.1282559633255005;0.0;0.0;0.0
221;0.08466799557209015;-0.02025200054049492;0.9884439706802368;0.18055999279022217;-0.1512800008058548;1.1526559591293335;0.14000000059604645;0.2800000011920929;0.49000000953674316
223;0.0;0.0;0.0;0.18836799263954163;-0.17080000042915344;1.148751974105835;0.0;0.0;0.0
225;0.0;0.0;0.0;0.2000799924135208;-0.15908800065517426;1.156559944152832;0.0;0.0;0.0
227;0.0;0.0;0.0;0.2000799924135208;-0.17080000042915344;1.156559944152832;0.0;0.0;0.0
229;0.0832040011882782;-0.020495999604463577;0.9903959631919861;0.16884799301624298;-0.15908800065517426;1.148751974105835;0.07000000029802322;0.3499999940395355;0.49000000953674316
231;0.0;0.0;0.0;0.1844639927148819;-0.18641600012779236;1.140944004058838;0.0;0.0;0.0
233;0.0;0.0;0.0;0.16494399309158325;-0.15908800065517426;1.140944004058838;0.0;0.0;0.0
235;0.0;0.0;0.0;0.20398399233818054;-0.15908800065517426;1.148751974105835;0.0;0.0;0.0
238;0.08271599560976028;-0.020495999604463577;0.9906399846076965;0.18836799263954163;-0.13176000118255615;1.099951982498169;0.14000000059604645;0.21000000834465027;0.5600000023841858
240;0.0;0.0;0.0;0.19227199256420135;-0.13566400110721588;1.124351978302002;0.0;0.0;0.0
242;0.0;0.0;0.0;0.18055999279022217;-0.1786080002784729;1.148751974105835;0.0;0.0;0.0
244;0.0;0.0;0.0;0.19617599248886108;-0.16299200057983398;1.1448479890823364;0.0;0.0;0.0
246;0.08540000021457672;-0.02025200054049492;0.9882000088691711;0.21569599211215973;-0.1512800008058548;1.1370400190353394;0.07000000029802322;0.14000000059604645;0.49000000953674316
248;0.0;0.0;0.0;0.1844639927148819;-0.14737600088119507;1.1282559633255005;0.0;0.0;0.0
250;0.0;0.0;0.0;0.18836799263954163;-0.14737600088119507;1.148751974105835;0.0;0.0;0.0
252;0.0;0.0;0.0;0.19227199256420135;-0.1512800008058548;1.1526559591293335;0.0;0.0;0.0
255;0.08588799834251404;-0.02025200054049492;0.9874680042266846;0.2117919921875;-0.15908800065517426;1.1360639333724976;0.07000000029802322;0.3499999940395355;0.49000000953674316
257;0.0;0.0;0.0;0.2000799924135208;-0.1668960005044937;1.1448479890823364;0.0;0.0;0.0
259;0.0;0.0;0.0;0.1727519929409027;-0.16299200057983398;1.1370400190353394;0.0;0.0;0.0
261;0.0;0.0;0.0;0.2000799924135208;-0.1512800008058548;1.140944004058838;0.0;0.0;0.0
263;0.08393599838018417;-0.02147199958562851;0.9894199967384338;0.18055999279022217;-0.15908800065517426;1.1204479932785034;0.0;0.49000000953674316;0.49000000953674316
265;0.0;0.0;0.0;0.20398399233818054;-0.1668960005044937;1.1448479890823364;0.0;0.0;0.0
267;0.0;0.0;0.0;0.19617599248886108;-0.16299200057983398;1.132159948348999;0.0;0.0;0.0
269;0.0;0.0;0.0;0.18836799263954163;-0.1512800008058548;1.1604639291763306;0.0;0.0;0.0
272;0.08295999467372894;-0.02122800052165985;0.9911279678344727;0.18836799263954163;-0.15518400073051453;1.1614400148391724;0.14000000059604645;0.21000000834465027;0.49000000953674316
274;0.0;0.0;0.0;0.16494399309158325;-0.15908800065517426;1.140944004058838;0.0;0.0;0.0
276;0.0;0.0;0.0;0.18055999279022217;-0.1786080002784729;1.1526559591293335;0.0;0.0;0.0
278;0.0;0.0;0.0;0.20788799226284027;-0.17470400035381317;1.1448479890823364;0.0;0.0;0.0
280;0.08540000021457672;-0.019276000559329987;0.98990797996521;0.19227199256420135;-0.15518400073051453;1.140944004058838;0.21000000834465027;0.14000000059604645;0.49000000953674316
282;0.0;0.0;0.0;0.20788799226284027;-0.14347200095653534;1.132159948348999;0.0;0.0;0.0
284;0.0;0.0;0.0;0.18055999279022217;-0.1512800008058548;1.156559944152832;0.0;0.0;0.0
286;0.0;0.0;0.0;0.20398399233818054;-0.1512800008058548;1.1360639333724976;0.0;0.0;0.0
289;0.08661999553442001;-0.019763998687267303;0.9879559874534607;0.1727519929409027;-0.15908800065517426;1.132159948348999;0.14000000059604645;0.2800000011920929;0.49000000953674316
291;0.0;0.0;0.0;0.20788799226284027;-0.15908800065517426;1.1360639333724976;0.0;0.0;0.0
293;0.0;0.0;0.0;0.19617599248886108;-0.17080000042915344;1.148751974105835;0.0;0.0;0.0
295;0.0;0.0;0.0;0.16884799301624298;-0.15908800065517426;1.1448479890823364;0.0;0.0;0.0
297;0.08442399650812149;-0.02025200054049492;0.9889319539070129;0.1727519929409027;-0.14737600088119507;1.148751974105835;0.07000000029802322;0.49000000953674316;0.49000000953674316
299;0.0;0.0;0.0;0.2000799924135208;-0.15518400073051453;1.1448479890823364;0.0;0.0;0.0
301;0.0;0.0;0.0;0.18055999279022217;-0.1512800008058548;1.148751974105835;0.0;0.0;0.0
303;0.0;0.0;0.0;0.18055999279022217;-0.1668960005044937;1.148751974105835;0.0;0.0;0.0
306;0.08393599838018417;-0.02025200054049492;0.9906399846076965;0.20398399233818054;-0.14737600088119507;1.1204479932785034;0.07000000029802322;0.2800000011920929;0.49000000953674316
308;0.0;0.0;0.0;0.21959999203681946;-0.17470400035381317;1.1448479890823364;0.0;0.0;0.0
310;0.0;0.0;0.0;0.17665599286556244;-0.1668960005044937;1.140944004058838;0.0;0.0;0.0
312;0.0;0.0;0.0;0.20788799226284027;-0.13176000118255615;1.1370400190353394;0.0;0.0;0.0
314;0.0849120020866394;-0.02000799961388111;0.9894199967384338;0.19617599248886108;-0.1512800008058548;1.148751974105835;0.14000000059604645;0.07000000029802322;0.49000000953674316
316;0.0;0.0;0.0;0.19227199256420135;-0.17080000042915344;1.148751974105835;0.0;0.0;0.0
318;0.0;0.0;0.0;0.1727519929409027;-0.1395680010318756;1.132159948348999;0.0;0.0;0.0
320;0.0;0.0;0.0;0.17665599286556244;-0.1512800008058548;1.1282559633255005;0.0;0.0;0.0
323;0.08686399459838867;-0.02000799961388111;0.9879559874534607;0.18836799263954163;-0.16299200057983398;1.1282559633255005;0.07000000029802322;0.2800000011920929;0.5600000023841858
325;0.0;0.0;0.0;0.1844639927148819;-0.1668960005044937;1.140944004058838;0.0;0.0;0.0
327;0.0;0.0;0.0;0.19227199256420135;-0.15518400073051453;1.1448479890823364;0.0;0.0;0.0
329;0.0;0.0;0.0;0.2117919921875;-0.15908800065517426;1.1282559633255005;0.0;0.0;0.0
331;0.08442399650812149;-0.02000799961388111;0.98990797996521;0.20788799226284027;-0.18641600012779236;1.1282559633255005;0.14000000059604645;0.42000001668930054;0.49000000953674316
333;0.0;0.0;0.0;0.2000799924135208;-0.17080000042915344;1.1604639291763306;0.0;0.0;0.0
335;0.0;0.0;0.0;0.19617599248886108;-0.16299200057983398;1.1526559591293335;0.0;0.0;0.0
338;0.0;0.0;0.0;0.18836799263954163;-0.1512800008058548;1.1604639291763306;0.0;0.0;0.0
340;0.08344800025224686;-0.02025200054049492;0.9906399846076965;0.19227199256420135;-0.16299200057983398;1.124351978302002;0.07000000029802322;0.2800000011920929;0.49000000953674316
342;0.0;0.0;0.0;0.18055999279022217;-0.14737600088119507;1.1526559591293335;0.0;0.0;0.0
344;0.0;0.0;0.0;0.17665599286556244;-0.1668960005044937;1.1448479890823364;0.0;0.0;0.0
346;0.0;0.0;0.0;0.1844639927148819;-0.1668960005044937;1.140944004058838;0.0;0.0;0.0
348;0.08417999744415283;-0.02025200054049492;0.98990797996521;0.19227199256420135;-0.14737600088119507;1.140944004058838;0.14000000059604645;0.14000000059604645;0.49000000953674316
350;0.0;0.0;0.0;0.20788799226284027;-0.1668960005044937;1.140944004058838;0.0;0.0;0.0
352;0.0;0.0;0.0;0.20788799226284027;-0.15518400073051453;1.148751974105835;0.0;0.0;0.0
355;0.0;0.0;0.0;0.17665599286556244;-0.1512800008058548;1.1604639291763306;0.0;0.0;0.0
357;0.08588799834251404;-0.02000799961388111;0.9886879920959473;0.2117919921875;-0.17080000042915344;1.140944004058838;0.14000000059604645;0.21000000834465027;0.49000000953674316
359;0.0;0.0;0.0;0.20398399233818054;-0.15908800065517426;1.156559944152832;0.0;0.0;0.0
361;0.0;0.0;0.0;0.18836799263954163;-0.16299200057983398;1.1370400190353394;0.0;0.0;0.0
363;0.0;0.0;0.0;0.1844639927148819;-0.1512800008058548;1.1282559633255005;0.0;0.0;0.0
365;0.08540000021457672;-0.02000799961388111;0.9886879920959473;0.20398399233818054;-0.14347200095653534;1.1448479890823364;0.07000000029802322;0.3499999940395355;0.49000000953674316
367;0.0;0.0;0.0;0.20398399233818054;-0.17080000042915344;1.124351978302002;0.0;0.0;0.0
369;0.0;0.0;0.0;0.19227199256420135;-0.14737600088119507;1.1448479890823364;0.0;0.0;0.0
372;0.0;0.0;0.0;0.19617599248886108;-0.1395680010318756;1.132159948348999;0.0;0.0;0.0
374;0.08540000021457672;-0.02025200054049492;0.9889319539070129;0.19227199256420135;-0.1395680010318756;1.1448479890823364;0.07000000029802322;0.3499999940395355;0.5600000023841858
376;0.0;0.0;0.0;0.2000799924135208;-0.14737600088119507;1.1370400190353394;0.0;0.0;0.0
378;0.0;0.0;0.0;0.1844639927148819;-0.1239520013332367;1.156559944152832;0.0;0.0;0.0
380;0.0;0.0;0.0;0.1727519929409027;-0.15908800065517426;1.1448479890823364;0.0;0.0;0.0
382;0.08369199931621552;-0.02025200054049492;0.9911279678344727;0.19227199256420135;-0.1395680010318756;1.165343999862671;0.14000000059604645;0.3499999940395355;0.49000000953674316
384;0.0;0.0;0.0;0.19617599248886108;-0.16299200057983398;1.124351978302002;0.0;0.0;0.0
386;0.0;0.0;0.0;0.19227199256420135;-0.15908800065517426;1.132159948348999;0.0;0.0;0.0
389;0.0;0.0;0.0;0.20398399233818054;-0.14737600088119507;1.132159948348999;0.0;0.0;0.0
391;0.08417999744415283;-0.02000799961388111;0.98990797996521;0.1727519929409027;-0.17080000042915344;1.140944004058838;0.07000000029802322;0.21000000834465027;0.49000000953674316
393;0.0;0.0;0.0;0.18836799263954163;-0.1668960005044937;1.156559944152832;0.0;0.0;0.0
395;0.0;0.0;0.0;0.21959999203681946;-0.1512800008058548;1.124351978302002;0.0;0.0;0.0
397;0.0;0.0;0.0;0.19227199256420135;-0.17080000042915344;1.1448479890823364;0.0;0.0;0.0
399;0.08588799834251404;-0.019763998687267303;0.9882000088691711;0.1844639927148819;-0.16299200057983398;1.140944004058838;0.07000000029802322;0.2800000011920929;0.49000000953674316
401;0.0;0.0;0.0;0.19617599248886108;-0.17080000042915344;1.1370400190353394;0.0;0.0;0.0
403;0.0;0.0;0.0;0.19227199256420135;-0.17080000042915344;1.124351978302002;0.0;0.0;0.0
406;0.0;0.0;0.0;0.2117919921875;-0.17470400035381317;1.132159948348999;0.0;0.0;0.0
408;0.08466799557209015;-0.020739998668432236;0.9886879920959473;0.2000799924135208;-0.15908800065517426;1.1282559633255005;0.14000000059604645;0.3499999940395355;0.49000000953674316
410;0.0;0.0;0.0;0.18836799263954163;-0.17080000042915344;1.1526559591293335;0.0;0.0;0.0
412;0.0;0.0;0.0;0.2000799924135208;-0.18251200020313263;1.1038559675216675;0.0;0.0;0.0
414;0.0;0.0;0.0;0.16103999316692352;-0.14737600088119507;1.148751974105835;0.0;0.0;0.0
416;0.08417999744415283;-0.020495999604463577;0.9891759753227234;0.20398399233818054;-0.14737600088119507;1.1370400190353394;0.14000000059604645;0.2800000011920929;0.49000000953674316
419;0.0;0.0;0.0;0.1727519929409027;-0.1512800008058548;1.1282559633255005;0.0;0.0;0.0
420;0.0;0.0;0.0;0.19617599248886108;-0.15908800065517426;1.1770559549331665;0.0;0.0;0.0
423;0.0;0.0;0.0;0.19227199256420135;-0.14737600088119507;1.132159948348999;0.0;0.0;0.0
425;0.08515600115060806;-0.020983999595046043;0.9896639585494995;0.18836799263954163;-0.1668960005044937;1.156559944152832;0.14000000059604645;0.21000000834465027;0.49000000953674316
427;0.0;0.0;0.0;0.20398399233818054;-0.1786080002784729;1.1448479890823364;0.0;0.0;0.0
429;0.0;0.0;0.0;0.19617599248886108;-0.1668960005044937;1.1526559591293335;0.0;0.0;0.0
431;0.0;0.0;0.0;0.19617599248886108;-0.15518400073051453;1.140944004058838;0.0;0.0;0.0
433;0.08637599647045135;-0.02025200054049492;0.9889319539070129;0.1844639927148819;-0.13566400110721588;1.140944004058838;0.07000000029802322;0.2800000011920929;0.49000000953674316
435;0.0;0.0;0.0;0.19227199256420135;-0.15908800065517426;1.148751974105835;0.0;0.0;0.0
437;0.0;0.0;0.0;0.18055999279022217;-0.16299200057983398;1.1448479890823364;0.0;0.0;0.0
440;0.0;0.0;0.0;0.21569599211215973;-0.1512800008058548;1.132159948348999;0.0;0.0;0.0
442;0.0849120020866394;-0.020495999604463577;0.9901520013809204;0.20788799226284027;-0.17080000042915344;1.1370400190353394;0.14000000059604645;0.42000001668930054;0.49000000953674316
444;0.0;0.0;0.0;0.18055999279022217;-0.14737600088119507;1.148751974105835;0.0;0.0;0.0
446;0.0;0.0;0.0;0.20398399233818054;-0.15908800065517426;1.1204479932785034;0.0;0.0;0.0
448;0.0;0.0;0.0;0.20788799226284027;-0.1512800008058548;1.1526559591293335;0.0;0.0;0.0
450;0.08369199931621552;-0.02000799961388111;0.9903959631919861;0.19617599248886108;-0.12785600125789642;1.140944004058838;0.14000000059604645;0.2800000011920929;0.49000000953674316
452;0.0;0.0;0.0;0.18836799263954163;-0.15908800065517426;1.156559944152832;0.0;0.0;0.0
454;0.0;0.0;0.0;0.16884799301624298;-0.14347200095653534;1.148751974105835;0.0;0.0;0.0
457;0.0;0.0;0.0;0.18055999279022217;-0.14347200095653534;1.1614400148391724;0.0;0.0;0.0
459;0.0849120020866394;-0.02025200054049492;0.98990797996521;0.20788799226284027;-0.1512800008058548;1.1370400190353394;0.14000000059604645;0.21000000834465027;0.49000000953674316
461;0.0;0.0;0.0;0.20398399233818054;-0.1786080002784729;1.1526559591293335;0.0;0.0;0.0
463;0.0;0.0;0.0;0.21959999203681946;-0.17080000042915344;1.1282559633255005;0.0;0.0;0.0
465;0.0;0.0;0.0;0.2117919921875;-0.15518400073051453;1.1370400190353394;0.0;0.0;0.0
467;0.08564399927854538;-0.02025200054049492;0.9886879920959473;0.20788799226284027;-0.17080000042915344;1.1526559591293335;0.07000000029802322;0.21000000834465027;0.49000000953674316
469;0.0;0.0;0.0;0.18055999279022217;-0.13176000118255615;1.1526559591293335;0.0;0.0;0.0
471;0.0;0.0;0.0;0.1844639927148819;-0.1668960005044937;1.132159948348999;0.0;0.0;0.0
474;0.0;0.0;0.0;0.1844639927148819;-0.15908800065517426;1.1370400190353394;0.0;0.0;0.0
476;0.08417999744415283;-0.02025200054049492;0.9896639585494995;0.17665599286556244;-0.14737600088119507;1.1370400190353394;0.07000000029802322;0.3499999940395355;0.49000000953674316
478;0.0;0.0;0.0;0.1844639927148819;-0.18251200020313263;1.140944004058838;0.0;0.0;0.0
480;0.0;0.0;0.0;0.18836799263954163;-0.16299200057983398;1.124351978302002;0.0;0.0;0.0
482;0.0;0.0;0.0;0.1844639927148819;-0.14737600088119507;1.156559944152832;0.0;0.0;0.0
484;0.08393599838018417;-0.020495999604463577;0.98990797996521;0.18836799263954163;-0.14737600088119507;1.1370400190353394;0.14000000059604645;0.3499999940395355;0.49000000953674316
487;0.0;0.0;0.0;0.20398399233818054;-0.17080000042915344;1.1448479890823364;0.0;0.0;0.0
488;0.0;0.0;0.0;0.19227199256420135;-0.1668960005044937;1.1448479890823364;0.0;0.0;0.0
491;0.0;0.0;0.0;0.19227199256420135;-0.1668960005044937;1.1370400190353394;0.0;0.0;0.0
493;0.08564399927854538;-0.02000799961388111;0.9884439706802368;0.19227199256420135;-0.15908800065517426;1.1370400190353394;0.14000000059604645;0.21000000834465027;0.49000000953674316
495;0.0;0.0;0.0;0.18836799263954163;-0.14347200095653534;1.1165440082550049;0.0;0.0;0.0
497;0.0;0.0;0.0;0.18055999279022217;-0.1668960005044937;1.148751974105835;0.0;0.0;0.0
499;0.0;0.0;0.0;0.17665599286556244;-0.14347200095653534;1.1165440082550049;0.0;0.0;0.0
501;0.0849120020866394;-0.02025200054049492;0.9884439706802368;0.2117919921875;-0.14737600088119507;1.1370400190353394;0.07000000029802322;0.2800000011920929;0.42000001668930054
504;0.0;0.0;0.0;0.20788799226284027;-0.14737600088119507;1.1370400190353394;0.0;0.0;0.0
506;0.0;0.0;0.0;0.19227199256420135;-0.15518400073051453;1.148751974105835;0.0;0.0;0.0
508;0.0;0.0;0.0;0.18836799263954163;-0.14737600088119507;1.1448479890823364;0.0;0.0;0.0
510;0.08393599838018417;-0.02122800052165985;0.9903959631919861;0.20398399233818054;-0.1512800008058548;1.1360639333724976;0.07000000029802322;0.42000001668930054;0.49000000953674316
512;0.0;0.0;0.0;0.18836799263954163;-0.17470400035381317;1.132159948348999;0.0;0.0;0.0
514;0.0;0.0;0.0;0.19227199256420135;-0.14737600088119507;1.1116639375686646;0.0;0.0;0.0
516;0.0;0.0;0.0;0.21959999203681946;-0.16299200057983398;1.140944004058838;0.0;0.0;0.0
518;0.08417999744415283;-0.02000799961388111;0.9901520013809204;0.20398399233818054;-0.1668960005044937;1.1526559591293335;0.14000000059604645;0.2800000011920929;0.49000000953674316
520;0.0;0.0;0.0;0.19617599248886108;-0.1395680010318756;1.148751974105835;0.0;0.0;0.0
523;0.0;0.0;0.0;0.1844639927148819;-0.15518400073051453;1.1448479890823364;0.0;0.0;0.0
525;0.0;0.0;0.0;0.19227199256420135;-0.1512800008058548;1.140944004058838;0.0;0.0;0.0
527;0.08515600115060806;-0.020495999604463577;0.9891759753227234;0.19227199256420135;-0.16299200057983398;1.124351978302002;0.07000000029802322;0.21000000834465027;0.49000000953674316
529;0.0;0.0;0.0;0.1727519929409027;-0.15908800065517426;1.148751974105835;0.0;0.0;0.0
531;0.0;0.0;0.0;0.20398399233818054;-0.1512800008058548;1.132159948348999;0.0;0.0;0.0
533;0.0;0.0;0.0;0.18055999279022217;-0.1395680010318756;1.1282559633255005;0.0;0.0;0.0
535;0.08515600115060806;-0.020495999604463577;0.9886879920959473;0.20398399233818054;-0.14737600088119507;1.1526559591293335;0.14000000059604645;0.2800000011920929;0.49000000953674316
538;0.0;0.0;0.0;0.19227199256420135;-0.1786080002784729;1.132159948348999;0.0;0.0;0.0
540;0.0;0.0;0.0;0.20398399233818054;-0.17080000042915344;1.1448479890823364;0.0;0.0;0.0
542;0.0;0.0;0.0;0.20788799226284027;-0.1395680010318756;1.1282559633255005;0.0;0.0;0.0
544;0.08564399927854538;-0.020983999595046043;0.98990797996521;0.18055999279022217;-0.1512800008058548;1.132159948348999;0.07000000029802322;0.3499999940395355;0.49000000953674316
546;0.0;0.0;0.0;0.17665599286556244;-0.14347200095653534;1.148751974105835;0.0;0.0;0.0
548;0.0;0.0;0.0;0.20398399233818054;-0.16299200057983398;1.1370400190353394;0.0;0.0;0.0
550;0.0;0.0;0.0;0.2000799924135208;-0.16299200057983398;1.1370400190353394;0.0;0.0;0.0
552;0.08417999744415283;-0.020983999595046043;0.9896639585494995;0.20398399233818054;-0.17470400035381317;1.1370400190353394;0.14000000059604645;0.3499999940395355;0.49000000953674316
555;0.0;0.0;0.0;0.18836799263954163;-0.14737600088119507;1.148751974105835;0.0;0.0;0.0
557;0.0;0.0;0.0;0.2000799924135208;-0.14737600088119507;1.1370400190353394;0.0;0.0;0.0
559;0.0;0.0;0.0;0.17665599286556244;-0.1512800008058548;1.132159948348999;0.0;0.0;0.0
561;0.08417999744415283;-0.020495999604463577;0.9896639585494995;0.2117919921875;-0.1668960005044937;1.148751974105835;0.07000000029802322;0.21000000834465027;0.49000000953674316
563;0.0;0.0;0.0;0.19227199256420135;-0.1395680010318756;1.1282559633255005;0.0;0.0;0.0
565;0.0;0.0;0.0;0.21959999203681946;-0.1786080002784729;1.132159948348999;0.0;0.0;0.0
567;0.0;0.0;0.0;0.2000799924135208;-0.16299200057983398;1.1526559591293335;0.0;0.0;0.0
569;0.08588799834251404;-0.019763998687267303;0.9891759753227234;0.16884799301624298;-0.14347200095653534;1.140944004058838;0.14000000059604645;0.21000000834465027;0.49000000953674316
572;0.0;0.0;0.0;0.17665599286556244;-0.16299200057983398;1.140944004058838;0.0;0.0;0.0
574;0.0;0.0;0.0;0.19227199256420135;-0.1395680010318756;1.124351978302002;0.0;0.0;0.0
576;0.0;0.0;0.0;0.20788799226284027;-0.17470400035381317;1.1526559591293335;0.0;0.0;0.0
578;0.08442399650812149;-0.02000799961388111;0.9896639585494995;0.17665599286556244;-0.14347200095653534;1.132159948348999;0.14000000059604645;0.42000001668930054;0.49000000953674316
580;0.0;0.0;0.0;0.1727519929409027;-0.18251200020313263;1.124351978302002;0.0;0.0;0.0
582;0.0;0.0;0.0;0.2000799924135208;-0.13566400110721588;1.1126400232315063;0.0;0.0;0.0
584;0.0;0.0;0.0;0.19617599248886108;-0.15908800065517426;1.140944004058838;0.0;0.0;0.0
586;0.08442399650812149;-0.020739998668432236;0.9889319539070129;0.18055999279022217;-0.16299200057983398;1.1448479890823364;0.07000000029802322;0.2800000011920929;0.49000000953674316
589;0.0;0.0;0.0;0.19617599248886108;-0.14347200095653534;1.132159948348999;0.0;0.0;0.0
591;0.0;0.0;0.0;0.16884799301624298;-0.1512800008058548;1.132159948348999;0.0;0.0;0.0
593;0.0;0.0;0.0;0.1844639927148819;-0.1395680010318756;1.1448479890823364;0.0;0.0;0.0
595;0.08540000021457672;-0.020739998668432236;0.9896639585494995;0.2000799924135208;-0.1512800008058548;1.140944004058838;0.14000000059604645;0.21000000834465027;0.49000000953674316
597;0.0;0.0;0.0;0.19227199256420135;-0.12785600125789642;1.1604639291763306;0.0;0.0;0.0
599;0.0;0.0;0.0;0.20398399233818054;-0.15908800065517426;1.1448479890823364;0.0;0.0;0.0
601;0.0;0.0;0.0;0.20788799226284027;-0.15908800065517426;1.1526559591293335;0.0;0.0;0.0
603;0.0849120020866394;-0.02000799961388111;0.9889319539070129;0.19617599248886108;-0.14347200095653534;1.132159948348999;0.07000000029802322;0.2800000011920929;0.49000000953674316
606;0.0;0.0;0.0;0.19227199256420135;-0.13566400110721588;1.132159948348999;0.0;0.0;0.0
608;0.0;0.0;0.0;0.2117919921875;-0.15518400073051453;1.1370400190353394;0.0;0.0;0.0
610;0.0;0.0;0.0;0.16494399309158325;-0.1668960005044937;1.140944004058838;0.0;0.0;0.0
612;0.08393599838018417;-0.02000799961388111;0.9896639585494995;0.1844639927148819;-0.14737600088119507;1.1614400148391724;0.07000000029802322;0.2800000011920929;0.49000000953674316
614;0.0;0.0;0.0;0.1727519929409027;-0.1395680010318756;1.156559944152832;0.0;0.0;0.0
616;0.0;0.0;0.0;0.19227199256420135;-0.1395680010318756;1.1448479890823364;0.0;0.0;0.0
618;0.0;0.0;0.0;0.2000799924135208;-0.14347200095653534;1.140944004058838;0.0;0.0;0.0
620;0.08515600115060806;-0.020495999604463577;0.9889319539070129;0.20398399233818054;-0.14347200095653534;1.1370400190353394;0.07000000029802322;0.2800000011920929;0.49000000953674316
623;0.0;0.0;0.0;0.20398399233818054;-0.1239520013332367;1.1370400190353394;0.0;0.0;0.0
625;0.0;0.0;0.0;0.20788799226284027;-0.1668960005044937;1.156559944152832;0.0;0.0;0.0
627;0.0;0.0;0.0;0.1844639927148819;-0.1395680010318756;1.156559944152832;0.0;0.0;0.0
629;0.08393599838018417;-0.02025200054049492;0.9896639585494995;0.1844639927148819;-0.15518400073051453;1.132159948348999;0.07000000029802322;0.2800000011920929;0.49000000953674316
631;0.0;0.0;0.0;0.2000799924135208;-0.17470400035381317;1.148751974105835;0.0;0.0;0.0
633;0.0;0.0;0.0;0.19227199256420135;-0.1512800008058548;1.140944004058838;0.0;0.0;0.0
635;0.0;0.0;0.0;0.18836799263954163;-0.12785600125789642;1.1370400190353394;0.0;0.0;0.0
637;0.08540000021457672;-0.020983999595046043;0.9903959631919861;0.19227199256420135;-0.15908800065517426;1.1370400190353394;0.14000000059604645;0.2800000011920929;0.49000000953674316
640;0.0;0.0;0.0;0.20398399233818054;-0.1903200000524521;1.1126400232315063;0.0;0.0;0.0
642;0.0;0.0;0.0;0.19617599248886108;-0.1395680010318756;1.1282559633255005;0.0;0.0;0.0
644;0.0;0.0;0.0;0.21569599211215973;-0.14737600088119507;1.1165440082550049;0.0;0.0;0.0
646;0.08515600115060806;-0.02000799961388111;0.9886879920959473;0.17665599286556244;-0.1786080002784729;1.1360639333724976;0.07000000029802322;0.2800000011920929;0.49000000953674316
648;0.0;0.0;0.0;0.21569599211215973;-0.15908800065517426;1.156559944152832;0.0;0.0;0.0
650;0.0;0.0;0.0;0.2000799924135208;-0.1395680010318756;1.124351978302002;0.0;0.0;0.0
652;0.0;0.0;0.0;0.17665599286556244;-0.14347200095653534;1.1448479890823364;0.0;0.0;0.0
654;0.08466799557209015;-0.02000799961388111;0.9894199967384338;0.21569599211215973;-0.14737600088119507;1.132159948348999;0.07000000029802322;0.3499999940395355;0.49000000953674316
657;0.0;0.0;0.0;0.16494399309158325;-0.15908800065517426;1.1282559633255005;0.0;0.0;0.0
659;0.0;0.0;0.0;0.16103999316692352;-0.1668960005044937;1.140944004058838;0.0;0.0;0.0
661;0.0;0.0;0.0;0.19617599248886108;-0.14347200095653534;1.148751974105835;0.0;0.0;0.0
663;0.08393599838018417;-0.020495999604463577;0.9901520013809204;0.18055999279022217;-0.13566400110721588;1.140944004058838;0.07000000029802322;0.2800000011920929;0.5600000023841858
665;0.0;0.0;0.0;0.16884799301624298;-0.14347200095653534;1.156559944152832;0.0;0.0;0.0
667;0.0;0.0;0.0;0.19227199256420135;-0.14737600088119507;1.1448479890823364;0.0;0.0;0.0
669;0.0;0.0;0.0;0.17665599286556244;-0.1395680010318756;1.132159948348999;0.0;0.0;0.0
671;0.0849120020866394;-0.020739998668432236;0.98990797996521;0.21569599211215973;-0.16299200057983398;1.1604639291763306;0.14000000059604645;0.14000000059604645;0.49000000953674316
674;0.0;0.0;0.0;0.20788799226284027;-0.13566400110721588;1.165343999862671;0.0;0.0;0.0
676;0.0;0.0;0.0;0.20398399233818054;-0.13566400110721588;1.148751974105835;0.0;0.0;0.0
678;0.0;0.0;0.0;0.19617599248886108;-0.17080000042915344;1.1604639291763306;0.0;0.0;0.0
680;0.08637599647045135;-0.020739998668432236;0.9894199967384338;0.19617599248886108;-0.16299200057983398;1.1370400190353394;0.07000000029802322;0.2800000011920929;0.49000000953674316
682;0.0;0.0;0.0;0.2000799924135208;-0.1512800008058548;1.1370400190353394;0.0;0.0;0.0
684;0.0;0.0;0.0;0.19227199256420135;-0.14737600088119507;1.132159948348999;0.0;0.0;0.0
686;0.0;0.0;0.0;0.18836799263954163;-0.17470400035381317;1.148751974105835;0.0;0.0;0.0
688;0.08417999744415283;-0.020739998668432236;0.9894199967384338;0.16884799301624298;-0.15908800065517426;1.148751974105835;0.07000000029802322;0.2800000011920929;0.49000000953674316
691;0.0;0.0;0.0;0.1727519929409027;-0.14737600088119507;1.1526559591293335;0.0;0.0;0.0
693;0.0;0.0;0.0;0.19227199256420135;-0.12785600125789642;1.156559944152832;0.0;0.0;0.0
695;0.0;0.0;0.0;0.17665599286556244;-0.14737600088119507;1.140944004058838;0.0;0.0;0.0
697;0.0849120020866394;-0.02025200054049492;0.98990797996521;0.18055999279022217;-0.17470400035381317;1.1282559633255005;0.21000000834465027;0.2800000011920929;0.49000000953674316
699;0.0;0.0;0.0;0.19617599248886108;-0.1395680010318756;1.1448479890823364;0.0;0.0;0.0
701;0.0;0.0;0.0;0.20398399233818054;-0.1395680010318756;1.140944004058838;0.0;0.0;0.0
703;0.0;0.0;0.0;0.1727519929409027;-0.14347200095653534;1.1448479890823364;0.0;0.0;0.0
705;0.08466799557209015;-0.019763998687267303;0.9894199967384338;0.20398399233818054;-0.16299200057983398;1.156559944152832;0.14000000059604645;0.2800000011920929;0.42000001668930054
708;0.0;0.0;0.0;0.1844639927148819;-0.14737600088119507;1.1370400190353394;0.0;0.0;0.0
710;0.0;0.0;0.0;0.20398399233818054;-0.15908800065517426;1.1526559591293335;0.0;0.0;0.0
712;0.0;0.0;0.0;0.2235039919614792;-0.17080000042915344;1.1331360340118408;0.0;0.0;0.0
714;0.08540000021457672;-0.019763998687267303;0.9894199967384338;0.20788799226284027;-0.13566400110721588;1.1448479890823364;0.14000000059604645;0.3499999940395355;0.49000000953674316
716;0.0;0.0;0.0;0.16884799301624298;-0.14737600088119507;1.156559944152832;0.0;0.0;0.0
718;0.0;0.0;0.0;0.18055999279022217;-0.14347200095653534;1.148751974105835;0.0;0.0;0.0
720;0.0;0.0;0.0;0.19227199256420135;-0.14737600088119507;1.1370400190353394;0.0;0.0;0.0
722;0.0849120020866394;-0.020739998668432236;0.98990797996521;0.17665599286556244;-0.1786080002784729;1.140944004058838;0.14000000059604645;0.2800000011920929;0.49000000953674316
725;0.0;0.0;0.0;0.1844639927148819;-0.1786080002784729;1.1370400190353394;0.0;0.0;0.0
727;0.0;0.0;0.0;0.20398399233818054;-0.16299200057983398;1.148751974105835;0.0;0.0;0.0
729;0.0;0.0;0.0;0.2000799924135208;-0.1512800008058548;1.1526559591293335;0.0;0.0;0.0
731;0.08442399650812149;-0.020739998668432236;0.98990797996521;0.19617599248886108;-0.1239520013332367;1.148751974105835;0.14000000059604645;0.2800000011920929;0.49000000953674316
733;0.0;0.0;0.0;0.1844639927148819;-0.1395680010318756;1.124351978302002;0.0;0.0;0.0
735;0.0;0.0;0.0;0.1844639927148819;-0.1395680010318756;1.1448479890823364;0.0;0.0;0.0
737;0.0;0.0;0.0;0.2000799924135208;-0.1512800008058548;1.148751974105835;0.0;0.0;0.0
739;0.08442399650812149;-0.02000799961388111;0.9896639585494995;0.21959999203681946;-0.16299200057983398;1.1360639333724976;0.14000000059604645;0.2800000011920929;0.49000000953674316
742;0.0;0.0;0.0;0.20398399233818054;-0.1786080002784729;1.1282559633255005;0.0;0.0;0.0
744;0.0;0.0;0.0;0.18836799263954163;-0.1512800008058548;1.1282559633255005;0.0;0.0;0.0
746;0.0;0.0;0.0;0.2117919921875;-0.13566400110721588;1.1204479932785034;0.0;0.0;0.0
748;0.08515600115060806;-0.02000799961388111;0.9901520013809204;0.2117919921875;-0.16299200057983398;1.132159948348999;0.07000000029802322;0.3499999940395355;0.49000000953674316
750;0.0;0.0;0.0;0.17665599286556244;-0.14347200095653534;1.1448479890823364;0.0;0.0;0.0
752;0.0;0.0;0.0;0.2000799924135208;-0.14347200095653534;1.124351978302002;0.0;0.0;0.0
754;0.0;0.0;0.0;0.2000799924135208;-0.1395680010318756;1.1604639291763306;0.0;0.0;0.0
756;0.0849120020866394;-0.02025200054049492;0.9894199967384338;0.19227199256420135;-0.15518400073051453;1.140944004058838;0.14000000059604645;0.2800000011920929;0.49000000953674316
759;0.0;0.0;0.0;0.17665599286556244;-0.16299200057983398;1.148751974105835;0.0;0.0;0.0
761;0.0;0.0;0.0;0.16494399309158325;-0.15518400073051453;1.1526559591293335;0.0;0.0;0.0
763;0.0;0.0;0.0;0.21959999203681946;-0.1512800008058548;1.1526559591293335;0.0;0.0;0.0
765;0.08466799557209015;-0.020495999604463577;0.9901520013809204;0.20398399233818054;-0.15518400073051453;1.1204479932785034;0.14000000059604645;0.3499999940395355;0.49000000953674316
767;0.0;0.0;0.0;0.19227199256420135;-0.16299200057983398;1.1448479890823364;0.0;0.0;0.0
769;0.0;0.0;0.0;0.18836799263954163;-0.12785600125789642;1.132159948348999;0.0;0.0;0.0
771;0.0;0.0;0.0;0.19227199256420135;-0.1512800008058548;1.1360639333724976;0.0;0.0;0.0
773;0.08442399650812149;-0.020739998668432236;0.98990797996521;0.1844639927148819;-0.15518400073051453;1.148751974105835;0.07000000029802322;0.2800000011920929;0.49000000953674316
776;0.0;0.0;0.0;0.18836799263954163;-0.16299200057983398;1.165343999862671;0.0;0.0;0.0
778;0.0;0.0;0.0;0.2000799924135208;-0.13566400110721588;1.1360639333724976;0.0;0.0;0.0
780;0.0;0.0;0.0;0.18055999279022217;-0.16299200057983398;1.1526559591293335;0.0;0.0;0.0
782;0.08540000021457672;-0.02025200054049492;0.9896639585494995;0.18836799263954163;-0.15518400073051453;1.148751974105835;0.14000000059604645;0.2800000011920929;0.49000000953674316
784;0.0;0.0;0.0;0.18836799263954163;-0.16299200057983398;1.1448479890823364;0.0;0.0;0.0
786;0.0;0.0;0.0;0.19227199256420135;-0.15518400073051453;1.1360639333724976;0.0;0.0;0.0
788;0.0;0.0;0.0;0.1571359932422638;-0.15908800065517426;1.1614400148391724;0.0;0.0;0.0
790;0.08540000021457672;-0.019276000559329987;0.9891759753227234;0.1844639927148819;-0.1512800008058548;1.1370400190353394;0.07000000029802322;0.3499999940395355;0.49000000953674316
793;0.0;0.0;0.0;0.2000799924135208;-0.18641600012779236;1.1448479890823364;0.0;0.0;0.0
795;0.0;0.0;0.0;0.19227199256420135;-0.1668960005044937;1.1448479890823364;0.0;0.0;0.0
797;0.0;0.0;0.0;0.1727519929409027;-0.16299200057983398;1.1448479890823364;0.0;0.0;0.0
799;0.08442399650812149;-0.02025200054049492;0.9891759753227234;0.20788799226284027;-0.15518400073051453;1.140944004058838;0.14000000059604645;0.2800000011920929;0.49000000953674316
801;0.0;0.0;0.0;0.1844639927148819;-0.1512800008058548;1.1448479890823364;0.0;0.0;0.0
803;0.0;0.0;0.0;0.2117919921875;-0.15908800065517426;1.140944004058838;0.0;0.0;0.0
805;0.0;0.0;0.0;0.18836799263954163;-0.1668960005044937;1.132159948348999;0.0;0.0;0.0
807;0.0849120020866394;-0.02025200054049492;0.9901520013809204;0.18055999279022217;-0.1512800008058548;1.1526559591293335;0.14000000059604645;0.21000000834465027;0.49000000953674316
810;0.0;0.0;0.0;0.2117919921875;-0.16299200057983398;1.1204479932785034;0.0;0.0;0.0
812;0.0;0.0;0.0;0.19227199256420135;-0.15518400073051453;1.1370400190353394;0.0;0.0;0.0
814;0.0;0.0;0.0;0.18055999279022217;-0.14737600088119507;1.148751974105835;0.0;0.0;0.0
816;0.0849120020866394;-0.020495999604463577;0.990884006023407;0.1844639927148819;-0.1668960005044937;1.1448479890823364;0.14000000059604645;0.3499999940395355;0.49000000953674316
818;0.0;0.0;0.0;0.1844639927148819;-0.1395680010318756;1.173151969909668;0.0;0.0;0.0
820;0.0;0.0;0.0;0.21569599211215973;-0.15908800065517426;1.124351978302002;0.0;0.0;0.0
822;0.0;0.0;0.0;0.19227199256420135;-0.14347200095653534;1.1360639333724976;0.0;0.0;0.0
824;0.08393599838018417;-0.02025200054049492;0.9903959631919861;0.19617599248886108;-0.14737600088119507;1.1526559591293335;0.07000000029802322;0.2800000011920929;0.49000000953674316
827;0.0;0.0;0.0;0.2000799924135208;-0.14347200095653534;1.1448479890823364;0.0;0.0;0.0
829;0.0;0.0;0.0;0.20788799226284027;-0.16299200057983398;1.140944004058838;0.0;0.0;0.0
831;0.0;0.0;0.0;0.18836799263954163;-0.14347200095653534;1.132159948348999;0.0;0.0;0.0
833;0.0849120020866394;-0.02000799961388111;0.9894199967384338;0.18055999279022217;-0.15518400073051453;1.1204479932785034;0.21000000834465027;0.21000000834465027;0.49000000953674316
835;0.0;0.0;0.0;0.17665599286556244;-0.17470400035381317;1.124351978302002;0.0;0.0;0.0
837;0.0;0.0;0.0;0.2000799924135208;-0.1512800008058548;1.1331360340118408;0.0;0.0;0.0
839;0.0;0.0;0.0;0.18055999279022217;-0.16299200057983398;1.1448479890823364;0.0;0.0;0.0
842;0.08442399650812149;-0.02025200054049492;0.9889319539070129;0.2000799924135208;-0.15908800065517426;1.132159948348999;0.07000000029802322;0.3499999940395355;0.49000000953674316
844;0.0;0.0;0.0;0.2117919921875;-0.15518400073051453;1.1448479890823364;0.0;0.0;0.0
846;0.0;0.0;0.0;0.1727519929409027;-0.14347200095653534;1.132159948348999;0.0;0.0;0.0
848;0.0;0.0;0.0;0.18055999279022217;-0.1395680010318756;1.1448479890823364;0.0;0.0;0.0
850;0.08466799557209015;-0.020739998668432236;0.9896639585494995;0.2000799924135208;-0.18641600012779236;1.1448479890823364;0.14000000059604645;0.2800000011920929;0.49000000953674316
852;0.0;0.0;0.0;0.16884799301624298;-0.13566400110721588;1.132159948348999;0.0;0.0;0.0
854;0.0;0.0;0.0;0.1727519929409027;-0.1512800008058548;1.1282559633255005;0.0;0.0;0.0
856;0.0;0.0;0.0;0.1727519929409027;-0.15908800065517426;1.1370400190353394;0.0;0.0;0.0
859;0.0849120020866394;-0.020495999604463577;0.98990797996521;0.20788799226284027;-0.15518400073051453;1.148751974105835;0.07000000029802322;0.2800000011920929;0.49000000953674316
861;0.0;0.0;0.0;0.1844639927148819;-0.17470400035381317;1.1526559591293335;0.0;0.0;0.0
863;0.0;0.0;0.0;0.20788799226284027;-0.1668960005044937;1.132159948348999;0.0;0.0;0.0
865;0.0;0.0;0.0;0.2117919921875;-0.15518400073051453;1.1526559591293335;0.0;0.0;0.0
867;0.0849120020866394;-0.019763998687267303;0.9903959631919861;0.1844639927148819;-0.14347200095653534;1.1526559591293335;0.07000000029802322;0.2800000011920929;0.49000000953674316
869;0.0;0.0;0.0;0.18055999279022217;-0.14737600088119507;1.140944004058838;0.0;0.0;0.0
871;0.0;0.0;0.0;0.1727519929409027;-0.1668960005044937;1.1370400190353394;0.0;0.0;0.0
873;0.0;0.0;0.0;0.17665599286556244;-0.14737600088119507;1.1282559633255005;0.0;0.0;0.0
876;0.08417999744415283;-0.020739998668432236;0.9901520013809204;0.20788799226284027;-0.16299200057983398;1.1448479890823364;0.07000000029802322;0.21000000834465027;0.49000000953674316
878;0.0;0.0;0.0;0.18055999279022217;-0.17470400035381317;1.1360639333724976;0.0;0.0;0.0
880;0.0;0.0;0.0;0.19617599248886108;-0.15908800065517426;1.1448479890823364;0.0;0.0;0.0
882;0.0;0.0;0.0;0.19617599248886108;-0.17470400035381317;1.124351978302002;0.0;0.0;0.0
884;0.08466799557209015;-0.02025200054049492;0.9891759753227234;0.19617599248886108;-0.1512800008058548;1.173151969909668;0.14000000059604645;0.21000000834465027;0.49000000953674316
886;0.0;0.0;0.0;0.20788799226284027;-0.1786080002784729;1.1370400190353394;0.0;0.0;0.0
888;0.0;0.0;0.0;0.18055999279022217;-0.17080000042915344;1.148751974105835;0.0;0.0;0.0
890;0.0;0.0;0.0;0.18836799263954163;-0.17080000042915344;1.132159948348999;0.0;0.0;0.0
893;0.08540000021457672;-0.020495999604463577;0.9889319539070129;0.2000799924135208;-0.1668960005044937;1.1448479890823364;0.07000000029802322;0.2800000011920929;0.49000000953674316
895;0.0;0.0;0.0;0.20788799226284027;-0.14347200095653534;1.1448479890823364;0.0;0.0;0.0
897;0.0;0.0;0.0;0.20398399233818054;-0.14737600088119507;1.1448479890823364;0.0;0.0;0.0
899;0.0;0.0;0.0;0.1844639927148819;-0.17080000042915344;1.1282559633255005;0.0;0.0;0.0
901;0.08442399650812149;-0.02000799961388111;0.9901520013809204;0.20398399233818054;-0.15518400073051453;1.1604639291763306;0.14000000059604645;0.2800000011920929;0.49000000953674316
903;0.0;0.0;0.0;0.2000799924135208;-0.15908800065517426;1.1448479890823364;0.0;0.0;0.0
905;0.0;0.0;0.0;0.16884799301624298;-0.16299200057983398;1.1370400190353394;0.0;0.0;0.0
907;0.0;0.0;0.0;0.2000799924135208;-0.1512800008058548;1.1448479890823364;0.0;0.0;0.0
910;0.08466799557209015;-0.020495999604463577;0.9906399846076965;0.19617599248886108;-0.13176000118255615;1.1448479890823364;0.07000000029802322;0.21000000834465027;0.49000000953674316
912;0.0;0.0;0.0;0.2000799924135208;-0.16299200057983398;1.124351978302002;0.0;0.0;0.0
914;0.0;0.0;0.0;0.19617599248886108;-0.17080000042915344;1.148751974105835;0.0;0.0;0.0
916;0.0;0.0;0.0;0.18836799263954163;-0.1395680010318756;1.140944004058838;0.0;0.0;0.0
918;0.08466799557209015;-0.02025200054049492;0.98990797996521;0.18055999279022217;-0.1786080002784729;1.140944004058838;0.07000000029802322;0.2800000011920929;0.5600000023841858
920;0.0;0.0;0.0;0.21569599211215973;-0.1512800008058548;1.132159948348999;0.0;0.0;0.0
922;0.0;0.0;0.0;0.2000799924135208;-0.15908800065517426;1.132159948348999;0.0;0.0;0.0
924;0.0;0.0;0.0;0.20398399233818054;-0.14347200095653534;1.1526559591293335;0.0;0.0;0.0
927;0.08442399650812149;-0.019519999623298645;0.9889319539070129;0.19227199256420135;-0.16299200057983398;1.140944004058838;0.14000000059604645;0.2800000011920929;0.4856249988079071
929;0.0;0.0;0.0;0.2000799924135208;-0.13566400110721588;1.132159948348999;0.0;0.0;0.0
931;0.0;0.0;0.0;0.19617599248886108;-0.1512800008058548;1.1526559591293335;0.0;0.0;0.0
933;0.0;0.0;0.0;0.18836799263954163;-0.14347200095653534;1.1604639291763306;0.0;0.0;0.0
935;0.08564399927854538;-0.02025200054049492;0.98990797996521;0.2117919921875;-0.15908800065517426;1.1038559675216675;0.14000000059604645;0.2800000011920929;0.4856249988079071
937;0.0;0.0;0.0;0.18836799263954163;-0.14737600088119507;1.148751974105835;0.0;0.0;0.0
939;0.0;0.0;0.0;0.2000799924135208;-0.1512800008058548;1.140944004058838;0.0;0.0;0.0
941;0.0;0.0;0.0;0.1844639927148819;-0.15518400073051453;1.156559944152832;0.0;0.0;0.0
944;0.08466799557209015;-0.02025200054049492;0.9891759753227234;0.16884799301624298;-0.13566400110721588;1.140944004058838;0.0;0.27562499046325684;0.48125001788139343
946;0.0;0.0;0.0;0.20788799226284027;-0.1668960005044937;1.1448479890823364;0.0;0.0;0.0
948;0.0;0.0;0.0;0.20788799226284027;-0.14347200095653534;1.1282559633255005;0.0;0.0;0.0
950;0.0;0.0;0.0;0.18836799263954163;-0.16299200057983398;1.1360639333724976;0.0;0.0;0.0
952;0.0849120020866394;-0.020495999604463577;0.9896639585494995;0.18055999279022217;-0.15518400073051453;1.148751974105835;0.07000000029802322;0.2056250125169754;0.48125001788139343
954;0.0;0.0;0.0;0.20788799226284027;-0.1668960005044937;1.140944004058838;0.0;0.0;0.0
956;0.0;0.0;0.0;0.18055999279022217;-0.17470400035381317;1.1360639333724976;0.0;0.0;0.0
958;0.0;0.0;0.0;0.2000799924135208;-0.16299200057983398;1.1370400190353394;0.0;0.0;0.0
961;0.0849120020866394;-0.02025200054049492;0.9891759753227234;0.19227199256420135;-0.16299200057983398;1.132159948348999;0.14000000059604645;0.27562499046325684;0.4768750071525574
963;0.0;0.0;0.0;0.16884799301624298;-0.1512800008058548;1.148751974105835;0.0;0.0;0.0
965;0.0;0.0;0.0;0.20398399233818054;-0.15908800065517426;1.1331360340118408;0.0;0.0;0.0
967;0.0;0.0;0.0;0.21569599211215973;-0.12785600125789642;1.1370400190353394;0.0;0.0;0.0
969;0.08417999744415283;-0.020739998668432236;0.9903959631919861;0.19617599248886108;-0.15518400073051453;1.140944004058838;0.07000000029802322;0.3412500023841858;0.4768750071525574
971;0.0;0.0;0.0;0.18055999279022217;-0.1786080002784729;1.132159948348999;0.0;0.0;0.0
973;0.0;0.0;0.0;0.20398399233818054;-0.17080000042915344;1.140944004058838;0.0;0.0;0.0
975;0.0;0.0;0.0;0.17665599286556244;-0.1512800008058548;1.1282559633255005;0.0;0.0;0.0
978;0.08417999744415283;-0.020495999604463577;0.9903959631919861;0.17665599286556244;-0.14737600088119507;1.140944004058838;0.14000000059604645;0.27125000953674316;0.4724999964237213
980;0.0;0.0;0.0;0.17665599286556244;-0.1668960005044937;1.1448479890823364;0.0;0.0;0.0
982;0.0;0.0;0.0;0.2000799924135208;-0.1668960005044937;1.148751974105835;0.0;0.0;0.0
984;0.0;0.0;0.0;0.19227199256420135;-0.17470400035381317;1.132159948348999;0.0;0.0;0.0
986;0.08417999744415283;-0.019519999623298645;0.98990797996521;0.19227199256420135;-0.16299200057983398;1.165343999862671;0.13562500476837158;0.20125000178813934;0.4724999964237213
988;0.0;0.0;0.0;0.2000799924135208;-0.17470400035381317;1.156559944152832;0.0;0.0;0.0
990;0.0;0.0;0.0;0.17665599286556244;-0.14737600088119507;1.140944004058838;0.0;0.0;0.0
992;0.0;0.0;0.0;0.18055999279022217;-0.15908800065517426;1.140944004058838;0.0;0.0;0.0
995;0.0849120020866394;-0.020495999604463577;0.9891759753227234;0.20398399233818054;-0.16299200057983398;1.1360639333724976;0.06562499701976776;0.27125000953674316;0.5381249785423279
997;0.0;0.0;0.0;0.19617599248886108;-0.15908800065517426;1.1604639291763306;0.0;0.0;0.0
999;0.0;0.0;0.0;0.1727519929409027;-0.15908800065517426;1.1614400148391724;0.0;0.0;0.0
1001;0.0;0.0;0.0;0.1844639927148819;-0.15908800065517426;1.1370400190353394;0.0;0.0;0.0
1003;0.08540000021457672;-0.02000799961388111;0.9889319539070129;0.18055999279022217;-0.12785600125789642;1.1526559591293335;0.13562500476837158;0.2668749988079071;0.4637500047683716
1005;0.0;0.0;0.0;0.20788799226284027;-0.15908800065517426;1.132159948348999;0.0;0.0;0.0
1007;0.0;0.0;0.0;0.21569599211215973;-0.15518400073051453;1.1526559591293335;0.0;0.0;0.0
1010;0.0;0.0;0.0;0.19227199256420135;-0.14347200095653534;1.156559944152832;0.0;0.0;0.0
1012;0.08442399650812149;-0.02025200054049492;0.9896639585494995;0.1844639927148819;-0.1903200000524521;1.156559944152832;-0.0043750000186264515;0.2668749988079071;0.4637500047683716
1014;0.0;0.0;0.0;0.18836799263954163;-0.15908800065517426;1.140944004058838;0.0;0.0;0.0
1016;0.0;0.0;0.0;0.1727519929409027;-0.16299200057983398;1.132159948348999;0.0;0.0;0.0
1018;0.0;0.0;0.0;0.19617599248886108;-0.15908800065517426;1.148751974105835;0.0;0.0;0.0
1020;0.08515600115060806;-0.020739998668432236;0.9901520013809204;0.19617599248886108;-0.15908800065517426;1.156559944152832;0.13562500476837158;0.2668749988079071;0.4593750238418579
1022;0.0;0.0;0.0;0.19617599248886108;-0.15518400073051453;1.1614400148391724;0.0;0.0;0.0
1024;0.0;0.0;0.0;0.19227199256420135;-0.15908800065517426;1.156559944152832;0.0;0.0;0.0
1027;0.0;0.0;0.0;0.2000799924135208;-0.14737600088119507;1.1448479890823364;0.0;0.0;0.0
1029;0.0849120020866394;-0.020495999604463577;0.9896639585494995;0.18836799263954163;-0.17080000042915344;1.1370400190353394;0.06562499701976776;0.26249998807907104;0.4593750238418579
1031;0.0;0.0;0.0;0.2117919921875;-0.17470400035381317;1.140944004058838;0.0;0.0;0.0
1033;0.0;0.0;0.0;0.19227199256420135;-0.15518400073051453;1.1282559633255005;0.0;0.0;0.0
1035;0.0;0.0;0.0;0.2000799924135208;-0.15908800065517426;1.1282559633255005;0.0;0.0;0.0
1037;0.08564399927854538;-0.02025200054049492;0.9894199967384338;0.2235039919614792;-0.15908800065517426;1.1370400190353394;0.13562500476837158;0.33249998092651367;0.3850000202655792
1039;0.0;0.0;0.0;0.2000799924135208;-0.12004800140857697;1.1204479932785034;0.0;0.0;0.0
1041;0.0;0.0;0.0;0.19227199256420135;-0.15908800065517426;1.148751974105835;0.0;0.0;0.0
1044;0.0;0.0;0.0;0.2117919921875;-0.15518400073051453;1.1526559591293335;0.0;0.0;0.0
1046;0.08515600115060806;-0.02000799961388111;0.9903959631919861;0.20398399233818054;-0.15518400073051453;1.1116639375686646;0.13562500476837158;0.33249998092651367;0.45500001311302185
1048;0.0;0.0;0.0;0.18055999279022217;-0.18251200020313263;1.132159948348999;0.0;0.0;0.0
1050;0.0;0.0;0.0;0.19227199256420135;-0.15518400073051453;1.1360639333724976;0.0;0.0;0.0
1052;0.0;0.0;0.0;0.18836799263954163;-0.1395680010318756;1.140944004058838;0.0;0.0;0.0
1054;0.08442399650812149;-0.02025200054049492;0.9903959631919861;0.2000799924135208;-0.16299200057983398;1.1370400190353394;0.13124999403953552;0.2581250071525574;0.4506250023841858
1056;0.0;0.0;0.0;0.1844639927148819;-0.15518400073051453;1.148751974105835;0.0;0.0;0.0
1058;0.0;0.0;0.0;0.17665599286556244;-0.16299200057983398;1.1165440082550049;0.0;0.0;0.0
1061;0.0;0.0;0.0;0.21959999203681946;-0.15518400073051453;1.148751974105835;0.0;0.0;0.0
1063;0.08515600115060806;-0.019276000559329987;0.9901520013809204;0.20398399233818054;-0.1512800008058548;1.140944004058838;0.13124999403953552;0.18812501430511475;0.4506250023841858
1065;0.0;0.0;0.0;0.18836799263954163;-0.15518400073051453;1.1526559591293335;0.0;0.0;0.0
1067;0.0;0.0;0.0;0.18836799263954163;-0.17080000042915344;1.124351978302002;0.0;0.0;0.0
1069;0.0;0.0;0.0;0.20398399233818054;-0.1395680010318756;1.1204479932785034;0.0;0.0;0.0
1071;0.0849120020866394;-0.019763998687267303;0.9891759753227234;0.2117919921875;-0.16299200057983398;1.1204479932785034;0.13124999403953552;0.18812501430511475;0.4462500214576721
1073;0.0;0.0;0.0;0.1844639927148819;-0.1668960005044937;1.132159948348999;0.0;0.0;0.0
1075;0.0;0.0;0.0;0.19617599248886108;-0.15518400073051453;1.132159948348999;0.0;0.0;0.0
1078;0.0;0.0;0.0;0.18836799263954163;-0.17080000042915344;1.1370400190353394;0.0;0.0;0.0
1080;0.0849120020866394;-0.02025200054049492;0.9894199967384338;0.20398399233818054;-0.13176000118255615;1.140944004058838;0.13124999403953552;0.32374998927116394;0.4462500214576721
1082;0.0;0.0;0.0;0.2117919921875;-0.1786080002784729;1.156559944152832;0.0;0.0;0.0
1084;0.0;0.0;0.0;0.19227199256420135;-0.15908800065517426;1.1526559591293335;0.0;0.0;0.0
1086;0.0;0.0;0.0;0.19227199256420135;-0.1903200000524521;1.148751974105835;0.0;0.0;0.0
1088;0.08417999744415283;-0.02025200054049492;0.9903959631919861;0.21959999203681946;-0.12785600125789642;1.132159948348999;-0.008750000037252903;0.2537499964237213;0.44187501072883606
1090;0.0;0.0;0.0;0.2117919921875;-0.15518400073051453;1.1448479890823364;0.0;0.0;0.0
1092;0.0;0.0;0.0;0.20398399233818054;-0.15518400073051453;1.156559944152832;0.0;0.0;0.0
1095;0.0;0.0;0.0;0.19617599248886108;-0.1668960005044937;1.1526559591293335;0.0;0.0;0.0
1097;0.08466799557209015;-0.019763998687267303;0.98990797996521;0.20788799226284027;-0.15518400073051453;1.132159948348999;0.061250001192092896;0.1837500035762787;0.44187501072883606
1099;0.0;0.0;0.0;0.19227199256420135;-0.13566400110721588;1.1604639291763306;0.0;0.0;0.0
1101;0.0;0.0;0.0;0.2000799924135208;-0.15908800065517426;1.1370400190353394;0.0;0.0;0.0
1103;0.0;0.0;0.0;0.18836799263954163;-0.15908800065517426;1.1282559633255005;0.0;0.0;0.0
1105;0.08515600115060806;-0.02025200054049492;0.9891759753227234;0.1727519929409027;-0.14347200095653534;1.132159948348999;0.061250001192092896;0.1837500035762787;0.4375
1107;0.0;0.0;0.0;0.16884799301624298;-0.15518400073051453;1.132159948348999;0.0;0.0;0.0
1109;0.0;0.0;0.0;0.18055999279022217;-0.1395680010318756;1.132159948348999;0.0;0.0;0.0
1112;0.0;0.0;0.0;0.1844639927148819;-0.15908800065517426;1.1204479932785034;0.0;0.0;0.0
1114;0.08417999744415283;-0.02000799961388111;0.9901520013809204;0.19617599248886108;-0.14347200095653534;1.148751974105835;0.13124999403953552;0.3193749785423279;0.4375
1116;0.0;0.0;0.0;0.1727519929409027;-0.15908800065517426;1.1282559633255005;0.0;0.0;0.0
1118;0.0;0.0;0.0;0.18055999279022217;-0.1395680010318756;1.165343999862671;0.0;0.0;0.0
1120;0.0;0.0;0.0;0.19617599248886108;-0.13566400110721588;1.1448479890823364;0.0;0.0;0.0
1122;0.08393599838018417;-0.02025200054049492;0.98990797996521;0.18055999279022217;-0.13566400110721588;1.148751974105835;0.13124999403953552;0.24937500059604645;0.503125011920929
1124;0.0;0.0;0.0;0.16494399309158325;-0.15908800065517426;1.1370400190353394;0.0;0.0;0.0
1126;0.0;0.0;0.0;0.17665599286556244;-0.1395680010318756;1.148751974105835;0.0;0.0;0.0
1129;0.0;0.0;0.0;0.1727519929409027;-0.17470400035381317;1.1604639291763306;0.0;0.0;0.0
1131;0.08442399650812149;-0.02122800052165985;0.9896639585494995;0.2000799924135208;-0.16299200057983398;1.124351978302002;0.061250001192092896;0.24937500059604645;0.43312501907348633
1133;0.0;0.0;0.0;0.2000799924135208;-0.1512800008058548;1.1614400148391724;0.0;0.0;0.0
1135;0.0;0.0;0.0;0.21569599211215973;-0.15518400073051453;1.1448479890823364;0.0;0.0;0.0
1137;0.0;0.0;0.0;0.17665599286556244;-0.15518400073051453;1.132159948348999;0.0;0.0;0.0
1139;0.08417999744415283;-0.02000799961388111;0.9896639585494995;0.19617599248886108;-0.11614400148391724;1.140944004058838;0.05687499791383743;0.24937500059604645;0.42875000834465027
1141;0.0;0.0;0.0;0.18836799263954163;-0.15908800065517426;1.140944004058838;0.0;0.0;0.0
1143;0.0;0.0;0.0;0.1727519929409027;-0.15518400073051453;1.1360639333724976;0.0;0.0;0.0
1146;0.0;0.0;0.0;0.2000799924135208;-0.15518400073051453;1.1448479890823364;0.0;0.0;0.0
1148;0.08564399927854538;-0.02000799961388111;0.9889319539070129;0.2000799924135208;-0.14737600088119507;1.140944004058838;0.05687499791383743;0.17500001192092896;0.42875000834465027
1150;0.0;0.0;0.0;0.2000799924135208;-0.14737600088119507;1.140944004058838;0.0;0.0;0.0
1152;0.0;0.0;0.0;0.19617599248886108;-0.13176000118255615;1.1370400190353394;0.0;0.0;0.0
1154;0.0;0.0;0.0;0.19617599248886108;-0.1786080002784729;1.1282559633255005;0.0;0.0;0.0
1156;0.08466799557209015;-0.020739998668432236;0.9884439706802368;0.18055999279022217;-0.12785600125789642;1.156559944152832;0.05687499791383743;0.24500000476837158;0.4243749976158142
1159;0.0;0.0;0.0;0.20398399233818054;-0.1512800008058548;1.124351978302002;0.0;0.0;0.0
1160;0.0;0.0;0.0;0.19617599248886108;-0.15518400073051453;1.165343999862671;0.0;0.0;0.0
1163;0.0;0.0;0.0;0.17665599286556244;-0.1512800008058548;1.1370400190353394;0.0;0.0;0.0
1165;0.08417999744415283;-0.020495999604463577;0.9903959631919861;0.18055999279022217;-0.15518400073051453;1.140944004058838;0.12687499821186066;0.24500000476837158;0.4243749976158142
1167;0.0;0.0;0.0;0.18055999279022217;-0.1512800008058548;1.132159948348999;0.0;0.0;0.0
1169;0.0;0.0;0.0;0.2000799924135208;-0.15518400073051453;1.148751974105835;0.0;0.0;0.0
1171;0.0;0.0;0.0;0.19227199256420135;-0.15908800065517426;1.1526559591293335;0.0;0.0;0.0
1173;0.08442399650812149;-0.020983999595046043;0.990884006023407;0.18836799263954163;-0.15908800065517426;1.1448479890823364;0.12687499821186066;0.17500001192092896;0.42000001668930054
1175;0.0;0.0;0.0;0.19227199256420135;-0.16299200057983398;1.1360639333724976;0.0;0.0;0.0
1177;0.0;0.0;0.0;0.20788799226284027;-0.14737600088119507;1.140944004058838;0.0;0.0;0.0
1180;0.0;0.0;0.0;0.2117919921875;-0.13566400110721588;1.140944004058838;0.0;0.0;0.0
1182;0.08540000021457672;-0.019763998687267303;0.9896639585494995;0.2235039919614792;-0.13566400110721588;1.1282559633255005;0.12687499821186066;0.1706250011920929;0.42000001668930054
1184;0.0;0.0;0.0;0.2000799924135208;-0.15908800065517426;1.1360639333724976;0.0;0.0;0.0
1186;0.0;0.0;0.0;0.16884799301624298;-0.1395680010318756;1.148751974105835;0.0;0.0;0.0
1188;0.0;0.0;0.0;0.19227199256420135;-0.1512800008058548;1.1448479890823364;0.0;0.0;0.0
1190;0.08515600115060806;-0.019519999623298645;0.9894199967384338;0.19227199256420135;-0.14347200095653534;1.148751974105835;0.05687499791383743;0.31062498688697815;0.4156250059604645
1193;0.0;0.0;0.0;0.20788799226284027;-0.14347200095653534;1.1604639291763306;0.0;0.0;0.0
1195;0.0;0.0;0.0;0.19617599248886108;-0.18251200020313263;1.148751974105835;0.0;0.0;0.0
1197;0.0;0.0;0.0;0.1571359932422638;-0.14347200095653534;1.1370400190353394;0.0;0.0;0.0
1199;0.0849120020866394;-0.019519999623298645;0.98990797996521;0.19617599248886108;-0.13566400110721588;1.148751974105835;0.05687499791383743;0.24062499403953552;0.4856249988079071
1201;0.0;0.0;0.0;0.18055999279022217;-0.16299200057983398;1.1282559633255005;0.0;0.0;0.0
1203;0.0;0.0;0.0;0.18055999279022217;-0.1512800008058548;1.140944004058838;0.0;0.0;0.0
1205;0.0;0.0;0.0;0.1727519929409027;-0.15518400073051453;1.140944004058838;0.0;0.0;0.0
1207;0.08466799557209015;-0.02025200054049492;0.9901520013809204;0.19617599248886108;-0.1512800008058548;1.132159948348999;0.12687499821186066;0.23624999821186066;0.3412500023841858
1210;0.0;0.0;0.0;0.2117919921875;-0.15908800065517426;1.140944004058838;0.0;0.0;0.0
1212;0.0;0.0;0.0;0.19227199256420135;-0.1512800008058548;1.1526559591293335;0.0;0.0;0.0
1214;0.0;0.0;0.0;0.19617599248886108;-0.14347200095653534;1.1282559633255005;0.0;0.0;0.0
1216;0.08417999744415283;-0.020739998668432236;0.9891759753227234;0.18055999279022217;-0.1512800008058548;1.1370400190353394;0.12687499821186066;0.23624999821186066;0.4112499952316284
1218;0.0;0.0;0.0;0.19617599248886108;-0.17080000042915344;1.148751974105835;0.0;0.0;0.0
1220;0.0;0.0;0.0;0.20398399233818054;-0.17080000042915344;1.1370400190353394;0.0;0.0;0.0
1222;0.0;0.0;0.0;0.2000799924135208;-0.12785600125789642;1.132159948348999;0.0;0.0;0.0
1224;0.08442399650812149;-0.020739998668432236;0.98990797996521;0.19617599248886108;-0.18251200020313263;1.148751974105835;0.12250000238418579;0.16625000536441803;0.40687501430511475
1227;0.0;0.0;0.0;0.19227199256420135;-0.16299200057983398;1.132159948348999;0.0;0.0;0.0
1229;0.0;0.0;0.0;0.20788799226284027;-0.16299200057983398;1.1360639333724976;0.0;0.0;0.0
1231;0.0;0.0;0.0;0.1844639927148819;-0.13566400110721588;1.1526559591293335;0.0;0.0;0.0
1233;0.08442399650812149;-0.020495999604463577;0.9889319539070129;0.20788799226284027;-0.1395680010318756;1.1360639333724976;0.05250000208616257;0.16625000536441803;0.40687501430511475
1235;0.0;0.0;0.0;0.2000799924135208;-0.16299200057983398;1.124351978302002;0.0;0.0;0.0
1237;0.0;0.0;0.0;0.1844639927148819;-0.1395680010318756;1.156559944152832;0.0;0.0;0.0
1239;0.0;0.0;0.0;0.19617599248886108;-0.14737600088119507;1.1370400190353394;0.0;0.0;0.0
1241;0.08442399650812149;-0.020983999595046043;0.9901520013809204;0.18836799263954163;-0.16299200057983398;1.1370400190353394;0.12250000238418579;0.23624999821186066;0.40687501430511475
1244;0.0;0.0;0.0;0.2000799924135208;-0.1668960005044937;1.1526559591293335;0.0;0.0;0.0
1246;0.0;0.0;0.0;0.18836799263954163;-0.15908800065517426;1.1526559591293335;0.0;0.0;0.0
1248;0.0;0.0;0.0;0.19227199256420135;-0.15518400073051453;1.1526559591293335;0.0;0.0;0.0
1250;0.08417999744415283;-0.020983999595046043;0.9896639585494995;0.2000799924135208;-0.16299200057983398;1.1360639333724976;0.12250000238418579;0.16187500953674316;0.4724999964237213
1252;0.0;0.0;0.0;0.1844639927148819;-0.1512800008058548;1.132159948348999;0.0;0.0;0.0
1254;0.0;0.0;0.0;0.19227199256420135;-0.15908800065517426;1.1282559633255005;0.0;0.0;0.0
1256;0.0;0.0;0.0;0.18055999279022217;-0.1786080002784729;1.1448479890823364;0.0;0.0;0.0
1258;0.0849120020866394;-0.02025200054049492;0.9889319539070129;0.19617599248886108;-0.15908800065517426;1.140944004058838;0.05250000208616257;0.2318750023841858;0.46812498569488525
1260;0.0;0.0;0.0;0.19617599248886108;-0.1395680010318756;1.140944004058838;0.0;0.0;0.0
1263;0.0;0.0;0.0;0.2000799924135208;-0.16299200057983398;1.1448479890823364;0.0;0.0;0.0
1265;0.0;0.0;0.0;0.17665599286556244;-0.14737600088119507;1.140944004058838;0.0;0.0;0.0
1267;0.08442399650812149;-0.020739998668432236;0.98990797996521;0.1844639927148819;-0.14347200095653534;1.140944004058838;0.05250000208616257;0.3018749952316284;0.3981249928474426
1269;0.0;0.0;0.0;0.18836799263954163;-0.14737600088119507;1.156559944152832;0.0;0.0;0.0
1271;0.0;0.0;0.0;0.18836799263954163;-0.1239520013332367;1.140944004058838;0.0;0.0;0.0
1273;0.0;0.0;0.0;0.19227199256420135;-0.1668960005044937;1.1526559591293335;0.0;0.0;0.0
1275;0.08417999744415283;-0.020495999604463577;0.9891759753227234;0.2000799924135208;-0.1512800008058548;1.132159948348999;0.05250000208616257;0.2318750023841858;0.3981249928474426
1278;0.0;0.0;0.0;0.1727519929409027;-0.14737600088119507;1.1282559633255005;0.0;0.0;0.0
1280;0.0;0.0;0.0;0.2000799924135208;-0.1668960005044937;1.1526559591293335;0.0;0.0;0.0
1282;0.0;0.0;0.0;0.18836799263954163;-0.14737600088119507;1.1360639333724976;0.0;0.0;0.0
1284;0.08466799557209015;-0.019763998687267303;0.9889319539070129;0.19617599248886108;-0.14347200095653534;1.1526559591293335;0.12250000238418579;0.1574999988079071;0.4637500047683716
1286;0.0;0.0;0.0;0.19617599248886108;-0.15518400073051453;1.124351978302002;0.0;0.0;0.0
1288;0.0;0.0;0.0;0.1844639927148819;-0.1668960005044937;1.1448479890823364;0.0;0.0;0.0
1290;0.0;0.0;0.0;0.20398399233818054;-0.15908800065517426;1.1331360340118408;0.0;0.0;0.0
1292;0.08588799834251404;-0.02000799961388111;0.9884439706802368;0.20398399233818054;-0.14347200095653534;1.1360639333724976;0.05250000208616257;0.29749998450279236;0.39375001192092896
1295;0.0;0.0;0.0;0.18836799263954163;-0.1668960005044937;1.132159948348999;0.0;0.0;0.0
1297;0.0;0.0;0.0;0.17665599286556244;-0.16299200057983398;1.1370400190353394;0.0;0.0;0.0
1299;0.0;0.0;0.0;0.1844639927148819;-0.15908800065517426;1.148751974105835;0.0;0.0;0.0
1301;0.08442399650812149;-0.020739998668432236;0.9903959631919861;0.18836799263954163;-0.15908800065517426;1.1370400190353394;0.05250000208616257;0.29749998450279236;0.3893750011920929
1303;0.0;0.0;0.0;0.2117919921875;-0.15908800065517426;1.132159948348999;0.0;0.0;0.0
1305;0.0;0.0;0.0;0.2117919921875;-0.13566400110721588;1.1604639291763306;0.0;0.0;0.0
1307;0.0;0.0;0.0;0.1727519929409027;-0.1512800008058548;1.1448479890823364;0.0;0.0;0.0
1309;0.08393599838018417;-0.020739998668432236;0.9901520013809204;0.2000799924135208;-0.1395680010318756;1.132159948348999;0.05250000208616257;0.22312499582767487;0.3893750011920929
1312;0.0;0.0;0.0;0.2000799924135208;-0.14347200095653534;1.140944004058838;0.0;0.0;0.0
1314;0.0;0.0;0.0;0.19227199256420135;-0.17080000042915344;1.1526559591293335;0.0;0.0;0.0
1316;0.0;0.0;0.0;0.16884799301624298;-0.17080000042915344;1.1448479890823364;0.0;0.0;0.0
1318;0.08344800025224686;-0.02025200054049492;0.9906399846076965;0.19227199256420135;-0.18641600012779236;1.148751974105835;0.05250000208616257;0.22312499582767487;0.38499999046325684
1320;0.0;0.0;0.0;0.20788799226284027;-0.17080000042915344;1.1282559633255005;0.0;0.0;0.0
1322;0.0;0.0;0.0;0.1844639927148819;-0.15908800065517426;1.132159948348999;0.0;0.0;0.0
1324;0.0;0.0;0.0;0.2000799924135208;-0.15518400073051453;1.140944004058838;0.0;0.0;0.0
1326;0.0861319974064827;-0.02025200054049492;0.9891759753227234;0.20398399233818054;-0.13566400110721588;1.132159948348999;0.11812499910593033;0.08312499523162842;0.38499999046325684
1329;0.0;0.0;0.0;0.20398399233818054;-0.17080000042915344;1.148751974105835;0.0;0.0;0.0
1331;0.0;0.0;0.0;0.19617599248886108;-0.15908800065517426;1.132159948348999;0.0;0.0;0.0
1333;0.0;0.0;0.0;0.20398399233818054;-0.15518400073051453;1.1204479932785034;0.0;0.0;0.0
1335;0.08564399927854538;-0.019763998687267303;0.9889319539070129;0.18836799263954163;-0.15518400073051453;1.148751974105835;0.048124998807907104;0.2931250035762787;0.38062500953674316
1337;0.0;0.0;0.0;0.18836799263954163;-0.13566400110721588;1.132159948348999;0.0;0.0;0.0
1339;0.0;0.0;0.0;0.18055999279022217;-0.1512800008058548;1.1526559591293335;0.0;0.0;0.0
1341;0.0;0.0;0.0;0.18055999279022217;-0.1395680010318756;1.140944004058838;0.0;0.0;0.0
1343;0.0832040011882782;-0.02147199958562851;0.9894199967384338;0.18055999279022217;-0.1668960005044937;1.1448479890823364;0.048124998807907104;0.2887499928474426;0.38062500953674316
1346;0.0;0.0;0.0;0.16494399309158325;-0.15518400073051453;1.140944004058838;0.0;0.0;0.0
1348;0.0;0.0;0.0;0.19617599248886108;-0.17080000042915344;1.132159948348999;0.0;0.0;0.0
1350;0.0;0.0;0.0;0.20788799226284027;-0.1512800008058548;1.1360639333724976;0.0;0.0;0.0
1352;0.08442399650812149;-0.02000799961388111;0.98990797996521;0.1844639927148819;-0.14347200095653534;1.132159948348999;0.11812499910593033;0.14875000715255737;0.38062500953674316
1354;0.0;0.0;0.0;0.1844639927148819;-0.1395680010318756;1.1526559591293335;0.0;0.0;0.0
1356;0.0;0.0;0.0;0.20398399233818054;-0.14347200095653534;1.1370400190353394;0.0;0.0;0.0
1358;0.0;0.0;0.0;0.2000799924135208;-0.1395680010318756;1.156559944152832;0.0;0.0;0.0
1360;0.08588799834251404;-0.019763998687267303;0.9889319539070129;0.2000799924135208;-0.16299200057983398;1.148751974105835;0.11812499910593033;0.14875000715255737;0.3762499988079071
1363;0.0;0.0;0.0;0.20788799226284027;-0.14347200095653534;1.1448479890823364;0.0;0.0;0.0
1365;0.0;0.0;0.0;0.2000799924135208;-0.14737600088119507;1.124351978302002;0.0;0.0;0.0
1367;0.0;0.0;0.0;0.1727519929409027;-0.15908800065517426;1.1370400190353394;0.0;0.0;0.0
1369;0.0849120020866394;-0.02000799961388111;0.9896639585494995;0.2000799924135208;-0.15908800065517426;1.1448479890823364;0.048124998807907104;0.35875001549720764;0.3762499988079071
1371;0.0;0.0;0.0;0.19227199256420135;-0.15908800065517426;1.148751974105835;0.0;0.0;0.0
1373;0.0;0.0;0.0;0.19617599248886108;-0.14347200095653534;1.140944004058838;0.0;0.0;0.0
1375;0.0;0.0;0.0;0.19617599248886108;-0.15908800065517426;1.1370400190353394;0.0;0.0;0.0
1377;0.08369199931621552;-0.02025200054049492;0.9901520013809204;0.19617599248886108;-0.15518400073051453;1.156559944152832;0.048124998807907104;0.21437500417232513;0.37187501788139343
1380;0.0;0.0;0.0;0.19227199256420135;-0.15908800065517426;1.1526559591293335;0.0;0.0;0.0
1382;0.0;0.0;0.0;0.2235039919614792;-0.1512800008058548;1.132159948348999;0.0;0.0;0.0
1384;0.0;0.0;0.0;0.18836799263954163;-0.15518400073051453;1.1448479890823364;0.0;0.0;0.0
1386;0.08442399650812149;-0.02025200054049492;0.9911279678344727;0.19227199256420135;-0.15518400073051453;1.148751974105835;0.11812499910593033;0.1443750113248825;0.37187501788139343
1388;0.0;0.0;0.0;0.16884799301624298;-0.13566400110721588;1.140944004058838;0.0;0.0;0.0
1390;0.0;0.0;0.0;0.1844639927148819;-0.14347200095653534;1.132159948348999;0.0;0.0;0.0
1392;0.0;0.0;0.0;0.2117919921875;-0.17470400035381317;1.1448479890823364;0.0;0.0;0.0
1394;0.08442399650812149;-0.020739998668432236;0.9889319539070129;0.2117919921875;-0.17080000042915344;1.1282559633255005;0.048124998807907104;0.1443750113248825;0.3675000071525574
1397;0.0;0.0;0.0;0.19617599248886108;-0.15518400073051453;1.140944004058838;0.0;0.0;0.0
1399;0.0;0.0;0.0;0.20398399233818054;-0.17470400035381317;1.140944004058838;0.0;0.0;0.0
1401;0.0;0.0;0.0;0.2000799924135208;-0.16299200057983398;1.1526559591293335;0.0;0.0;0.0
1403;0.08661999553442001;-0.02000799961388111;0.9894199967384338;0.16884799301624298;-0.15518400073051453;1.1282559633255005;0.11812499910593033;0.28437501192092896;0.3675000071525574
1405;0.0;0.0;0.0;0.2117919921875;-0.17470400035381317;1.1370400190353394;0.0;0.0;0.0
1407;0.0;0.0;0.0;0.17665599286556244;-0.1668960005044937;1.132159948348999;0.0;0.0;0.0
1409;0.0;0.0;0.0;0.16884799301624298;-0.1512800008058548;1.1282559633255005;0.0;0.0;0.0
1411;0.08417999744415283;-0.020495999604463577;0.9906399846076965;0.20788799226284027;-0.17080000042915344;1.132159948348999;0.048124998807907104;0.42000001668930054;0.3675000071525574
1414;0.0;0.0;0.0;0.20398399233818054;-0.1668960005044937;1.1604639291763306;0.0;0.0;0.0
1416;0.0;0.0;0.0;0.2000799924135208;-0.13176000118255615;1.1370400190353394;0.0;0.0;0.0
1418;0.0;0.0;0.0;0.2000799924135208;-0.17470400035381317;1.140944004058838;0.0;0.0;0.0
1420;0.08295999467372894;-0.02000799961388111;0.9911279678344727;0.20398399233818054;-0.1395680010318756;1.1604639291763306;0.11374999582767487;0.21000000834465027;0.3631250262260437
1422;0.0;0.0;0.0;0.2117919921875;-0.15518400073051453;1.1204479932785034;0.0;0.0;0.0
1424;0.0;0.0;0.0;0.20788799226284027;-0.14737600088119507;1.140944004058838;0.0;0.0;0.0
1426;0.0;0.0;0.0;0.19617599248886108;-0.15518400073051453;1.148751974105835;0.0;0.0;0.0
1428;0.0861319974064827;-0.02025200054049492;0.9886879920959473;0.2000799924135208;-0.1512800008058548;1.1370400190353394;0.11374999582767487;0.07000000029802322;0.3631250262260437
1431;0.0;0.0;0.0;0.18836799263954163;-0.1668960005044937;1.1448479890823364;0.0;0.0;0.0
1433;0.0;0.0;0.0;0.18836799263954163;-0.15908800065517426;1.132159948348999;0.0;0.0;0.0
1435;0.0;0.0;0.0;0.18836799263954163;-0.14347200095653534;1.1448479890823364;0.0;0.0;0.0
1437;0.08588799834251404;-0.02025200054049492;0.9889319539070129;0.2235039919614792;-0.18251200020313263;1.140944004058838;0.11374999582767487;0.21000000834465027;0.35875001549720764
1439;0.0;0.0;0.0;0.17665599286556244;-0.15908800065517426;1.1370400190353394;0.0;0.0;0.0
1441;0.0;0.0;0.0;0.20398399233818054;-0.15908800065517426;1.140944004058838;0.0;0.0;0.0
1443;0.0;0.0;0.0;0.19227199256420135;-0.1512800008058548;1.140944004058838;0.0;0.0;0.0
1445;0.08344800025224686;-0.02000799961388111;0.9901520013809204;0.2117919921875;-0.1395680010318756;1.148751974105835;-0.09624999761581421;0.27562499046325684;0.35875001549720764
1448;0.0;0.0;0.0;0.19617599248886108;-0.15518400073051453;1.156559944152832;0.0;0.0;0.0
1450;0.0;0.0;0.0;0.18836799263954163;-0.15518400073051453;1.148751974105835;0.0;0.0;0.0
1452;0.0;0.0;0.0;0.19617599248886108;-0.15908800065517426;1.140944004058838;0.0;0.0;0.0
1454;0.08369199931621552;-0.020739998668432236;0.9911279678344727;0.17665599286556244;-0.1668960005044937;1.140944004058838;0.04374999925494194;0.13562500476837158;0.3543750047683716
1456;0.0;0.0;0.0;0.18836799263954163;-0.14347200095653534;1.1604639291763306;0.0;0.0;0.0
1458;0.0;0.0;0.0;0.1844639927148819;-0.1668960005044937;1.148751974105835;0.0;0.0;0.0
1460;0.0;0.0;0.0;0.1844639927148819;-0.15908800065517426;1.140944004058838;0.0;0.0;0.0
1463;0.08515600115060806;-0.019519999623298645;0.9911279678344727;0.20398399233818054;-0.17080000042915344;1.148751974105835;0.04374999925494194;0.2056249976158142;0.3543750047683716
1465;0.0;0.0;0.0;0.19227199256420135;-0.1668960005044937;1.132159948348999;0.0;0.0;0.0
1467;0.0;0.0;0.0;0.19227199256420135;-0.1512800008058548;1.1526559591293335;0.0;0.0;0.0
1469;0.0;0.0;0.0;0.20398399233818054;-0.15518400073051453;1.148751974105835;0.0;0.0;0.0
1471;0.08344800025224686;-0.02025200054049492;0.990884006023407;0.19227199256420135;-0.14737600088119507;1.1526559591293335;0.11374999582767487;0.27562499046325684;0.3543750047683716
1473;0.0;0.0;0.0;0.15323199331760406;-0.15518400073051453;1.148751974105835;0.0;0.0;0.0
1475;0.0;0.0;0.0;0.18836799263954163;-0.17470400035381317;1.148751974105835;0.0;0.0;0.0
1477;0.0;0.0;0.0;0.16884799301624298;-0.16299200057983398;1.1614400148391724;0.0;0.0;0.0
1479;0.08393599838018417;-0.02000799961388111;0.9896639585494995;0.19617599248886108;-0.1395680010318756;1.107759952545166;0.11374999582767487;0.13562500476837158;0.42000001668930054
1482;0.0;0.0;0.0;0.19227199256420135;-0.16299200057983398;1.1126400232315063;0.0;0.0;0.0
1484;0.0;0.0;0.0;0.20788799226284027;-0.15518400073051453;1.1448479890823364;0.0;0.0;0.0
1486;0.0;0.0;0.0;0.2000799924135208;-0.14347200095653534;1.148751974105835;0.0;0.0;0.0
1488;0.08540000021457672;-0.02000799961388111;0.9894199967384338;0.1844639927148819;-0.1786080002784729;1.1448479890823364;0.04374999925494194;0.20125000178813934;0.42000001668930054
1490;0.0;0.0;0.0;0.18055999279022217;-0.1668960005044937;1.1165440082550049;0.0;0.0;0.0
1492;0.0;0.0;0.0;0.19227199256420135;-0.15908800065517426;1.156559944152832;0.0;0.0;0.0
1494;0.0;0.0;0.0;0.19617599248886108;-0.1512800008058548;1.148751974105835;0.0;0.0;0.0
1496;0.08417999744415283;-0.020495999604463577;0.9901520013809204;0.21569599211215973;-0.15908800065517426;1.132159948348999;0.11374999582767487;0.20125000178813934;0.34562501311302185
1499;0.0;0.0;0.0;0.19617599248886108;-0.14347200095653534;1.132159948348999;0.0;0.0;0.0
1501;0.0;0.0;0.0;0.19617599248886108;-0.13176000118255615;1.1370400190353394;0.0;0.0;0.0
1503;0.0;0.0;0.0;0.19227199256420135;-0.17470400035381317;1.148751974105835;0.0;0.0;0.0
1505;0.08442399650812149;-0.019763998687267303;0.98990797996521;0.2117919921875;-0.17470400035381317;1.1604639291763306;0.11374999582767487;0.13125000894069672;0.34562501311302185
1507;0.0;0.0;0.0;0.19617599248886108;-0.1512800008058548;1.1692479848861694;0.0;0.0;0.0
1509;0.0;0.0;0.0;0.17665599286556244;-0.14347200095653534;1.099951982498169;0.0;0.0;0.0
1511;0.0;0.0;0.0;0.18836799263954163;-0.1512800008058548;1.1448479890823364;0.0;0.0;0.0
1513;0.08540000021457672;-0.020495999604463577;0.9894199967384338;0.21959999203681946;-0.1668960005044937;1.156559944152832;0.04374999925494194;0.27125000953674316;0.34562501311302185
1516;0.0;0.0;0.0;0.18055999279022217;-0.14347200095653534;1.148751974105835;0.0;0.0;0.0
1518;0.0;0.0;0.0;0.20398399233818054;-0.16299200057983398;1.140944004058838;0.0;0.0;0.0
1520;0.0;0.0;0.0;0.18055999279022217;-0.17470400035381317;1.156559944152832;0.0;0.0;0.0
1522;0.08466799557209015;-0.02025200054049492;0.9913719892501831;0.1844639927148819;-0.1395680010318756;1.156559944152832;0.04374999925494194;0.2668749988079071;0.3412500023841858
1524;0.0;0.0;0.0;0.19617599248886108;-0.13176000118255615;1.1526559591293335;0.0;0.0;0.0
1526;0.0;0.0;0.0;0.2000799924135208;-0.1512800008058548;1.132159948348999;0.0;0.0;0.0
1528;0.0;0.0;0.0;0.18836799263954163;-0.14737600088119507;1.148751974105835;0.0;0.0;0.0
1531;0.08466799557209015;-0.020739998668432236;0.990884006023407;0.19227199256420135;-0.17080000042915344;1.140944004058838;0.109375;0.12687501311302185;0.3412500023841858
1533;0.0;0.0;0.0;0.19227199256420135;-0.17080000042915344;1.1692479848861694;0.0;0.0;0.0
1535;0.0;0.0;0.0;0.2000799924135208;-0.17470400035381317;1.132159948348999;0.0;0.0;0.0
1537;0.0;0.0;0.0;0.2000799924135208;-0.1668960005044937;1.1448479890823364;0.0;0.0;0.0
1539;0.08588799834251404;-0.02000799961388111;0.98990797996521;0.17665599286556244;-0.16299200057983398;1.140944004058838;0.109375;0.05687499791383743;0.3368750214576721
1541;0.0;0.0;0.0;0.18836799263954163;-0.1395680010318756;1.1614400148391724;0.0;0.0;0.0
1543;0.0;0.0;0.0;0.1727519929409027;-0.15518400073051453;1.140944004058838;0.0;0.0;0.0
1545;0.0;0.0;0.0;0.17665599286556244;-0.1512800008058548;1.1282559633255005;0.0;0.0;0.0
1548;0.0849120020866394;-0.020495999604463577;0.9891759753227234;0.18055999279022217;-0.16299200057983398;1.1448479890823364;-0.030625000596046448;0.19687500596046448;0.3368750214576721
1550;0.0;0.0;0.0;0.19617599248886108;-0.15518400073051453;1.1526559591293335;0.0;0.0;0.0
1552;0.0;0.0;0.0;0.19617599248886108;-0.14347200095653534;1.1448479890823364;0.0;0.0;0.0
1554;0.0;0.0;0.0;0.20788799226284027;-0.1668960005044937;1.140944004058838;0.0;0.0;0.0
1556;0.08442399650812149;-0.02000799961388111;0.9901520013809204;0.1844639927148819;-0.1512800008058548;1.1448479890823364;0.039374999701976776;0.19687500596046448;0.3368750214576721
1558;0.0;0.0;0.0;0.17665599286556244;-0.15518400073051453;1.1692479848861694;0.0;0.0;0.0
1560;0.0;0.0;0.0;0.20788799226284027;-0.1395680010318756;1.1360639333724976;0.0;0.0;0.0
1562;0.0;0.0;0.0;0.20398399233818054;-0.1395680010318756;1.1370400190353394;0.0;0.0;0.0
1565;0.08540000021457672;-0.020495999604463577;0.9903959631919861;0.1844639927148819;-0.14737600088119507;1.1448479890823364;0.039374999701976776;0.19249999523162842;0.33250001072883606
1567;0.0;0.0;0.0;0.20398399233818054;-0.17470400035381317;1.1204479932785034;0.0;0.0;0.0
1569;0.0;0.0;0.0;0.19227199256420135;-0.15908800065517426;1.148751974105835;0.0;0.0;0.0
1571;0.0;0.0;0.0;0.1844639927148819;-0.17470400035381317;1.132159948348999;0.0;0.0;0.0
1573;0.08564399927854538;-0.02000799961388111;0.98990797996521;0.18055999279022217;-0.16299200057983398;1.1526559591293335;0.039374999701976776;0.19249999523162842;0.33250001072883606
1575;0.0;0.0;0.0;0.1844639927148819;-0.15518400073051453;1.1204479932785034;0.0;0.0;0.0
1577;0.0;0.0;0.0;0.18836799263954163;-0.17080000042915344;1.148751974105835;0.0;0.0;0.0
1579;0.0;0.0;0.0;0.18836799263954163;-0.1512800008058548;1.140944004058838;0.0;0.0;0.0
1582;0.08466799557209015;-0.020739998668432236;0.9903959631919861;0.18836799263954163;-0.14737600088119507;1.148751974105835;0.109375;0.19249999523162842;0.328125
1584;0.0;0.0;0.0;0.2235039919614792;-0.17470400035381317;1.148751974105835;0.0;0.0;0.0
1586;0.0;0.0;0.0;0.21569599211215973;-0.14347200095653534;1.1526559591293335;0.0;0.0;0.0
1588;0.0;0.0;0.0;0.21959999203681946;-0.16299200057983398;1.1448479890823364;0.0;0.0;0.0
1590;0.08515600115060806;-0.019763998687267303;0.9906399846076965;0.18055999279022217;-0.1512800008058548;1.1448479890823364;0.109375;0.12250000983476639;0.328125
1592;0.0;0.0;0.0;0.19227199256420135;-0.15908800065517426;1.1497279405593872;0.0;0.0;0.0
1594;0.0;0.0;0.0;0.19227199256420135;-0.1668960005044937;1.1292319297790527;0.0;0.0;0.0
1596;0.0;0.0;0.0;0.21959999203681946;-0.1786080002784729;1.1419199705123901;0.0;0.0;0.0
1599;0.08442399650812149;-0.019763998687267303;0.98990797996521;0.19617599248886108;-0.17080000042915344;1.1419199705123901;0.109375;0.19249999523162842;0.328125
1601;0.0;0.0;0.0;0.1844639927148819;-0.16299200057983398;1.1370400190353394;0.0;0.0;0.0
1603;0.0;0.0;0.0;0.19227199256420135;-0.1512800008058548;1.1331360340118408;0.0;0.0;0.0
1605;0.0;0.0;0.0;0.19227199256420135;-0.1512800008058548;1.1370400190353394;0.0;0.0;0.0
1607;0.0849120020866394;-0.020495999604463577;0.98990797996521;0.1727519929409027;-0.15518400073051453;1.1331360340118408;0.039374999701976776;0.18812499940395355;0.32375001907348633
1609;0.0;0.0;0.0;0.19227199256420135;-0.17470400035381317;1.156559944152832;0.0;0.0;0.0
1611;0.0;0.0;0.0;0.18055999279022217;-0.14347200095653534;1.1448479890823364;0.0;0.0;0.0
1613;0.0;0.0;0.0;0.20398399233818054;-0.1512800008058548;1.148751974105835;0.0;0.0;0.0
1616;0.0849120020866394;-0.02000799961388111;0.9906399846076965;0.19617599248886108;-0.17080000042915344;1.140944004058838;0.039374999701976776;0.2581250071525574;0.32375001907348633
1618;0.0;0.0;0.0;0.17665599286556244;-0.18251200020313263;1.1614400148391724;0.0;0.0;0.0
1620;0.0;0.0;0.0;0.18836799263954163;-0.15908800065517426;1.124351978302002;0.0;0.0;0.0
1622;0.0;0.0;0.0;0.19227199256420135;-0.1512800008058548;1.1448479890823364;0.0;0.0;0.0
1624;0.08393599838018417;-0.019519999623298645;0.9911279678344727;0.20788799226284027;-0.17080000042915344;1.1360639333724976;0.039374999701976776;0.18812499940395355;0.32375001907348633
1626;0.0;0.0;0.0;0.19617599248886108;-0.14737600088119507;1.1282559633255005;0.0;0.0;0.0
1628;0.0;0.0;0.0;0.18836799263954163;-0.1668960005044937;1.140944004058838;0.0;0.0;0.0
1630;0.0;0.0;0.0;0.1844639927148819;-0.1395680010318756;1.124351978302002;0.0;0.0;0.0
1633;0.08417999744415283;-0.02025200054049492;0.9906399846076965;0.2000799924135208;-0.15518400073051453;1.1526559591293335;0.109375;0.11812500655651093;0.31937500834465027
1635;0.0;0.0;0.0;0.20398399233818054;-0.1395680010318756;1.148751974105835;0.0;0.0;0.0
1637;0.0;0.0;0.0;0.1844639927148819;-0.17080000042915344;1.156559944152832;0.0;0.0;0.0
1639;0.0;0.0;0.0;0.19617599248886108;-0.1512800008058548;1.1526559591293335;0.0;0.0;0.0
1641;0.08564399927854538;-0.02025200054049492;0.9889319539070129;0.18836799263954163;-0.16299200057983398;1.1370400190353394;0.039374999701976776;0.18812499940395355;0.31937500834465027
1643;0.0;0.0;0.0;0.18055999279022217;-0.15518400073051453;1.1526559591293335;0.0;0.0;0.0
1645;0.0;0.0;0.0;0.1844639927148819;-0.15518400073051453;1.140944004058838;0.0;0.0;0.0
1647;0.0;0.0;0.0;0.2117919921875;-0.15908800065517426;1.1282559633255005;0.0;0.0;0.0
1650;0.08466799557209015;-0.020495999604463577;0.9889319539070129;0.18836799263954163;-0.15518400073051453;1.148751974105835;0.03500000014901161;0.2537499964237213;0.31937500834465027
1652;0.0;0.0;0.0;0.19617599248886108;-0.14737600088119507;1.148751974105835;0.0;0.0;0.0
1654;0.0;0.0;0.0;0.1727519929409027;-0.15908800065517426;1.1370400190353394;0.0;0.0;0.0
1656;0.0;0.0;0.0;0.18836799263954163;-0.16299200057983398;1.148751974105835;0.0;0.0;0.0
1658;0.08442399650812149;-0.02025200054049492;0.9894199967384338;0.18055999279022217;-0.16299200057983398;1.1526559591293335;0.03500000014901161;0.2537499964237213;0.3149999976158142
1660;0.0;0.0;0.0;0.20398399233818054;-0.18641600012779236;1.1448479890823364;0.0;0.0;0.0
1662;0.0;0.0;0.0;0.19617599248886108;-0.13566400110721588;1.1204479932785034;0.0;0.0;0.0
1664;0.0;0.0;0.0;0.19617599248886108;-0.16299200057983398;1.1360639333724976;0.0;0.0;0.0
1667;0.08417999744415283;-0.020983999595046043;0.9896639585494995;0.20398399233818054;-0.15518400073051453;1.132159948348999;0.10500000417232513;0.11375001072883606;0.3149999976158142
1669;0.0;0.0;0.0;0.18055999279022217;-0.15518400073051453;1.148751974105835;0.0;0.0;0.0
1671;0.0;0.0;0.0;0.21569599211215973;-0.1668960005044937;1.1448479890823364;0.0;0.0;0.0
1673;0.0;0.0;0.0;0.20398399233818054;-0.15518400073051453;1.1370400190353394;0.0;0.0;0.0
1675;0.0849120020866394;-0.019519999623298645;0.9894199967384338;0.1844639927148819;-0.15908800065517426;1.132159948348999;0.03500000014901161;0.1837500035762787;0.31062501668930054
1677;0.0;0.0;0.0;0.1844639927148819;-0.1239520013332367;1.148751974105835;0.0;0.0;0.0
1679;0.0;0.0;0.0;0.18836799263954163;-0.16299200057983398;1.165343999862671;0.0;0.0;0.0
1681;0.0;0.0;0.0;0.1727519929409027;-0.15518400073051453;1.1448479890823364;0.0;0.0;0.0
1684;0.0849120020866394;-0.02000799961388111;0.9901520013809204;0.2000799924135208;-0.18641600012779236;1.1448479890823364;0.03500000014901161;0.24937498569488525;0.38062500953674316
1686;0.0;0.0;0.0;0.18055999279022217;-0.16299200057983398;1.132159948348999;0.0;0.0;0.0
1688;0.0;0.0;0.0;0.18836799263954163;-0.14737600088119507;1.140944004058838;0.0;0.0;0.0
1690;0.0;0.0;0.0;0.1727519929409027;-0.18251200020313263;1.156559944152832;0.0;0.0;0.0
1692;0.08417999744415283;-0.02025200054049492;0.98990797996521;0.19227199256420135;-0.1512800008058548;1.1370400190353394;0.03500000014901161;0.1093750074505806;0.31062501668930054
1694;0.0;0.0;0.0;0.18836799263954163;-0.14737600088119507;1.1448479890823364;0.0;0.0;0.0
1696;0.0;0.0;0.0;0.21959999203681946;-0.15908800065517426;1.1282559633255005;0.0;0.0;0.0
1699;0.0;0.0;0.0;0.20398399233818054;-0.15908800065517426;1.1448479890823364;0.0;0.0;0.0
1701;0.08466799557209015;-0.02000799961388111;0.9896639585494995;0.20788799226284027;-0.17470400035381317;1.1370400190353394;0.03500000014901161;0.1093750074505806;0.3062500059604645
1703;0.0;0.0;0.0;0.19617599248886108;-0.1395680010318756;1.132159948348999;0.0;0.0;0.0
1705;0.0;0.0;0.0;0.2117919921875;-0.1512800008058548;1.148751974105835;0.0;0.0;0.0
1707;0.0;0.0;0.0;0.16884799301624298;-0.16299200057983398;1.124351978302002;0.0;0.0;0.0
1709;0.08540000021457672;-0.02000799961388111;0.9903959631919861;0.17665599286556244;-0.1512800008058548;1.148751974105835;0.03500000014901161;0.1093750074505806;0.3062500059604645
1711;0.0;0.0;0.0;0.19617599248886108;-0.16299200057983398;1.148751974105835;0.0;0.0;0.0
1713;0.0;0.0;0.0;0.18055999279022217;-0.15518400073051453;1.156559944152832;0.0;0.0;0.0
1715;0.0;0.0;0.0;0.2000799924135208;-0.16299200057983398;1.132159948348999;0.0;0.0;0.0
1718;0.08564399927854538;-0.019763998687267303;0.9901520013809204;0.20788799226284027;-0.15908800065517426;1.1448479890823364;0.10500000417232513;0.17937499284744263;0.3062500059604645
1720;0.0;0.0;0.0;0.18836799263954163;-0.1786080002784729;1.140944004058838;0.0;0.0;0.0
1722;0.0;0.0;0.0;0.2235039919614792;-0.15518400073051453;1.1604639291763306;0.0;0.0;0.0
1724;0.0;0.0;0.0;0.20398399233818054;-0.14737600088119507;1.132159948348999;0.0;0.0;0.0
1726;0.0849120020866394;-0.020739998668432236;0.98990797996521;0.18836799263954163;-0.1395680010318756;1.1448479890823364;0.03500000014901161;0.17937499284744263;0.3018749952316284
1728;0.0;0.0;0.0;0.2117919921875;-0.1512800008058548;1.1526559591293335;0.0;0.0;0.0
1730;0.0;0.0;0.0;0.19617599248886108;-0.13176000118255615;1.148751974105835;0.0;0.0;0.0
1733;0.0;0.0;0.0;0.19227199256420135;-0.1512800008058548;1.132159948348999;0.0;0.0;0.0
1735;0.08393599838018417;-0.020739998668432236;0.9901520013809204;0.1727519929409027;-0.15518400073051453;1.1448479890823364;0.03500000014901161;0.17499999701976776;0.3018749952316284
1737;0.0;0.0;0.0;0.18055999279022217;-0.17470400035381317;1.1448479890823364;0.0;0.0;0.0
1739;0.0;0.0;0.0;0.2000799924135208;-0.1395680010318756;1.1370400190353394;0.0;0.0;0.0
1741;0.0;0.0;0.0;0.19617599248886108;-0.13566400110721588;1.148751974105835;0.0;0.0;0.0
1743;0.08417999744415283;-0.020983999595046043;0.990884006023407;0.19227199256420135;-0.16299200057983398;1.1360639333724976;0.10500000417232513;0.10500000417232513;0.3018749952316284
1745;0.0;0.0;0.0;0.18836799263954163;-0.17080000042915344;1.156559944152832;0.0;0.0;0.0
1747;0.0;0.0;0.0;0.18055999279022217;-0.16299200057983398;1.1165440082550049;0.0;0.0;0.0
1750;0.0;0.0;0.0;0.2117919921875;-0.16299200057983398;1.1282559633255005;0.0;0.0;0.0
1752;0.0849120020866394;-0.019763998687267303;0.9889319539070129;0.20398399233818054;-0.16299200057983398;1.132159948348999;0.10500000417232513;0.10500000417232513;0.29750001430511475
1754;0.0;0.0;0.0;0.20398399233818054;-0.13176000118255615;1.1360639333724976;0.0;0.0;0.0
1756;0.0;0.0;0.0;0.19617599248886108;-0.1668960005044937;1.132159948348999;0.0;0.0;0.0
1758;0.0;0.0;0.0;0.21569599211215973;-0.1668960005044937;1.132159948348999;0.0;0.0;0.0
1760;0.08442399650812149;-0.02000799961388111;0.9891759753227234;0.1844639927148819;-0.13176000118255615;1.107759952545166;0.03500000014901161;0.2449999898672104;0.29750001430511475
1762;0.0;0.0;0.0;0.16103999316692352;-0.17080000042915344;1.1604639291763306;0.0;0.0;0.0
1764;0.0;0.0;0.0;0.18836799263954163;-0.14737600088119507;1.140944004058838;0.0;0.0;0.0
1767;0.0;0.0;0.0;0.20398399233818054;-0.15908800065517426;1.1370400190353394;0.0;0.0;0.0
1769;0.08442399650812149;-0.020739998668432236;0.98990797996521;0.20398399233818054;-0.15518400073051453;1.132159948348999;0.03500000014901161;0.2449999898672104;0.22750002145767212
1771;0.0;0.0;0.0;0.18836799263954163;-0.1512800008058548;1.148751974105835;0.0;0.0;0.0
1773;0.0;0.0;0.0;0.18055999279022217;-0.1786080002784729;1.1448479890823364;0.0;0.0;0.0
1775;0.0;0.0;0.0;0.21569599211215973;-0.16299200057983398;1.1448479890823364;0.0;0.0;0.0
1777;0.08540000021457672;-0.02025200054049492;0.9901520013809204;0.19227199256420135;-0.17080000042915344;1.1526559591293335;0.03500000014901161;0.1706250011920929;0.2931250035762787
1779;0.0;0.0;0.0;0.19227199256420135;-0.15518400073051453;1.148751974105835;0.0;0.0;0.0
1781;0.0;0.0;0.0;0.16103999316692352;-0.1668960005044937;1.1526559591293335;0.0;0.0;0.0
1784;0.0;0.0;0.0;0.20398399233818054;-0.1668960005044937;1.1360639333724976;0.0;0.0;0.0
1786;0.0849120020866394;-0.020495999604463577;0.98990797996521;0.17665599286556244;-0.16299200057983398;1.148751974105835;0.03500000014901161;0.1706250011920929;0.2931250035762787
1788;0.0;0.0;0.0;0.18836799263954163;-0.17080000042915344;1.1165440082550049;0.0;0.0;0.0
1790;0.0;0.0;0.0;0.2000799924135208;-0.14737600088119507;1.148751974105835;0.0;0.0;0.0
1792;0.0;0.0;0.0;0.19227199256420135;-0.16299200057983398;1.140944004058838;0.0;0.0;0.0
1794;0.08515600115060806;-0.02000799961388111;0.9889319539070129;0.21569599211215973;-0.1512800008058548;1.1370400190353394;0.03500000014901161;0.1706250011920929;0.2931250035762787
1796;0.0;0.0;0.0;0.21569599211215973;-0.16299200057983398;1.124351978302002;0.0;0.0;0.0
1798;0.0;0.0;0.0;0.20788799226284027;-0.14347200095653534;1.1370400190353394;0.0;0.0;0.0
1801;0.0;0.0;0.0;0.19227199256420135;-0.16299200057983398;1.140944004058838;0.0;0.0;0.0
1803;0.08466799557209015;-0.019763998687267303;0.9903959631919861;0.19617599248886108;-0.15518400073051453;1.148751974105835;0.10062500089406967;0.1706250011920929;0.2887499928474426
1805;0.0;0.0;0.0;0.2000799924135208;-0.18641600012779236;1.1526559591293335;0.0;0.0;0.0
1807;0.0;0.0;0.0;0.17665599286556244;-0.14347200095653534;1.1370400190353394;0.0;0.0;0.0
1809;0.0;0.0;0.0;0.1844639927148819;-0.1512800008058548;1.132159948348999;0.0;0.0;0.0
1811;0.0849120020866394;-0.02000799961388111;0.9901520013809204;0.19227199256420135;-0.1668960005044937;1.124351978302002;0.10062500089406967;0.1706250011920929;0.2887499928474426
1813;0.0;0.0;0.0;0.1727519929409027;-0.14737600088119507;1.1448479890823364;0.0;0.0;0.0
1815;0.0;0.0;0.0;0.20788799226284027;-0.13176000118255615;1.165343999862671;0.0;0.0;0.0
1818;0.0;0.0;0.0;0.2000799924135208;-0.17080000042915344;1.148751974105835;0.0;0.0;0.0
1820;0.08466799557209015;-0.019763998687267303;0.9896639585494995;0.20788799226284027;-0.13566400110721588;1.148751974105835;0.030625000596046448;0.16624999046325684;0.2887499928474426
1822;0.0;0.0;0.0;0.19617599248886108;-0.1786080002784729;1.140944004058838;0.0;0.0;0.0
1824;0.0;0.0;0.0;0.2235039919614792;-0.13566400110721588;1.1360639333724976;0.0;0.0;0.0
1826;0.0;0.0;0.0;0.16884799301624298;-0.14737600088119507;1.1360639333724976;0.0;0.0;0.0
1828;0.08393599838018417;-0.02025200054049492;0.98990797996521;0.20398399233818054;-0.16299200057983398;1.140944004058838;0.030625000596046448;0.23624998331069946;0.28437501192092896
1831;0.0;0.0;0.0;0.19617599248886108;-0.15518400073051453;1.156559944152832;0.0;0.0;0.0
1832;0.0;0.0;0.0;0.18055999279022217;-0.16299200057983398;1.1526559591293335;0.0;0.0;0.0
1835;0.0;0.0;0.0;0.19617599248886108;-0.1668960005044937;1.140944004058838;0.0;0.0;0.0
1837;0.08417999744415283;-0.020739998668432236;0.9901520013809204;0.20398399233818054;-0.13566400110721588;1.140944004058838;0.030625000596046448;0.16624999046325684;0.28437501192092896
1839;0.0;0.0;0.0;0.18055999279022217;-0.1512800008058548;1.1360639333724976;0.0;0.0;0.0
1841;0.0;0.0;0.0;0.2000799924135208;-0.14347200095653534;1.173151969909668;0.0;0.0;0.0
1843;0.0;0.0;0.0;0.19617599248886108;-0.14737600088119507;1.148751974105835;0.0;0.0;0.0
1845;0.08466799557209015;-0.020495999604463577;0.9901520013809204;0.2000799924135208;-0.14347200095653534;1.1165440082550049;0.10062500089406967;0.026249997317790985;0.28437501192092896
1847;0.0;0.0;0.0;0.20398399233818054;-0.1786080002784729;1.140944004058838;0.0;0.0;0.0
1849;0.0;0.0;0.0;0.19617599248886108;-0.16299200057983398;1.1282559633255005;0.0;0.0;0.0
1852;0.0;0.0;0.0;0.20398399233818054;-0.17080000042915344;1.140944004058838;0.0;0.0;0.0
1854;0.08564399927854538;-0.02000799961388111;0.9894199967384338;0.20788799226284027;-0.18251200020313263;1.148751974105835;0.10062500089406967;0.16624999046325684;0.2800000011920929
1856;0.0;0.0;0.0;0.18055999279022217;-0.13176000118255615;1.148751974105835;0.0;0.0;0.0
1858;0.0;0.0;0.0;0.18836799263954163;-0.1512800008058548;1.156559944152832;0.0;0.0;0.0
1860;0.0;0.0;0.0;0.19227199256420135;-0.1512800008058548;1.1526559591293335;0.0;0.0;0.0
1862;0.08393599838018417;-0.02025200054049492;0.9901520013809204;0.1844639927148819;-0.17080000042915344;1.124351978302002;0.030625000596046448;0.23624998331069946;0.2800000011920929
1865;0.0;0.0;0.0;0.19617599248886108;-0.16299200057983398;1.1604639291763306;0.0;0.0;0.0
1867;0.0;0.0;0.0;0.17665599286556244;-0.14347200095653534;1.1282559633255005;0.0;0.0;0.0
1869;0.0;0.0;0.0;0.19227199256420135;-0.18251200020313263;1.140944004058838;0.0;0.0;0.0
1871;0.08442399650812149;-0.02025200054049492;0.9901520013809204;0.20788799226284027;-0.1668960005044937;1.148751974105835;0.10062500089406967;0.2318750023841858;0.2800000011920929
1873;0.0;0.0;0.0;0.19227199256420135;-0.1512800008058548;1.1370400190353394;0.0;0.0;0.0
1875;0.0;0.0;0.0;0.1844639927148819;-0.15518400073051453;1.1204479932785034;0.0;0.0;0.0
1877;0.0;0.0;0.0;0.22740799188613892;-0.17080000042915344;1.1370400190353394;0.0;0.0;0.0
1879;0.08588799834251404;-0.020739998668432236;0.9896639585494995;0.16884799301624298;-0.14347200095653534;1.148751974105835;0.10062500089406967;0.16187500953674316;0.27562499046325684
1881;0.0;0.0;0.0;0.1727519929409027;-0.1786080002784729;1.148751974105835;0.0;0.0;0.0
1883;0.0;0.0;0.0;0.22740799188613892;-0.15518400073051453;1.140944004058838;0.0;0.0;0.0
1886;0.0;0.0;0.0;0.18055999279022217;-0.15518400073051453;1.132159948348999;0.0;0.0;0.0
1888;0.08442399650812149;-0.02025200054049492;0.9906399846076965;0.18836799263954163;-0.13176000118255615;1.1526559591293335;0.030625000596046448;0.16187500953674316;0.27562499046325684
1890;0.0;0.0;0.0;0.2117919921875;-0.15518400073051453;1.140944004058838;0.0;0.0;0.0
1892;0.0;0.0;0.0;0.19227199256420135;-0.15908800065517426;1.148751974105835;0.0;0.0;0.0
1894;0.0;0.0;0.0;0.1844639927148819;-0.15518400073051453;1.1604639291763306;0.0;0.0;0.0
1896;0.08369199931621552;-0.020495999604463577;0.9903959631919861;0.1844639927148819;-0.15908800065517426;1.148751974105835;-0.039374999701976776;0.16187500953674316;0.27562499046325684
1899;0.0;0.0;0.0;0.20398399233818054;-0.14737600088119507;1.1292319297790527;0.0;0.0;0.0
1901;0.0;0.0;0.0;0.19617599248886108;-0.1512800008058548;1.1419199705123901;0.0;0.0;0.0
1903;0.0;0.0;0.0;0.1844639927148819;-0.1512800008058548;1.1292319297790527;0.0;0.0;0.0
1905;0.08393599838018417;-0.02025200054049492;0.98990797996521;0.18836799263954163;-0.15908800065517426;1.1536319255828857;0.030625000596046448;0.09187500923871994;0.27125000953674316
1907;0.0;0.0;0.0;0.18836799263954163;-0.14737600088119507;1.1292319297790527;0.0;0.0;0.0
1909;0.0;0.0;0.0;0.2000799924135208;-0.14737600088119507;1.1419199705123901;0.0;0.0;0.0
1911;0.0;0.0;0.0;0.18836799263954163;-0.1239520013332367;1.1419199705123901;0.0;0.0;0.0
1913;0.08466799557209015;-0.02025200054049492;0.9901520013809204;0.1844639927148819;-0.12785600125789642;1.1536319255828857;0.10062500089406967;0.1574999988079071;0.3412500023841858
1915;0.0;0.0;0.0;0.1727519929409027;-0.15908800065517426;1.140944004058838;0.0;0.0;0.0
1918;0.0;0.0;0.0;0.20788799226284027;-0.1512800008058548;1.140944004058838;0.0;0.0;0.0
1920;0.0;0.0;0.0;0.19227199256420135;-0.1786080002784729;1.1526559591293335;0.0;0.0;0.0
1922;0.08417999744415283;-0.02025200054049492;0.9896639585494995;0.1727519929409027;-0.1668960005044937;1.148751974105835;0.09624999761581421;0.22749999165534973;0.27125000953674316
1924;0.0;0.0;0.0;0.19227199256420135;-0.16299200057983398;1.140944004058838;0.0;0.0;0.0
1926;0.0;0.0;0.0;0.20398399233818054;-0.16299200057983398;1.1204479932785034;0.0;0.0;0.0
1928;0.0;0.0;0.0;0.1727519929409027;-0.1512800008058548;1.1448479890823364;0.0;0.0;0.0
1930;0.08417999744415283;-0.02122800052165985;0.9901520013809204;0.19227199256420135;-0.16299200057983398;1.1370400190353394;0.026250001043081284;0.08750000596046448;0.2668750286102295
1933;0.0;0.0;0.0;0.18055999279022217;-0.14347200095653534;1.1282559633255005;0.0;0.0;0.0
1935;0.0;0.0;0.0;0.19617599248886108;-0.15908800065517426;1.148751974105835;0.0;0.0;0.0
1937;0.0;0.0;0.0;0.19227199256420135;-0.12785600125789642;1.1448479890823364;0.0;0.0;0.0
1939;0.08417999744415283;-0.02000799961388111;0.9889319539070129;0.1727519929409027;-0.14347200095653534;1.132159948348999;0.16625000536441803;0.1574999988079071;0.3368750214576721
1941;0.0;0.0;0.0;0.19227199256420135;-0.14737600088119507;1.148751974105835;0.0;0.0;0.0
1943;0.0;0.0;0.0;0.18836799263954163;-0.15908800065517426;1.1448479890823364;0.0;0.0;0.0
1945;0.0;0.0;0.0;0.1727519929409027;-0.13176000118255615;1.148751974105835;0.0;0.0;0.0
1947;0.0849120020866394;-0.019276000559329987;0.9901520013809204;0.18055999279022217;-0.14737600088119507;1.156559944152832;0.09624999761581421;0.22749999165534973;0.2668750286102295
1950;0.0;0.0;0.0;0.20398399233818054;-0.15908800065517426;1.132159948348999;0.0;0.0;0.0
1952;0.0;0.0;0.0;0.19617599248886108;-0.16299200057983398;1.1448479890823364;0.0;0.0;0.0
1954;0.0;0.0;0.0;0.1844639927148819;-0.1512800008058548;1.148751974105835;0.0;0.0;0.0
1956;0.08393599838018417;-0.020495999604463577;0.9903959631919861;0.16494399309158325;-0.15908800065517426;1.156559944152832;0.026250001043081284;0.15312500298023224;0.2668750286102295
1958;0.0;0.0;0.0;0.21569599211215973;-0.15518400073051453;1.124351978302002;0.0;0.0;0.0
1960;0.0;0.0;0.0;0.2117919921875;-0.1668960005044937;1.1448479890823364;0.0;0.0;0.0
1962;0.0;0.0;0.0;0.1727519929409027;-0.1786080002784729;1.132159948348999;0.0;0.0;0.0
1964;0.08540000021457672;-0.020495999604463577;0.98990797996521;0.20398399233818054;-0.1786080002784729;1.1526559591293335;0.09624999761581421;0.08312501013278961;0.26249998807907104
1967;0.0;0.0;0.0;0.16884799301624298;-0.15518400073051453;1.1624159812927246;0.0;0.0;0.0
1969;0.0;0.0;0.0;0.20398399233818054;-0.15908800065517426;1.1497279405593872;0.0;0.0;0.0
1971;0.0;0.0;0.0;0.18836799263954163;-0.12785600125789642;1.1497279405593872;0.0;0.0;0.0
1973;0.08466799557209015;-0.02000799961388111;0.9896639585494995;0.18836799263954163;-0.1668960005044937;1.1253279447555542;0.026250001043081284;0.15312500298023224;0.26249998807907104
1975;0.0;0.0;0.0;0.18836799263954163;-0.16299200057983398;1.1458239555358887;0.0;0.0;0.0
1977;0.0;0.0;0.0;0.2235039919614792;-0.12785600125789642;1.1458239555358887;0.0;0.0;0.0
1979;0.0;0.0;0.0;0.18055999279022217;-0.15518400073051453;1.1614400148391724;0.0;0.0;0.0
1981;0.08442399650812149;-0.02000799961388111;0.9901520013809204;0.20788799226284027;-0.13176000118255615;1.1575360298156738;0.09624999761581421;0.08312501013278961;0.26249998807907104
1984;0.0;0.0;0.0;0.21569599211215973;-0.15908800065517426;1.1448479890823364;0.0;0.0;0.0
1986;0.0;0.0;0.0;0.19617599248886108;-0.1668960005044937;1.1526559591293335;0.0;0.0;0.0
1988;0.0;0.0;0.0;0.18055999279022217;-0.14347200095653534;1.156559944152832;0.0;0.0;0.0
1990;0.08442399650812149;-0.02000799961388111;0.9891759753227234;0.18836799263954163;-0.1512800008058548;1.124351978302002;0.09624999761581421;0.15312500298023224;0.2581250071525574
1992;0.0;0.0;0.0;0.20398399233818054;-0.14347200095653534;1.1370400190353394;0.0;0.0;0.0
1994;0.0;0.0;0.0;0.19617599248886108;-0.14347200095653534;1.148751974105835;0.0;0.0;0.0
1996;0.0;0.0;0.0;0.19617599248886108;-0.13566400110721588;1.132159948348999;0.0;0.0;0.0
1998;0.08588799834251404;-0.020495999604463577;0.9891759753227234;0.19227199256420135;-0.14737600088119507;1.148751974105835;0.026250001043081284;0.15312500298023224;0.2581250071525574
2001;0.0;0.0;0.0;0.19227199256420135;-0.1668960005044937;1.173151969909668;0.0;0.0;0.0
2003;0.0;0.0;0.0;0.16884799301624298;-0.14347200095653534;1.124351978302002;0.0;0.0;0.0
2005;0.0;0.0;0.0;0.17665599286556244;-0.14347200095653534;1.124351978302002;0.0;0.0;0.0
2007;0.08540000021457672;-0.019763998687267303;0.9896639585494995;0.19617599248886108;-0.17470400035381317;1.1448479890823364;0.09624999761581421;0.22312499582767487;0.2581250071525574
2009;0.0;0.0;0.0;0.20788799226284027;-0.17080000042915344;1.156559944152832;0.0;0.0;0.0
2011;0.0;0.0;0.0;0.21569599211215973;-0.14347200095653534;1.132159948348999;0.0;0.0;0.0
2013;0.0;0.0;0.0;0.21569599211215973;-0.17080000042915344;1.1448479890823364;0.0;0.0;0.0
2015;0.08393599838018417;-0.020739998668432236;0.9903959631919861;0.20398399233818054;-0.14737600088119507;1.1282559633255005;0.026250001043081284;0.14875000715255737;0.2537500262260437
2018;0.0;0.0;0.0;0.2235039919614792;-0.1512800008058548;1.1448479890823364;0.0;0.0;0.0
2020;0.0;0.0;0.0;0.19227199256420135;-0.15518400073051453;1.124351978302002;0.0;0.0;0.0
2022;0.0;0.0;0.0;0.19227199256420135;-0.14737600088119507;1.148751974105835;0.0;0.0;0.0
2024;0.08540000021457672;-0.02000799961388111;0.9911279678344727;0.1844639927148819;-0.15518400073051453;1.156559944152832;0.16187500953674316;0.008750006556510925;0.2537500262260437
2026;0.0;0.0;0.0;0.1844639927148819;-0.1512800008058548;1.140944004058838;0.0;0.0;0.0
2028;0.0;0.0;0.0;0.20788799226284027;-0.15908800065517426;1.148751974105835;0.0;0.0;0.0
2030;0.0;0.0;0.0;0.20398399233818054;-0.1395680010318756;1.140944004058838;0.0;0.0;0.0
2032;0.08442399650812149;-0.020739998668432236;0.9913719892501831;0.2000799924135208;-0.14737600088119507;1.1643680334091187;0.09187500178813934;0.21875;0.2537500262260437
2035;0.0;0.0;0.0;0.1844639927148819;-0.15908800065517426;1.148751974105835;0.0;0.0;0.0
2037;0.0;0.0;0.0;0.2000799924135208;-0.14347200095653534;1.132159948348999;0.0;0.0;0.0
2039;0.0;0.0;0.0;0.18836799263954163;-0.1512800008058548;1.148751974105835;0.0;0.0;0.0
2041;0.08295999467372894;-0.020495999604463577;0.9903959631919861;0.17665599286556244;-0.1512800008058548;1.148751974105835;0.09187500178813934;0.07875001430511475;0.2537500262260437
2043;0.0;0.0;0.0;0.18055999279022217;-0.15908800065517426;1.1448479890823364;0.0;0.0;0.0
2045;0.0;0.0;0.0;0.20398399233818054;-0.15908800065517426;1.1370400190353394;0.0;0.0;0.0
2047;0.0;0.0;0.0;0.18836799263954163;-0.15908800065517426;1.1282559633255005;0.0;0.0;0.0
2049;0.08515600115060806;-0.020495999604463577;0.9886879920959473;0.16103999316692352;-0.15518400073051453;1.1526559591293335;0.09187500178813934;0.07875001430511475;0.24937501549720764
2052;0.0;0.0;0.0;0.21569599211215973;-0.1668960005044937;1.156559944152832;0.0;0.0;0.0
2054;0.0;0.0;0.0;0.16884799301624298;-0.1512800008058548;1.156559944152832;0.0;0.0;0.0
2056;0.0;0.0;0.0;0.20398399233818054;-0.15518400073051453;1.1165440082550049;0.0;0.0;0.0
2058;0.08417999744415283;-0.02000799961388111;0.9884439706802368;0.1844639927148819;-0.16299200057983398;1.1204479932785034;0.16187500953674316;0.14875000715255737;0.24937501549720764
2060;0.0;0.0;0.0;0.16103999316692352;-0.1395680010318756;1.132159948348999;0.0;0.0;0.0
2062;0.0;0.0;0.0;0.17665599286556244;-0.15518400073051453;1.140944004058838;0.0;0.0;0.0
2064;0.0;0.0;0.0;0.21959999203681946;-0.14347200095653534;1.148751974105835;0.0;0.0;0.0
2066;0.08369199931621552;-0.019763998687267303;0.9894199967384338;0.20398399233818054;-0.17080000042915344;1.1448479890823364;0.09187500178813934;0.14875000715255737;0.24937501549720764
2069;0.0;0.0;0.0;0.2117919921875;-0.1668960005044937;1.124351978302002;0.0;0.0;0.0
2071;0.0;0.0;0.0;0.19227199256420135;-0.14737600088119507;1.1770559549331665;0.0;0.0;0.0
2073;0.0;0.0;0.0;0.19617599248886108;-0.15908800065517426;1.1614400148391724;0.0;0.0;0.0
2075;0.08417999744415283;-0.02000799961388111;0.9896639585494995;0.1727519929409027;-0.18251200020313263;1.156559944152832;0.09187500178813934;0.1443749964237213;0.24500000476837158
2077;0.0;0.0;0.0;0.1844639927148819;-0.1512800008058548;1.140944004058838;0.0;0.0;0.0
2079;0.0;0.0;0.0;0.19227199256420135;-0.16299200057983398;1.1614400148391724;0.0;0.0;0.0
2081;0.0;0.0;0.0;0.20398399233818054;-0.1786080002784729;1.140944004058838;0.0;0.0;0.0
2083;0.08564399927854538;-0.02025200054049492;0.9901520013809204;0.1844639927148819;-0.14737600088119507;1.132159948348999;0.02187500149011612;0.21437498927116394;0.3149999976158142
2086;0.0;0.0;0.0;0.18836799263954163;-0.17080000042915344;1.1419199705123901;0.0;0.0;0.0
2088;0.0;0.0;0.0;0.19617599248886108;-0.14347200095653534;1.1380159854888916;0.0;0.0;0.0
2090;0.0;0.0;0.0;0.19617599248886108;-0.1668960005044937;1.1741279363632202;0.0;0.0;0.0
2092;0.08369199931621552;-0.020495999604463577;0.9913719892501831;0.2117919921875;-0.17080000042915344;1.1253279447555542;0.02187500149011612;0.1443749964237213;0.24500000476837158
2094;0.0;0.0;0.0;0.17665599286556244;-0.16299200057983398;1.1536319255828857;0.0;0.0;0.0
2096;0.0;0.0;0.0;0.21569599211215973;-0.13566400110721588;1.1458239555358887;0.0;0.0;0.0
2098;0.0;0.0;0.0;0.2235039919614792;-0.16299200057983398;1.1497279405593872;0.0;0.0;0.0
2100;0.08442399650812149;-0.019763998687267303;0.9903959631919861;0.19617599248886108;-0.16299200057983398;1.1536319255828857;0.02187500149011612;0.004374995827674866;0.24500000476837158
2103;0.0;0.0;0.0;0.2000799924135208;-0.15518400073051453;1.1380159854888916;0.0;0.0;0.0
2105;0.0;0.0;0.0;0.18055999279022217;-0.1668960005044937;1.1458239555358887;0.0;0.0;0.0
2107;0.0;0.0;0.0;0.17665599286556244;-0.14737600088119507;1.1536319255828857;0.0;0.0;0.0
2109;0.08564399927854538;-0.019519999623298645;0.98990797996521;0.1844639927148819;-0.16299200057983398;1.1331360340118408;0.09187500178813934;0.07437500357627869;0.24062500894069672
2111;0.0;0.0;0.0;0.19227199256420135;-0.1395680010318756;1.1614400148391724;0.0;0.0;0.0
2113;0.0;0.0;0.0;0.18055999279022217;-0.15908800065517426;1.1292319297790527;0.0;0.0;0.0
2115;0.0;0.0;0.0;0.19617599248886108;-0.1395680010318756;1.1614400148391724;0.0;0.0;0.0
2117;0.08515600115060806;-0.020495999604463577;0.9896639585494995;0.2000799924135208;-0.14737600088119507;1.1380159854888916;0.02187500149011612;0.21437498927116394;0.24062500894069672
2120;0.0;0.0;0.0;0.1844639927148819;-0.15908800065517426;1.1419199705123901;0.0;0.0;0.0
2122;0.0;0.0;0.0;0.20788799226284027;-0.1512800008058548;1.1253279447555542;0.0;0.0;0.0
2124;0.0;0.0;0.0;0.17665599286556244;-0.14347200095653534;1.1458239555358887;0.0;0.0;0.0
2126;0.08466799557209015;-0.02025200054049492;0.98990797996521;0.1844639927148819;-0.15518400073051453;1.1419199705123901;0.02187500149011612;0.07437500357627869;0.24062500894069672
2128;0.0;0.0;0.0;0.1844639927148819;-0.14347200095653534;1.1702239513397217;0.0;0.0;0.0
2130;0.0;0.0;0.0;0.17665599286556244;-0.14737600088119507;1.1497279405593872;0.0;0.0;0.0
2132;0.0;0.0;0.0;0.1727519929409027;-0.1512800008058548;1.1575360298156738;0.0;0.0;0.0
2134;0.0849120020866394;-0.019763998687267303;0.9894199967384338;0.18836799263954163;-0.1512800008058548;1.1419199705123901;0.017499998211860657;0.14000000059604645;0.23625001311302185
2137;0.0;0.0;0.0;0.20398399233818054;-0.14737600088119507;1.1370400190353394;0.0;0.0;0.0
2139;0.0;0.0;0.0;0.18055999279022217;-0.1512800008058548;1.1370400190353394;0.0;0.0;0.0
2141;0.0;0.0;0.0;0.19227199256420135;-0.18251200020313263;1.140944004058838;0.0;0.0;0.0
2143;0.08564399927854538;-0.02025200054049492;0.9894199967384338;0.20788799226284027;-0.15518400073051453;1.148751974105835;0.08749999850988388;0.14000000059604645;0.23625001311302185
2145;0.0;0.0;0.0;0.20788799226284027;-0.1668960005044937;1.1448479890823364;0.0;0.0;0.0
2147;0.0;0.0;0.0;0.19227199256420135;-0.14737600088119507;1.140944004058838;0.0;0.0;0.0
2149;0.0;0.0;0.0;0.16884799301624298;-0.15518400073051453;1.1526559591293335;0.0;0.0;0.0
2151;0.08540000021457672;-0.019763998687267303;0.9891759753227234;0.1727519929409027;-0.1512800008058548;1.148751974105835;0.017499998211860657;0.14000000059604645;0.23625001311302185
2154;0.0;0.0;0.0;0.2000799924135208;-0.17080000042915344;1.140944004058838;0.0;0.0;0.0
2156;0.0;0.0;0.0;0.16103999316692352;-0.13176000118255615;1.124351978302002;0.0;0.0;0.0
2158;0.0;0.0;0.0;0.17665599286556244;-0.1903200000524521;1.165343999862671;0.0;0.0;0.0
2160;0.08295999467372894;-0.019519999623298645;0.9894199967384338;0.1727519929409027;-0.16299200057983398;1.1204479932785034;0.08749999850988388;0.07000000774860382;0.23625001311302185
2162;0.0;0.0;0.0;0.18055999279022217;-0.16299200057983398;1.140944004058838;0.0;0.0;0.0
2164;0.0;0.0;0.0;0.21959999203681946;-0.14347200095653534;1.132159948348999;0.0;0.0;0.0
2166;0.0;0.0;0.0;0.18055999279022217;-0.15908800065517426;1.132159948348999;0.0;0.0;0.0
2168;0.08540000021457672;-0.019519999623298645;0.9872239828109741;0.20398399233818054;-0.1668960005044937;1.1282559633255005;0.08749999850988388;0.0;0.16187500953674316
2171;0.0;0.0;0.0;0.2117919921875;-0.15518400073051453;1.1604639291763306;0.0;0.0;0.0
2173;0.0;0.0;0.0;0.18055999279022217;-0.15908800065517426;1.140944004058838;0.0;0.0;0.0
2175;0.0;0.0;0.0;0.19617599248886108;-0.1239520013332367;1.132159948348999;0.0;0.0;0.0
2177;0.08637599647045135;-0.019276000559329987;0.9889319539070129;0.20398399233818054;-0.14737600088119507;1.1370400190353394;0.017499998211860657;0.2800000309944153;0.3018749952316284
2179;0.0;0.0;0.0;0.1727519929409027;-0.16299200057983398;1.132159948348999;0.0;0.0;0.0
2181;0.0;0.0;0.0;0.19617599248886108;-0.17080000042915344;1.140944004058838;0.0;0.0;0.0
2183;0.0;0.0;0.0;0.18055999279022217;-0.1668960005044937;1.132159948348999;0.0;0.0;0.0
2185;0.08149600028991699;-0.021715998649597168;0.9923479557037354;0.2117919921875;-0.14737600088119507;1.132159948348999;0.017499998211860657;0.2756250202655792;0.2318750023841858
2188;0.0;0.0;0.0;0.16103999316692352;-0.1512800008058548;1.1526559591293335;0.0;0.0;0.0
2190;0.0;0.0;0.0;0.20398399233818054;-0.1512800008058548;1.1526559591293335;0.0;0.0;0.0
2192;0.0;0.0;0.0;0.18055999279022217;-0.14347200095653534;1.132159948348999;0.0;0.0;0.0
2194;0.08393599838018417;-0.020983999595046043;0.9916160106658936;0.21569599211215973;-0.14347200095653534;1.132159948348999;0.08749999850988388;-0.07437499612569809;0.2318750023841858
2196;0.0;0.0;0.0;0.1844639927148819;-0.1668960005044937;1.1526559591293335;0.0;0.0;0.0
2198;0.0;0.0;0.0;0.16884799301624298;-0.15518400073051453;1.156559944152832;0.0;0.0;0.0
2200;0.0;0.0;0.0;0.2117919921875;-0.1512800008058548;1.1526559591293335;0.0;0.0;0.0
2203;0.08661999553442001;-0.019519999623298645;0.9886879920959473;0.18836799263954163;-0.15518400073051453;1.1448479890823364;0.08749999850988388;0.06562501192092896;0.1575000286102295
2205;0.0;0.0;0.0;0.20398399233818054;-0.14347200095653534;1.1360639333724976;0.0;0.0;0.0
2207;0.0;0.0;0.0;0.17665599286556244;-0.18641600012779236;1.140944004058838;0.0;0.0;0.0
2209;0.0;0.0;0.0;0.2000799924135208;-0.15908800065517426;1.140944004058838;0.0;0.0;0.0
2211;0.08393599838018417;-0.02025200054049492;0.98990797996521;0.19617599248886108;-0.1512800008058548;1.1370400190353394;0.017499998211860657;0.2756250202655792;0.22750002145767212
2213;0.0;0.0;0.0;0.18055999279022217;-0.1512800008058548;1.132159948348999;0.0;0.0;0.0
2215;0.0;0.0;0.0;0.16884799301624298;-0.1668960005044937;1.1370400190353394;0.0;0.0;0.0
2217;0.0;0.0;0.0;0.18836799263954163;-0.14737600088119507;1.140944004058838;0.0;0.0;0.0
2219;0.0832040011882782;-0.02025200054049492;0.9896639585494995;0.18836799263954163;-0.1668960005044937;1.148751974105835;0.08749999850988388;0.13562500476837158;0.22750002145767212
2222;0.0;0.0;0.0;0.19227199256420135;-0.16299200057983398;1.156559944152832;0.0;0.0;0.0
2224;0.0;0.0;0.0;0.1844639927148819;-0.14737600088119507;1.148751974105835;0.0;0.0;0.0
2226;0.0;0.0;0.0;0.1844639927148819;-0.1512800008058548;1.124351978302002;0.0;0.0;0.0
2228;0.08540000021457672;-0.02025200054049492;0.9886879920959473;0.2000799924135208;-0.1512800008058548;1.132159948348999;0.08749999850988388;0.13562500476837158;0.29750001430511475
2230;0.0;0.0;0.0;0.20788799226284027;-0.15908800065517426;1.1282559633255005;0.0;0.0;0.0
2232;0.0;0.0;0.0;0.18055999279022217;-0.13176000118255615;1.1204479932785034;0.0;0.0;0.0
2234;0.0;0.0;0.0;0.19617599248886108;-0.12004800140857697;1.173151969909668;0.0;0.0;0.0
2237;0.08588799834251404;-0.020495999604463577;0.9901520013809204;0.16494399309158325;-0.1668960005044937;1.1604639291763306;0.08749999850988388;0.2056249976158142;0.22312501072883606
2239;0.0;0.0;0.0;0.2000799924135208;-0.16299200057983398;1.1448479890823364;0.0;0.0;0.0
2241;0.0;0.0;0.0;0.18055999279022217;-0.13566400110721588;1.1614400148391724;0.0;0.0;0.0
2243;0.0;0.0;0.0;0.2000799924135208;-0.13566400110721588;1.148751974105835;0.0;0.0;0.0
2245;0.0832040011882782;-0.020739998668432236;0.9911279678344727;0.18836799263954163;-0.1512800008058548;1.1370400190353394;0.017499998211860657;0.20124998688697815;0.22312501072883606
2247;0.0;0.0;0.0;0.1727519929409027;-0.13566400110721588;1.148751974105835;0.0;0.0;0.0
2249;0.0;0.0;0.0;0.19617599248886108;-0.14347200095653534;1.140944004058838;0.0;0.0;0.0
2251;0.0;0.0;0.0;0.19227199256420135;-0.15518400073051453;1.1604639291763306;0.0;0.0;0.0
2254;0.08466799557209015;-0.02025200054049492;0.9891759753227234;0.18836799263954163;-0.14737600088119507;1.140944004058838;0.08749999850988388;-0.008750006556510925;0.22312501072883606
2256;0.0;0.0;0.0;0.18836799263954163;-0.1668960005044937;1.1419199705123901;0.0;0.0;0.0
2258;0.0;0.0;0.0;0.20398399233818054;-0.13176000118255615;1.1331360340118408;0.0;0.0;0.0
2260;0.0;0.0;0.0;0.23131199181079865;-0.15518400073051453;1.1136159896850586;0.0;0.0;0.0
2262;0.08564399927854538;-0.019276000559329987;0.9886879920959473;0.18836799263954163;-0.1512800008058548;1.1497279405593872;0.017499998211860657;0.13124999403953552;0.22312501072883606
2264;0.0;0.0;0.0;0.19617599248886108;-0.16299200057983398;1.1536319255828857;0.0;0.0;0.0
2266;0.0;0.0;0.0;0.19227199256420135;-0.1786080002784729;1.1292319297790527;0.0;0.0;0.0
2268;0.0;0.0;0.0;0.2000799924135208;-0.14347200095653534;1.1536319255828857;0.0;0.0;0.0
2271;0.08344800025224686;-0.020495999604463577;0.9903959631919861;0.20398399233818054;-0.15518400073051453;1.1536319255828857;0.017499998211860657;0.27125000953674316;0.2887499928474426
2273;0.0;0.0;0.0;0.19617599248886108;-0.1668960005044937;1.1282559633255005;0.0;0.0;0.0
2275;0.0;0.0;0.0;0.16884799301624298;-0.1512800008058548;1.1370400190353394;0.0;0.0;0.0
2277;0.0;0.0;0.0;0.1727519929409027;-0.17080000042915344;1.1165440082550049;0.0;0.0;0.0
2279;0.08344800025224686;-0.020739998668432236;0.9896639585494995;0.2000799924135208;-0.14737600088119507;1.1604639291763306;0.08312499523162842;-0.008750006556510925;0.21875
2281;0.0;0.0;0.0;0.18055999279022217;-0.14737600088119507;1.1360639333724976;0.0;0.0;0.0
2283;0.0;0.0;0.0;0.20788799226284027;-0.1668960005044937;1.1282559633255005;0.0;0.0;0.0
2285;0.0;0.0;0.0;0.2000799924135208;-0.16299200057983398;1.1526559591293335;0.0;0.0;0.0
2288;0.08588799834251404;-0.019763998687267303;0.9884439706802368;0.1844639927148819;-0.14737600088119507;1.1204479932785034;0.013124998658895493;0.061250001192092896;0.21875
2290;0.0;0.0;0.0;0.18836799263954163;-0.14737600088119507;1.132159948348999;0.0;0.0;0.0
2292;0.0;0.0;0.0;0.18836799263954163;-0.1395680010318756;1.1448479890823364;0.0;0.0;0.0
2294;0.0;0.0;0.0;0.17665599286556244;-0.1668960005044937;1.1360639333724976;0.0;0.0;0.0
2296;0.08564399927854538;-0.02000799961388111;0.9896639585494995;0.19617599248886108;-0.15908800065517426;1.165343999862671;0.013124998658895493;0.2668750286102295;0.21437501907348633
2298;0.0;0.0;0.0;0.16103999316692352;-0.15908800065517426;1.140944004058838;0.0;0.0;0.0
2300;0.0;0.0;0.0;0.20788799226284027;-0.15518400073051453;1.132159948348999;0.0;0.0;0.0
2302;0.0;0.0;0.0;0.20398399233818054;-0.12785600125789642;1.1448479890823364;0.0;0.0;0.0
2305;0.08295999467372894;-0.020983999595046043;0.9911279678344727;0.1844639927148819;-0.15518400073051453;1.148751974105835;0.08312499523162842;0.12687499821186066;0.21437501907348633
2307;0.0;0.0;0.0;0.18055999279022217;-0.15908800065517426;1.148751974105835;0.0;0.0;0.0
2309;0.0;0.0;0.0;0.19617599248886108;-0.15908800065517426;1.140944004058838;0.0;0.0;0.0
2311;0.0;0.0;0.0;0.2000799924135208;-0.16299200057983398;1.124351978302002;0.0;0.0;0.0
2313;0.08417999744415283;-0.020495999604463577;0.9891759753227234;0.19227199256420135;-0.14737600088119507;1.1370400190353394;0.08312499523162842;-0.08312500268220901;0.21437501907348633
2315;0.0;0.0;0.0;0.19617599248886108;-0.16299200057983398;1.1370400190353394;0.0;0.0;0.0
2317;0.0;0.0;0.0;0.2000799924135208;-0.16299200057983398;1.140944004058838;0.0;0.0;0.0
2319;0.0;0.0;0.0;0.22740799188613892;-0.11614400148391724;1.1526559591293335;0.0;0.0;0.0
2322;0.08661999553442001;-0.019763998687267303;0.9884439706802368;0.2117919921875;-0.14737600088119507;1.1282559633255005;0.013124998658895493;0.05687500536441803;0.21437501907348633
2324;0.0;0.0;0.0;0.21569599211215973;-0.15518400073051453;1.1214239597320557;0.0;0.0;0.0
2326;0.0;0.0;0.0;0.19227199256420135;-0.16299200057983398;1.1331360340118408;0.0;0.0;0.0
2328;0.0;0.0;0.0;0.20788799226284027;-0.1668960005044937;1.1575360298156738;0.0;0.0;0.0
2330;0.0861319974064827;-0.019763998687267303;0.9894199967384338;0.16884799301624298;-0.17470400035381317;1.1214239597320557;0.08312499523162842;0.2668750286102295;0.21000000834465027
2332;0.0;0.0;0.0;0.19227199256420135;-0.1512800008058548;1.1458239555358887;0.0;0.0;0.0
2334;0.0;0.0;0.0;0.20398399233818054;-0.16299200057983398;1.1380159854888916;0.0;0.0;0.0
2336;0.0;0.0;0.0;0.20788799226284027;-0.18251200020313263;1.1419199705123901;0.0;0.0;0.0
2339;0.08344800025224686;-0.020495999604463577;0.990884006023407;0.19227199256420135;-0.1668960005044937;1.1536319255828857;0.08312499523162842;0.12687499821186066;0.21000000834465027
2341;0.0;0.0;0.0;0.19227199256420135;-0.16299200057983398;1.1204479932785034;0.0;0.0;0.0
2343;0.0;0.0;0.0;0.1698240041732788;-0.14347200095653534;1.140944004058838;0.0;0.0;0.0
2345;0.0;0.0;0.0;0.2000799924135208;-0.1239520013332367;1.1614400148391724;0.0;0.0;0.0
2347;0.0849120020866394;-0.02000799961388111;0.98990797996521;0.1844639927148819;-0.15518400073051453;1.132159948348999;0.08312499523162842;0.12687499821186066;0.21000000834465027
2349;0.0;0.0;0.0;0.18836799263954163;-0.1512800008058548;1.1370400190353394;0.0;0.0;0.0
2351;0.0;0.0;0.0;0.1844639927148819;-0.15518400073051453;1.140944004058838;0.0;0.0;0.0
2353;0.0;0.0;0.0;0.21569599211215973;-0.17470400035381317;1.1370400190353394;0.0;0.0;0.0
2356;0.08466799557209015;-0.019763998687267303;0.9913719892501831;0.1844639927148819;-0.1395680010318756;1.173151969909668;0.013124998658895493;0.19687499105930328;0.14000001549720764
2358;0.0;0.0;0.0;0.19617599248886108;-0.17080000042915344;1.1419199705123901;0.0;0.0;0.0
2360;0.0;0.0;0.0;0.16494399309158325;-0.17080000042915344;1.1497279405593872;0.0;0.0;0.0
2362;0.0;0.0;0.0;0.2000799924135208;-0.1512800008058548;1.1380159854888916;0.0;0.0;0.0
2364;0.0849120020866394;-0.02025200054049492;0.9901520013809204;0.2000799924135208;-0.1512800008058548;1.1419199705123901;0.15312500298023224;0.052500009536743164;0.21000000834465027
2366;0.0;0.0;0.0;0.20398399233818054;-0.14347200095653534;1.1419199705123901;0.0;0.0;0.0
