Timestamp(ms);LG-Accel x(g);LG-Accel y(g);LG-Accel z(g);HG-Accel x(g);HG-Accel y(g);HG-Accel z(g);Gyro x(dps);Gyro y(dps);Gyro z(dps)
53;0.0;0.0;0.0;0.18544000387191772;-0.1727519929409027;1.139967918395996;0.0;0.0;0.0
55;0.0;0.0;0.0;0.20105600357055664;-0.14151999354362488;1.1438720226287842;0.0;0.0;0.0
57;0.0;0.0;0.0;0.20105600357055664;-0.13761599361896515;1.1438720226287842;0.0;0.0;0.0
59;0.0;0.0;0.0;0.19715198874473572;-0.1571359932422638;1.1516799926757812;0.0;0.0;0.0
61;0.0;0.0;0.0;0.1698240041732788;-0.16494399309158325;1.1516799926757812;0.0;0.0;0.0
63;0.0;0.0;0.0;0.18934398889541626;-0.1668960005044937;1.132159948348999;0.0;0.0;0.0
66;0.0;0.0;0.0;0.19324800372123718;-0.18251200020313263;1.140944004058838;0.0;0.0;0.0
68;0.0;0.0;0.0;0.18934398889541626;-0.16299200057983398;1.132159948348999;0.0;0.0;0.0
70;0.0832040011882782;-0.020983999595046043;0.9903959631919861;0.17763200402259827;-0.17080000042915344;1.1604639291763306;0.0;0.0;0.0
72;0.0;0.0;0.0;0.20495998859405518;-0.1668960005044937;1.1448479890823364;0.0;0.0;0.0
74;0.0;0.0;0.0;0.21667200326919556;-0.1512800008058548;1.140944004058838;0.0;0.0;0.0
76;0.0;0.0;0.0;0.21276798844337463;-0.14737600088119507;1.124351978302002;0.0;0.0;0.0
78;0.08540000021457672;-0.019763998687267303;0.9886879920959473;0.20495998859405518;-0.14347200095653534;1.140944004058838;0.0;0.0;0.0
80;0.0;0.0;0.0;0.17665599286556244;-0.15518400073051453;1.1204479932785034;0.0;0.0;0.0
83;0.0;0.0;0.0;0.18055999279022217;-0.12785600125789642;1.1126400232315063;0.0;0.0;0.0
85;0.0;0.0;0.0;0.19617599248886108;-0.14737600088119507;1.1370400190353394;0.0;0.0;0.0
87;0.08588799834251404;-0.019763998687267303;0.9894199967384338;0.2000799924135208;-0.1786080002784729;1.148751974105835;0.0;0.0;0.0
89;0.0;0.0;0.0;0.19227199256420135;-0.1512800008058548;1.1204479932785034;0.0;0.0;0.0
91;0.0;0.0;0.0;0.18055999279022217;-0.15518400073051453;1.148751974105835;0.0;0.0;0.0
93;0.0;0.0;0.0;0.21959999203681946;-0.12785600125789642;1.1526559591293335;0.0;0.0;0.0
95;0.08417999744415283;-0.02025200054049492;0.9901520013809204;0.19617599248886108;-0.15518400073051453;1.132159948348999;0.0;0.0;0.0
97;0.0;0.0;0.0;0.18836799263954163;-0.17470400035381317;1.140944004058838;0.0;0.0;0.0
100;0.0;0.0;0.0;0.18055999279022217;-0.15908800065517426;1.1604639291763306;0.0;0.0;0.0
102;0.0;0.0;0.0;0.1727519929409027;-0.14347200095653534;1.124351978302002;0.0;0.0;0.0
104;0.08344800025224686;-0.020739998668432236;0.9906399846076965;0.19617599248886108;-0.1395680010318756;1.148751974105835;0.0;0.0;0.0
106;0.0;0.0;0.0;0.17665599286556244;-0.17080000042915344;1.1370400190353394;0.0;0.0;0.0
108;0.0;0.0;0.0;0.1844639927148819;-0.15908800065517426;1.140944004058838;0.0;0.0;0.0
110;0.0;0.0;0.0;0.2000799924135208;-0.1395680010318756;1.140944004058838;0.0;0.0;0.0
112;0.0849120020866394;-0.02025200054049492;0.9894199967384338;0.1844639927148819;-0.15518400073051453;1.1204479932785034;0.14000000059604645;0.14000000059604645;0.49000000953674316
115;0.0;0.0;0.0;0.1844639927148819;-0.17470400035381317;1.156559944152832;0.0;0.0;0.0
117;0.0;0.0;0.0;0.1727519929409027;-0.1395680010318756;1.140944004058838;0.0;0.0;0.0
119;0.0;0.0;0.0;0.1844639927148819;-0.14347200095653534;1.1448479890823364;0.0;0.0;0.0
121;0.0861319974064827;-0.02000799961388111;0.9879559874534607;0.1727519929409027;-0.14347200095653534;1.132159948348999;0.07000000029802322;0.2800000011920929;0.49000000953674316
123;0.0;0.0;0.0;0.19617599248886108;-0.15908800065517426;1.148751974105835;0.0;0.0;0.0
125;0.0;0.0;0.0;0.21569599211215973;-0.16299200057983398;1.1614400148391724;0.0;0.0;0.0
127;0.0;0.0;0.0;0.1844639927148819;-0.18251200020313263;1.140944004058838;0.0;0.0;0.0
129;0.08442399650812149;-0.020739998668432236;0.9896639585494995;0.18836799263954163;-0.15518400073051453;1.140944004058838;0.0;0.42000001668930054;0.49000000953674316
132;0.0;0.0;0.0;0.19227199256420135;-0.1239520013332367;1.132159948348999;0.0;0.0;0.0
134;0.0;0.0;0.0;0.20788799226284027;-0.1668960005044937;1.148751974105835;0.0;0.0;0.0
136;0.0;0.0;0.0;0.20788799226284027;-0.1668960005044937;1.1692479848861694;0.0;0.0;0.0
138;0.08393599838018417;-0.02025200054049492;0.9896639585494995;0.19227199256420135;-0.16299200057983398;1.1692479848861694;0.14000000059604645;0.21000000834465027;0.49000000953674316
140;0.0;0.0;0.0;0.2117919921875;-0.12785600125789642;1.1282559633255005;0.0;0.0;0.0
142;0.0;0.0;0.0;0.19617599248886108;-0.14347200095653534;1.1692479848861694;0.0;0.0;0.0
144;0.0;0.0;0.0;0.16884799301624298;-0.16299200057983398;1.1360639333724976;0.0;0.0;0.0
146;0.08564399927854538;-0.019763998687267303;0.9894199967384338;0.2117919921875;-0.1512800008058548;1.148751974105835;0.14000000059604645;0.14000000059604645;0.49000000953674316
149;0.0;0.0;0.0;0.20398399233818054;-0.15518400073051453;1.1526559591293335;0.0;0.0;0.0
151;0.0;0.0;0.0;0.1844639927148819;-0.1668960005044937;1.1448479890823364;0.0;0.0;0.0
153;0.0;0.0;0.0;0.20398399233818054;-0.15908800065517426;1.1370400190353394;0.0;0.0;0.0
155;0.08588799834251404;-0.020495999604463577;0.98990797996521;0.20398399233818054;-0.1512800008058548;1.1165440082550049;0.07000000029802322;0.3499999940395355;0.5600000023841858
157;0.0;0.0;0.0;0.19227199256420135;-0.14737600088119507;1.1282559633255005;0.0;0.0;0.0
159;0.0;0.0;0.0;0.20788799226284027;-0.1512800008058548;1.1282559633255005;0.0;0.0;0.0
161;0.0;0.0;0.0;0.20788799226284027;-0.16299200057983398;1.140944004058838;0.0;0.0;0.0
163;0.08393599838018417;-0.02147199958562851;0.9911279678344727;0.1844639927148819;-0.15908800065517426;1.1526559591293335;0.14000000059604645;0.3499999940395355;0.49000000953674316
166;0.0;0.0;0.0;0.18055999279022217;-0.1668960005044937;1.1448479890823364;0.0;0.0;0.0
168;0.0;0.0;0.0;0.19227199256420135;-0.15908800065517426;1.1448479890823364;0.0;0.0;0.0
170;0.0;0.0;0.0;0.20398399233818054;-0.15908800065517426;1.148751974105835;0.0;0.0;0.0
172;0.0849120020866394;-0.019763998687267303;0.98990797996521;0.17665599286556244;-0.13176000118255615;1.156559944152832;0.07000000029802322;0.14000000059604645;0.49000000953674316
174;0.0;0.0;0.0;0.19617599248886108;-0.17080000042915344;1.1526559591293335;0.0;0.0;0.0
176;0.0;0.0;0.0;0.20398399233818054;-0.15518400073051453;1.140944004058838;0.0;0.0;0.0
178;0.0;0.0;0.0;0.16103999316692352;-0.15908800065517426;1.140944004058838;0.0;0.0;0.0
180;0.08515600115060806;-0.01878799870610237;0.9886879920959473;0.2000799924135208;-0.15518400073051453;1.1204479932785034;0.14000000059604645;0.2800000011920929;0.49000000953674316
183;0.0;0.0;0.0;0.17665599286556244;-0.1668960005044937;1.1604639291763306;0.0;0.0;0.0
185;0.0;0.0;0.0;0.19617599248886108;-0.16299200057983398;1.132159948348999;0.0;0.0;0.0
187;0.0;0.0;0.0;0.17665599286556244;-0.1512800008058548;1.1448479890823364;0.0;0.0;0.0
189;0.08515600115060806;-0.019519999623298645;0.9884439706802368;0.1844639927148819;-0.1668960005044937;1.1448479890823364;0.07000000029802322;0.2800000011920929;0.49000000953674316
191;0.0;0.0;0.0;0.18836799263954163;-0.15518400073051453;1.132159948348999;0.0;0.0;0.0
193;0.0;0.0;0.0;0.2117919921875;-0.1512800008058548;1.156559944152832;0.0;0.0;0.0
195;0.0;0.0;0.0;0.2000799924135208;-0.1512800008058548;1.1448479890823364;0.0;0.0;0.0
197;0.08588799834251404;-0.020495999604463577;0.9889319539070129;0.21569599211215973;-0.15908800065517426;1.148751974105835;0.14000000059604645;0.2800000011920929;0.49000000953674316
200;0.0;0.0;0.0;0.21569599211215973;-0.15908800065517426;1.1448479890823364;0.0;0.0;0.0
202;0.0;0.0;0.0;0.1727519929409027;-0.14347200095653534;1.148751974105835;0.0;0.0;0.0
204;0.0;0.0;0.0;0.2117919921875;-0.14347200095653534;1.132159948348999;0.0;0.0;0.0
206;0.08661999553442001;-0.02025200054049492;0.9891759753227234;0.20398399233818054;-0.1668960005044937;1.132159948348999;0.14000000059604645;0.3499999940395355;0.49000000953674316
208;0.0;0.0;0.0;0.19617599248886108;-0.14347200095653534;1.156559944152832;0.0;0.0;0.0
210;0.0;0.0;0.0;0.18836799263954163;-0.13176000118255615;1.132159948348999;0.0;0.0;0.0
212;0.0;0.0;0.0;0.20398399233818054;-0.1512800008058548;1.1360639333724976;0.0;0.0;0.0
214;0.08466799557209015;-0.019763998687267303;0.98990797996521;0.18836799263954163;-0.14737600088119507;1.1448479890823364;0.14000000059604645;0.2800000011920929;0.5600000023841858
217;0.0;0.0;0.0;0.19227199256420135;-0.15908800065517426;1.148751974105835;0.0;0.0;0.0
219;0.0;0.0;0.0;0.17665599286556244;-0.16299200057983398;1.148751974105835;0.0;0.0;0.0
221;0.0;0.0;0.0;0.20398399233818054;-0.16299200057983398;1.140944004058838;0.0;0.0;0.0
223;0.08442399650812149;-0.02000799961388111;0.98990797996521;0.18836799263954163;-0.1512800008058548;1.1526559591293335;0.14000000059604645;0.14000000059604645;0.5600000023841858
225;0.0;0.0;0.0;0.21569599211215973;-0.13566400110721588;1.1204479932785034;0.0;0.0;0.0
227;0.0;0.0;0.0;0.1844639927148819;-0.14347200095653534;1.132159948348999;0.0;0.0;0.0
229;0.0;0.0;0.0;0.20398399233818054;-0.17470400035381317;1.132159948348999;0.0;0.0;0.0
231;0.08564399927854538;-0.019763998687267303;0.9884439706802368;0.20788799226284027;-0.15518400073051453;1.1282559633255005;0.07000000029802322;0.2800000011920929;0.49000000953674316
234;0.0;0.0;0.0;0.17665599286556244;-0.17080000042915344;1.1448479890823364;0.0;0.0;0.0
236;0.0;0.0;0.0;0.19227199256420135;-0.14737600088119507;1.1370400190353394;0.0;0.0;0.0
238;0.0;0.0;0.0;0.2000799924135208;-0.1668960005044937;1.140944004058838;0.0;0.0;0.0
240;0.08442399650812149;-0.020739998668432236;0.9886879920959473;0.18836799263954163;-0.15518400073051453;1.1370400190353394;0.07000000029802322;0.3499999940395355;0.49000000953674316
242;0.0;0.0;0.0;0.2000799924135208;-0.13566400110721588;1.1448479890823364;0.0;0.0;0.0
244;0.0;0.0;0.0;0.2000799924135208;-0.15518400073051453;1.132159948348999;0.0;0.0;0.0
246;0.0;0.0;0.0;0.21959999203681946;-0.13566400110721588;1.140944004058838;0.0;0.0;0.0
248;0.0832040011882782;-0.020739998668432236;0.9889319539070129;0.18836799263954163;-0.14347200095653534;1.1370400190353394;0.14000000059604645;0.2800000011920929;0.49000000953674316
251;0.0;0.0;0.0;0.20398399233818054;-0.16299200057983398;1.1448479890823364;0.0;0.0;0.0
253;0.0;0.0;0.0;0.19617599248886108;-0.1668960005044937;1.132159948348999;0.0;0.0;0.0
255;0.0;0.0;0.0;0.1844639927148819;-0.16299200057983398;1.1282559633255005;0.0;0.0;0.0
257;0.08417999744415283;-0.019763998687267303;0.9891759753227234;0.20788799226284027;-0.18251200020313263;1.140944004058838;0.14000000059604645;0.21000000834465027;0.49000000953674316
259;0.0;0.0;0.0;0.18836799263954163;-0.14737600088119507;1.1370400190353394;0.0;0.0;0.0
261;0.0;0.0;0.0;0.1844639927148819;-0.15518400073051453;1.1526559591293335;0.0;0.0;0.0
263;0.0;0.0;0.0;0.18055999279022217;-0.14347200095653534;1.1282559633255005;0.0;0.0;0.0
265;0.08442399650812149;-0.019763998687267303;0.9896639585494995;0.19617599248886108;-0.13566400110721588;1.148751974105835;0.14000000059604645;0.2800000011920929;0.49000000953674316
268;0.0;0.0;0.0;0.20788799226284027;-0.14347200095653534;1.1526559591293335;0.0;0.0;0.0
270;0.0;0.0;0.0;0.18836799263954163;-0.17080000042915344;1.1448479890823364;0.0;0.0;0.0
272;0.0;0.0;0.0;0.16884799301624298;-0.16299200057983398;1.1526559591293335;0.0;0.0;0.0
274;0.08222799748182297;-0.02000799961388111;0.9901520013809204;0.20398399233818054;-0.1512800008058548;1.140944004058838;0.07000000029802322;0.3499999940395355;0.49000000953674316
276;0.0;0.0;0.0;0.2000799924135208;-0.14737600088119507;1.1370400190353394;0.0;0.0;0.0
278;0.0;0.0;0.0;0.18055999279022217;-0.14347200095653534;1.173151969909668;0.0;0.0;0.0
280;0.0;0.0;0.0;0.18055999279022217;-0.1395680010318756;1.1370400190353394;0.0;0.0;0.0
282;0.08271599560976028;-0.02025200054049492;0.9906399846076965;0.19227199256420135;-0.17470400035381317;1.1526559591293335;0.14000000059604645;0.21000000834465027;0.42000001668930054
285;0.0;0.0;0.0;0.2000799924135208;-0.16299200057983398;1.1448479890823364;0.0;0.0;0.0
287;0.0;0.0;0.0;0.18836799263954163;-0.16299200057983398;1.1370400190353394;0.0;0.0;0.0
289;0.0;0.0;0.0;0.20788799226284027;-0.15908800065517426;1.1614400148391724;0.0;0.0;0.0
291;0.08515600115060806;-0.020495999604463577;0.9891759753227234;0.18836799263954163;-0.14737600088119507;1.140944004058838;0.14000000059604645;0.21000000834465027;0.49000000953674316
293;0.0;0.0;0.0;0.18836799263954163;-0.13176000118255615;1.1370400190353394;0.0;0.0;0.0
295;0.0;0.0;0.0;0.23521599173545837;-0.14347200095653534;1.148751974105835;0.0;0.0;0.0
297;0.0;0.0;0.0;0.19227199256420135;-0.14737600088119507;1.107759952545166;0.0;0.0;0.0
299;0.08515600115060806;-0.02000799961388111;0.9889319539070129;0.19227199256420135;-0.1395680010318756;1.132159948348999;0.07000000029802322;0.2800000011920929;0.49000000953674316
302;0.0;0.0;0.0;0.18055999279022217;-0.15908800065517426;1.124351978302002;0.0;0.0;0.0
304;0.0;0.0;0.0;0.18836799263954163;-0.1668960005044937;1.1692479848861694;0.0;0.0;0.0
306;0.0;0.0;0.0;0.18836799263954163;-0.13566400110721588;1.1165440082550049;0.0;0.0;0.0
308;0.08466799557209015;-0.020739998668432236;0.9896639585494995;0.16494399309158325;-0.15908800065517426;1.124351978302002;0.14000000059604645;0.3499999940395355;0.49000000953674316
310;0.0;0.0;0.0;0.16201600432395935;-0.15908800065517426;1.1448479890823364;0.0;0.0;0.0
312;0.0;0.0;0.0;0.2000799924135208;-0.16299200057983398;1.1282559633255005;0.0;0.0;0.0
314;0.0;0.0;0.0;0.2000799924135208;-0.14347200095653534;1.124351978302002;0.0;0.0;0.0
317;0.08540000021457672;-0.019763998687267303;0.98990797996521;0.19227199256420135;-0.15518400073051453;1.148751974105835;0.07000000029802322;0.21000000834465027;0.49000000953674316
319;0.0;0.0;0.0;0.18836799263954163;-0.14347200095653534;1.132159948348999;0.0;0.0;0.0
321;0.0;0.0;0.0;0.19227199256420135;-0.13566400110721588;1.156559944152832;0.0;0.0;0.0
323;0.0;0.0;0.0;0.20398399233818054;-0.15908800065517426;1.140944004058838;0.0;0.0;0.0
325;0.08661999553442001;-0.02000799961388111;0.98990797996521;0.18836799263954163;-0.1512800008058548;1.1370400190353394;0.07000000029802322;0.2800000011920929;0.49000000953674316
327;0.0;0.0;0.0;0.19227199256420135;-0.13176000118255615;1.165343999862671;0.0;0.0;0.0
329;0.0;0.0;0.0;0.20788799226284027;-0.17080000042915344;1.1448479890823364;0.0;0.0;0.0
331;0.0;0.0;0.0;0.20788799226284027;-0.1668960005044937;1.132159948348999;0.0;0.0;0.0
334;0.0861319974064827;-0.020495999604463577;0.98990797996521;0.18836799263954163;-0.14737600088119507;1.1165440082550049;0.14000000059604645;0.2800000011920929;0.49000000953674316
336;0.0;0.0;0.0;0.19227199256420135;-0.1239520013332367;1.1526559591293335;0.0;0.0;0.0
338;0.0;0.0;0.0;0.18836799263954163;-0.17080000042915344;1.1604639291763306;0.0;0.0;0.0
340;0.0;0.0;0.0;0.2000799924135208;-0.1668960005044937;1.1370400190353394;0.0;0.0;0.0
342;0.0861319974064827;-0.019519999623298645;0.9901520013809204;0.2000799924135208;-0.1668960005044937;1.148751974105835;0.14000000059604645;0.2800000011920929;0.49000000953674316
344;0.0;0.0;0.0;0.19227199256420135;-0.14347200095653534;1.1526559591293335;0.0;0.0;0.0
346;0.0;0.0;0.0;0.18836799263954163;-0.15908800065517426;1.132159948348999;0.0;0.0;0.0
348;0.0;0.0;0.0;0.19617599248886108;-0.16299200057983398;1.1692479848861694;0.0;0.0;0.0
351;0.08661999553442001;-0.019763998687267303;0.9891759753227234;0.2000799924135208;-0.15518400073051453;1.132159948348999;0.07000000029802322;0.2800000011920929;0.49000000953674316
353;0.0;0.0;0.0;0.18055999279022217;-0.12785600125789642;1.156559944152832;0.0;0.0;0.0
355;0.0;0.0;0.0;0.18055999279022217;-0.14737600088119507;1.1448479890823364;0.0;0.0;0.0
357;0.0;0.0;0.0;0.20788799226284027;-0.1512800008058548;1.1526559591293335;0.0;0.0;0.0
359;0.08515600115060806;-0.019763998687267303;0.9901520013809204;0.20788799226284027;-0.14347200095653534;1.140944004058838;0.07000000029802322;0.2800000011920929;0.5600000023841858
361;0.0;0.0;0.0;0.20788799226284027;-0.1903200000524521;1.165343999862671;0.0;0.0;0.0
363;0.0;0.0;0.0;0.18836799263954163;-0.15518400073051453;1.140944004058838;0.0;0.0;0.0
365;0.0;0.0;0.0;0.2000799924135208;-0.1668960005044937;1.148751974105835;0.0;0.0;0.0
368;0.08442399650812149;-0.02025200054049492;0.9896639585494995;0.1727519929409027;-0.1512800008058548;1.1448479890823364;0.07000000029802322;0.2800000011920929;0.5600000023841858
370;0.0;0.0;0.0;0.2000799924135208;-0.1512800008058548;1.1448479890823364;0.0;0.0;0.0
372;0.0;0.0;0.0;0.1844639927148819;-0.17080000042915344;1.1282559633255005;0.0;0.0;0.0
374;0.0;0.0;0.0;0.18055999279022217;-0.15908800065517426;1.140944004058838;0.0;0.0;0.0
376;0.08442399650812149;-0.020739998668432236;0.9896639585494995;0.2235039919614792;-0.15518400073051453;1.140944004058838;0.07000000029802322;0.2800000011920929;0.49000000953674316
378;0.0;0.0;0.0;0.20788799226284027;-0.14347200095653534;1.1448479890823364;0.0;0.0;0.0
380;0.0;0.0;0.0;0.2000799924135208;-0.15908800065517426;1.1448479890823364;0.0;0.0;0.0
382;0.0;0.0;0.0;0.2000799924135208;-0.15908800065517426;1.1370400190353394;0.0;0.0;0.0
385;0.08393599838018417;-0.020983999595046043;0.9891759753227234;0.19617599248886108;-0.17080000042915344;1.132159948348999;0.07000000029802322;0.2800000011920929;0.49000000953674316
387;0.0;0.0;0.0;0.18055999279022217;-0.15908800065517426;1.156559944152832;0.0;0.0;0.0
389;0.0;0.0;0.0;0.20788799226284027;-0.18251200020313263;1.132159948348999;0.0;0.0;0.0
391;0.0;0.0;0.0;0.1844639927148819;-0.15908800065517426;1.148751974105835;0.0;0.0;0.0
393;0.08442399650812149;-0.020983999595046043;0.9894199967384338;0.18836799263954163;-0.15908800065517426;1.140944004058838;0.14000000059604645;0.21000000834465027;0.49000000953674316
395;0.0;0.0;0.0;0.18836799263954163;-0.18641600012779236;1.1526559591293335;0.0;0.0;0.0
397;0.0;0.0;0.0;0.2000799924135208;-0.16299200057983398;1.1370400190353394;0.0;0.0;0.0
399;0.0;0.0;0.0;0.20398399233818054;-0.1668960005044937;1.1604639291763306;0.0;0.0;0.0
402;0.08417999744415283;-0.020739998668432236;0.9891759753227234;0.1844639927148819;-0.17080000042915344;1.1448479890823364;0.07000000029802322;0.2800000011920929;0.49000000953674316
404;0.0;0.0;0.0;0.2117919921875;-0.14737600088119507;1.1360639333724976;0.0;0.0;0.0
406;0.0;0.0;0.0;0.18836799263954163;-0.13566400110721588;1.140944004058838;0.0;0.0;0.0
408;0.0;0.0;0.0;0.18055999279022217;-0.15518400073051453;1.1360639333724976;0.0;0.0;0.0
410;0.08369199931621552;-0.02025200054049492;0.98990797996521;0.19227199256420135;-0.15908800065517426;1.140944004058838;0.07000000029802322;0.3499999940395355;0.5600000023841858
412;0.0;0.0;0.0;0.19617599248886108;-0.12004800140857697;1.148751974105835;0.0;0.0;0.0
414;0.0;0.0;0.0;0.18836799263954163;-0.14737600088119507;1.1448479890823364;0.0;0.0;0.0
416;0.0;0.0;0.0;0.21959999203681946;-0.14347200095653534;1.1448479890823364;0.0;0.0;0.0
419;0.08466799557209015;-0.019763998687267303;0.9891759753227234;0.17665599286556244;-0.1395680010318756;1.124351978302002;0.14000000059604645;0.21000000834465027;0.49000000953674316
421;0.0;0.0;0.0;0.18055999279022217;-0.12004800140857697;1.1526559591293335;0.0;0.0;0.0
423;0.0;0.0;0.0;0.19617599248886108;-0.15518400073051453;1.1448479890823364;0.0;0.0;0.0
425;0.0;0.0;0.0;0.19617599248886108;-0.14347200095653534;1.1448479890823364;0.0;0.0;0.0
427;0.08564399927854538;-0.02000799961388111;0.98990797996521;0.2000799924135208;-0.14347200095653534;1.140944004058838;0.07000000029802322;0.21000000834465027;0.49000000953674316
429;0.0;0.0;0.0;0.19227199256420135;-0.15518400073051453;1.1360639333724976;0.0;0.0;0.0
431;0.0;0.0;0.0;0.20788799226284027;-0.15518400073051453;1.1614400148391724;0.0;0.0;0.0
433;0.0;0.0;0.0;0.2000799924135208;-0.16299200057983398;1.1526559591293335;0.0;0.0;0.0
436;0.08588799834251404;-0.020495999604463577;0.9894199967384338;0.21959999203681946;-0.14347200095653534;1.1370400190353394;0.07000000029802322;0.3499999940395355;0.49000000953674316
438;0.0;0.0;0.0;0.20788799226284027;-0.1668960005044937;1.140944004058838;0.0;0.0;0.0
440;0.0;0.0;0.0;0.2000799924135208;-0.15518400073051453;1.1370400190353394;0.0;0.0;0.0
442;0.0;0.0;0.0;0.2117919921875;-0.13176000118255615;1.156559944152832;0.0;0.0;0.0
444;0.08515600115060806;-0.02000799961388111;0.9906399846076965;0.21959999203681946;-0.1395680010318756;1.140944004058838;0.07000000029802322;0.3499999940395355;0.5600000023841858
446;0.0;0.0;0.0;0.19617599248886108;-0.15518400073051453;1.1526559591293335;0.0;0.0;0.0
448;0.0;0.0;0.0;0.20398399233818054;-0.1668960005044937;1.132159948348999;0.0;0.0;0.0
450;0.0;0.0;0.0;0.2000799924135208;-0.15518400073051453;1.140944004058838;0.0;0.0;0.0
453;0.08515600115060806;-0.020495999604463577;0.9903959631919861;0.1844639927148819;-0.15908800065517426;1.165343999862671;0.07000000029802322;0.2800000011920929;0.49000000953674316
455;0.0;0.0;0.0;0.21959999203681946;-0.14347200095653534;1.1448479890823364;0.0;0.0;0.0
457;0.0;0.0;0.0;0.17665599286556244;-0.13176000118255615;1.132159948348999;0.0;0.0;0.0
459;0.0;0.0;0.0;0.1844639927148819;-0.15518400073051453;1.140944004058838;0.0;0.0;0.0
461;0.08564399927854538;-0.019763998687267303;0.98990797996521;0.20398399233818054;-0.14737600088119507;1.132159948348999;0.14000000059604645;0.21000000834465027;0.49000000953674316
463;0.0;0.0;0.0;0.19617599248886108;-0.1512800008058548;1.132159948348999;0.0;0.0;0.0
465;0.0;0.0;0.0;0.1844639927148819;-0.14347200095653534;1.148751974105835;0.0;0.0;0.0
467;0.0;0.0;0.0;0.2000799924135208;-0.1668960005044937;1.140944004058838;0.0;0.0;0.0
470;0.08588799834251404;-0.019763998687267303;0.9896639585494995;0.18836799263954163;-0.18251200020313263;1.124351978302002;0.14000000059604645;0.21000000834465027;0.5600000023841858
472;0.0;0.0;0.0;0.19227199256420135;-0.14347200095653534;1.124351978302002;0.0;0.0;0.0
474;0.0;0.0;0.0;0.19617599248886108;-0.14347200095653534;1.148751974105835;0.0;0.0;0.0
476;0.0;0.0;0.0;0.19617599248886108;-0.1668960005044937;1.1370400190353394;0.0;0.0;0.0
478;0.0861319974064827;-0.02000799961388111;0.9889319539070129;0.17665599286556244;-0.15518400073051453;1.148751974105835;0.07000000029802322;0.2800000011920929;0.49000000953674316
480;0.0;0.0;0.0;0.19617599248886108;-0.14347200095653534;1.140944004058838;0.0;0.0;0.0
482;0.0;0.0;0.0;0.19617599248886108;-0.14737600088119507;1.132159948348999;0.0;0.0;0.0
485;0.0;0.0;0.0;0.19617599248886108;-0.1512800008058548;1.140944004058838;0.0;0.0;0.0
487;0.08442399650812149;-0.02122800052165985;0.9901520013809204;0.18055999279022217;-0.17080000042915344;1.140944004058838;0.07000000029802322;0.3499999940395355;0.49000000953674316
489;0.0;0.0;0.0;0.18055999279022217;-0.15908800065517426;1.132159948348999;0.0;0.0;0.0
491;0.0;0.0;0.0;0.21569599211215973;-0.15518400073051453;1.132159948348999;0.0;0.0;0.0
493;0.0;0.0;0.0;0.18836799263954163;-0.15908800065517426;1.132159948348999;0.0;0.0;0.0
495;0.08417999744415283;-0.02025200054049492;0.9896639585494995;0.20788799226284027;-0.14737600088119507;1.1370400190353394;0.14000000059604645;0.21000000834465027;0.49000000953674316
497;0.0;0.0;0.0;0.16884799301624298;-0.16299200057983398;1.140944004058838;0.0;0.0;0.0
499;0.0;0.0;0.0;0.19617599248886108;-0.14347200095653534;1.1331360340118408;0.0;0.0;0.0
502;0.0;0.0;0.0;0.19227199256420135;-0.15518400073051453;1.1604639291763306;0.0;0.0;0.0
504;0.08442399650812149;-0.019763998687267303;0.9884439706802368;0.19617599248886108;-0.1786080002784729;1.1370400190353394;0.14000000059604645;0.21000000834465027;0.49000000953674316
506;0.0;0.0;0.0;0.18836799263954163;-0.17080000042915344;1.132159948348999;0.0;0.0;0.0
508;0.0;0.0;0.0;0.19617599248886108;-0.17470400035381317;1.148751974105835;0.0;0.0;0.0
510;0.0;0.0;0.0;0.2000799924135208;-0.15908800065517426;1.1448479890823364;0.0;0.0;0.0
512;0.08417999744415283;-0.020739998668432236;0.9894199967384338;0.1844639927148819;-0.1512800008058548;1.140944004058838;0.07000000029802322;0.42000001668930054;0.49000000953674316
514;0.0;0.0;0.0;0.2000799924135208;-0.1512800008058548;1.140944004058838;0.0;0.0;0.0
516;0.0;0.0;0.0;0.16494399309158325;-0.17080000042915344;1.140944004058838;0.0;0.0;0.0
519;0.0;0.0;0.0;0.19227199256420135;-0.14347200095653534;1.1370400190353394;0.0;0.0;0.0
521;0.08369199931621552;-0.02122800052165985;0.9906399846076965;0.2117919921875;-0.1668960005044937;1.140944004058838;0.07000000029802322;0.3499999940395355;0.49000000953674316
523;0.0;0.0;0.0;0.2000799924135208;-0.1395680010318756;1.140944004058838;0.0;0.0;0.0
525;0.0;0.0;0.0;0.19227199256420135;-0.1512800008058548;1.132159948348999;0.0;0.0;0.0
527;0.0;0.0;0.0;0.18055999279022217;-0.15908800065517426;1.1448479890823364;0.0;0.0;0.0
529;0.08393599838018417;-0.020739998668432236;0.9903959631919861;0.20788799226284027;-0.1512800008058548;1.1204479932785034;0.14000000059604645;0.21000000834465027;0.49000000953674316
531;0.0;0.0;0.0;0.20788799226284027;-0.1239520013332367;1.1448479890823364;0.0;0.0;0.0
533;0.0;0.0;0.0;0.2235039919614792;-0.15518400073051453;1.1360639333724976;0.0;0.0;0.0
536;0.0;0.0;0.0;0.1844639927148819;-0.15908800065517426;1.1526559591293335;0.0;0.0;0.0
538;0.08515600115060806;-0.019276000559329987;0.9894199967384338;0.20788799226284027;-0.1512800008058548;1.1526559591293335;0.14000000059604645;0.21000000834465027;0.49000000953674316
540;0.0;0.0;0.0;0.19227199256420135;-0.1395680010318756;1.165343999862671;0.0;0.0;0.0
542;0.0;0.0;0.0;0.2000799924135208;-0.15518400073051453;1.1370400190353394;0.0;0.0;0.0
544;0.0;0.0;0.0;0.19617599248886108;-0.1668960005044937;1.1604639291763306;0.0;0.0;0.0
546;0.08588799834251404;-0.02025200054049492;0.9884439706802368;0.1727519929409027;-0.1512800008058548;1.1604639291763306;0.07000000029802322;0.2800000011920929;0.49000000953674316
548;0.0;0.0;0.0;0.2117919921875;-0.15518400073051453;1.148751974105835;0.0;0.0;0.0
550;0.0;0.0;0.0;0.1727519929409027;-0.13566400110721588;1.1204479932785034;0.0;0.0;0.0
553;0.0;0.0;0.0;0.1844639927148819;-0.14347200095653534;1.124351978302002;0.0;0.0;0.0
555;0.0849120020866394;-0.020983999595046043;0.9896639585494995;0.19617599248886108;-0.1395680010318756;1.124351978302002;0.07000000029802322;0.2800000011920929;0.49000000953674316
557;0.0;0.0;0.0;0.20788799226284027;-0.1512800008058548;1.156559944152832;0.0;0.0;0.0
559;0.0;0.0;0.0;0.19227199256420135;-0.13566400110721588;1.1370400190353394;0.0;0.0;0.0
561;0.0;0.0;0.0;0.18055999279022217;-0.15518400073051453;1.148751974105835;0.0;0.0;0.0
563;0.08442399650812149;-0.020739998668432236;0.9896639585494995;0.18055999279022217;-0.17080000042915344;1.1282559633255005;0.14000000059604645;0.2800000011920929;0.49000000953674316
565;0.0;0.0;0.0;0.2117919921875;-0.12785600125789642;1.140944004058838;0.0;0.0;0.0
567;0.0;0.0;0.0;0.2000799924135208;-0.14347200095653534;1.140944004058838;0.0;0.0;0.0
570;0.0;0.0;0.0;0.19227199256420135;-0.1668960005044937;1.1370400190353394;0.0;0.0;0.0
572;0.08540000021457672;-0.020739998668432236;0.9894199967384338;0.17665599286556244;-0.1512800008058548;1.1604639291763306;0.07000000029802322;0.21000000834465027;0.49000000953674316
574;0.0;0.0;0.0;0.18544000387191772;-0.1786080002784729;1.140944004058838;0.0;0.0;0.0
576;0.0;0.0;0.0;0.18544000387191772;-0.13176000118255615;1.148751974105835;0.0;0.0;0.0
578;0.0;0.0;0.0;0.19715198874473572;-0.14347200095653534;1.1604639291763306;0.0;0.0;0.0
580;0.08637599647045135;-0.019519999623298645;0.9886879920959473;0.18544000387191772;-0.15518400073051453;1.1448479890823364;0.07000000029802322;0.2800000011920929;0.49000000953674316
583;0.0;0.0;0.0;0.19715198874473572;-0.1668960005044937;1.1360639333724976;0.0;0.0;0.0
584;0.0;0.0;0.0;0.2205759882926941;-0.15518400073051453;1.1282559633255005;0.0;0.0;0.0
587;0.0;0.0;0.0;0.20495998859405518;-0.15908800065517426;1.1331360340118408;0.0;0.0;0.0
589;0.08637599647045135;-0.019763998687267303;0.9889319539070129;0.19715198874473572;-0.16299200057983398;1.156559944152832;0.07000000029802322;0.2800000011920929;0.49000000953674316
591;0.0;0.0;0.0;0.1844639927148819;-0.15518400073051453;1.1526559591293335;0.0;0.0;0.0
593;0.0;0.0;0.0;0.1844639927148819;-0.1786080002784729;1.1448479890823364;0.0;0.0;0.0
595;0.0;0.0;0.0;0.1844639927148819;-0.16299200057983398;1.1448479890823364;0.0;0.0;0.0
597;0.08588799834251404;-0.02025200054049492;0.9894199967384338;0.20398399233818054;-0.15908800065517426;1.124351978302002;0.07000000029802322;0.3499999940395355;0.49000000953674316
600;0.0;0.0;0.0;0.16103999316692352;-0.16299200057983398;1.1604639291763306;0.0;0.0;0.0
601;0.0;0.0;0.0;0.19617599248886108;-0.15518400073051453;1.1448479890823364;0.0;0.0;0.0
604;0.0;0.0;0.0;0.18055999279022217;-0.15908800065517426;1.156559944152832;0.0;0.0;0.0
606;0.08540000021457672;-0.02025200054049492;0.98990797996521;0.20788799226284027;-0.17080000042915344;1.132159948348999;0.14000000059604645;0.2800000011920929;0.49000000953674316
608;0.0;0.0;0.0;0.1844639927148819;-0.1668960005044937;1.140944004058838;0.0;0.0;0.0
610;0.0;0.0;0.0;0.2000799924135208;-0.17080000042915344;1.1204479932785034;0.0;0.0;0.0
612;0.0;0.0;0.0;0.2117919921875;-0.13566400110721588;1.140944004058838;0.0;0.0;0.0
614;0.08515600115060806;-0.02000799961388111;0.9889319539070129;0.2000799924135208;-0.14737600088119507;1.1526559591293335;0.07000000029802322;0.21000000834465027;0.49000000953674316
616;0.0;0.0;0.0;0.19617599248886108;-0.1395680010318756;1.140944004058838;0.0;0.0;0.0
618;0.0;0.0;0.0;0.20788799226284027;-0.13566400110721588;1.1526559591293335;0.0;0.0;0.0
621;0.0;0.0;0.0;0.18055999279022217;-0.16299200057983398;1.1204479932785034;0.0;0.0;0.0
623;0.08417999744415283;-0.020495999604463577;0.9891759753227234;0.2117919921875;-0.15518400073051453;1.1448479890823364;0.07000000029802322;0.3499999940395355;0.5600000023841858
625;0.0;0.0;0.0;0.18055999279022217;-0.15518400073051453;1.1526559591293335;0.0;0.0;0.0
627;0.0;0.0;0.0;0.18836799263954163;-0.1668960005044937;1.1204479932785034;0.0;0.0;0.0
629;0.0;0.0;0.0;0.19227199256420135;-0.15518400073051453;1.1360639333724976;0.0;0.0;0.0
631;0.08442399650812149;-0.02025200054049492;0.9901520013809204;0.20398399233818054;-0.1512800008058548;1.1370400190353394;0.14000000059604645;0.2800000011920929;0.49000000953674316
633;0.0;0.0;0.0;0.18836799263954163;-0.15908800065517426;1.140944004058838;0.0;0.0;0.0
635;0.0;0.0;0.0;0.19227199256420135;-0.14347200095653534;1.1282559633255005;0.0;0.0;0.0
638;0.0;0.0;0.0;0.19617599248886108;-0.13176000118255615;1.107759952545166;0.0;0.0;0.0
640;0.0832040011882782;-0.02025200054049492;0.9901520013809204;0.18836799263954163;-0.14737600088119507;1.156559944152832;0.14000000059604645;0.21000000834465027;0.49000000953674316
642;0.0;0.0;0.0;0.19227199256420135;-0.14737600088119507;1.132159948348999;0.0;0.0;0.0
644;0.0;0.0;0.0;0.20788799226284027;-0.15908800065517426;1.1448479890823364;0.0;0.0;0.0
646;0.0;0.0;0.0;0.20398399233818054;-0.1239520013332367;1.140944004058838;0.0;0.0;0.0
648;0.08344800025224686;-0.019519999623298645;0.9886879920959473;0.17665599286556244;-0.15908800065517426;1.1282559633255005;0.14000000059604645;0.14000000059604645;0.49000000953674316
650;0.0;0.0;0.0;0.19227199256420135;-0.1668960005044937;1.1448479890823364;0.0;0.0;0.0
653;0.0;0.0;0.0;0.19617599248886108;-0.15518400073051453;1.140944004058838;0.0;0.0;0.0
655;0.0;0.0;0.0;0.19617599248886108;-0.17470400035381317;1.1282559633255005;0.0;0.0;0.0
657;0.08417999744415283;-0.019763998687267303;0.9884439706802368;0.1727519929409027;-0.14737600088119507;1.132159948348999;0.07000000029802322;0.2800000011920929;0.49000000953674316
659;0.0;0.0;0.0;0.18836799263954163;-0.1395680010318756;1.1604639291763306;0.0;0.0;0.0
661;0.0;0.0;0.0;0.2117919921875;-0.1668960005044937;1.165343999862671;0.0;0.0;0.0
663;0.0;0.0;0.0;0.19617599248886108;-0.13176000118255615;1.1370400190353394;0.0;0.0;0.0
665;0.08369199931621552;-0.02000799961388111;0.98990797996521;0.17665599286556244;-0.14347200095653534;1.148751974105835;0.07000000029802322;0.2800000011920929;0.49000000953674316
668;0.0;0.0;0.0;0.20398399233818054;-0.14347200095653534;1.148751974105835;0.0;0.0;0.0
670;0.0;0.0;0.0;0.2117919921875;-0.17080000042915344;1.1370400190353394;0.0;0.0;0.0
672;0.0;0.0;0.0;0.21569599211215973;-0.1668960005044937;1.156559944152832;0.0;0.0;0.0
674;0.08393599838018417;-0.020495999604463577;0.9889319539070129;0.2000799924135208;-0.14347200095653534;1.1448479890823364;0.07000000029802322;0.2800000011920929;0.49000000953674316
676;0.0;0.0;0.0;0.19617599248886108;-0.16299200057983398;1.140944004058838;0.0;0.0;0.0
678;0.0;0.0;0.0;0.18836799263954163;-0.16299200057983398;1.156559944152832;0.0;0.0;0.0
680;0.0;0.0;0.0;0.2000799924135208;-0.15518400073051453;1.1370400190353394;0.0;0.0;0.0
682;0.08417999744415283;-0.020495999604463577;0.9894199967384338;0.19617599248886108;-0.14737600088119507;1.1282559633255005;0.07000000029802322;0.2800000011920929;0.49000000953674316
684;0.0;0.0;0.0;0.20398399233818054;-0.16299200057983398;1.1692479848861694;0.0;0.0;0.0
687;0.0;0.0;0.0;0.19227199256420135;-0.16299200057983398;1.1448479890823364;0.0;0.0;0.0
689;0.0;0.0;0.0;0.20788799226284027;-0.16299200057983398;1.1360639333724976;0.0;0.0;0.0
691;0.08588799834251404;-0.020495999604463577;0.9894199967384338;0.1727519929409027;-0.15518400073051453;1.1282559633255005;0.14000000059604645;0.2800000011920929;0.5600000023841858
693;0.0;0.0;0.0;0.18836799263954163;-0.1395680010318756;1.156559944152832;0.0;0.0;0.0
695;0.0;0.0;0.0;0.2000799924135208;-0.1395680010318756;1.165343999862671;0.0;0.0;0.0
697;0.0;0.0;0.0;0.18836799263954163;-0.17080000042915344;1.132159948348999;0.0;0.0;0.0
699;0.08540000021457672;-0.020495999604463577;0.98990797996521;0.20398399233818054;-0.1786080002784729;1.1448479890823364;0.14000000059604645;0.2800000011920929;0.49000000953674316
701;0.0;0.0;0.0;0.19227199256420135;-0.17080000042915344;1.1448479890823364;0.0;0.0;0.0
704;0.0;0.0;0.0;0.16884799301624298;-0.17080000042915344;1.1282559633255005;0.0;0.0;0.0
706;0.0;0.0;0.0;0.19617599248886108;-0.1512800008058548;1.1448479890823364;0.0;0.0;0.0
708;0.08588799834251404;-0.019763998687267303;0.9889319539070129;0.20398399233818054;-0.13176000118255615;1.1370400190353394;0.07000000029802322;0.2800000011920929;0.5600000023841858
710;0.0;0.0;0.0;0.21959999203681946;-0.15518400073051453;1.156559944152832;0.0;0.0;0.0
712;0.0;0.0;0.0;0.20788799226284027;-0.13566400110721588;1.140944004058838;0.0;0.0;0.0
714;0.0;0.0;0.0;0.19617599248886108;-0.1668960005044937;1.1282559633255005;0.0;0.0;0.0
716;0.08637599647045135;-0.019519999623298645;0.9896639585494995;0.22740799188613892;-0.14347200095653534;1.1165440082550049;0.14000000059604645;0.21000000834465027;0.49000000953674316
719;0.0;0.0;0.0;0.2000799924135208;-0.14737600088119507;1.148751974105835;0.0;0.0;0.0
721;0.0;0.0;0.0;0.19617599248886108;-0.1512800008058548;1.132159948348999;0.0;0.0;0.0
723;0.0;0.0;0.0;0.19227199256420135;-0.1786080002784729;1.1526559591293335;0.0;0.0;0.0
725;0.08564399927854538;-0.019519999623298645;0.990884006023407;0.2117919921875;-0.17470400035381317;1.140944004058838;0.07000000029802322;0.3499999940395355;0.49000000953674316
727;0.0;0.0;0.0;0.1844639927148819;-0.14737600088119507;1.156559944152832;0.0;0.0;0.0
729;0.0;0.0;0.0;0.18836799263954163;-0.15518400073051453;1.1448479890823364;0.0;0.0;0.0
731;0.0;0.0;0.0;0.2391199916601181;-0.15518400073051453;1.1370400190353394;0.0;0.0;0.0
733;0.0849120020866394;-0.019519999623298645;0.9896639585494995;0.19227199256420135;-0.13566400110721588;1.140944004058838;0.14000000059604645;0.2800000011920929;0.49000000953674316
736;0.0;0.0;0.0;0.20398399233818054;-0.1395680010318756;1.140944004058838;0.0;0.0;0.0
738;0.0;0.0;0.0;0.1844639927148819;-0.16299200057983398;1.140944004058838;0.0;0.0;0.0
740;0.0;0.0;0.0;0.18836799263954163;-0.13566400110721588;1.1526559591293335;0.0;0.0;0.0
742;0.08564399927854538;-0.02000799961388111;0.98990797996521;0.2000799924135208;-0.15518400073051453;1.1448479890823364;0.07000000029802322;0.21000000834465027;0.49000000953674316
744;0.0;0.0;0.0;0.2000799924135208;-0.15518400073051453;1.148751974105835;0.0;0.0;0.0
746;0.0;0.0;0.0;0.20398399233818054;-0.1668960005044937;1.148751974105835;0.0;0.0;0.0
748;0.0;0.0;0.0;0.19617599248886108;-0.15908800065517426;1.1282559633255005;0.0;0.0;0.0
750;0.0849120020866394;-0.02025200054049492;0.9884439706802368;0.18836799263954163;-0.14737600088119507;1.1370400190353394;0.07000000029802322;0.2800000011920929;0.49000000953674316
753;0.0;0.0;0.0;0.20398399233818054;-0.15518400073051453;1.1370400190353394;0.0;0.0;0.0
755;0.0;0.0;0.0;0.19617599248886108;-0.13566400110721588;1.156559944152832;0.0;0.0;0.0
757;0.0;0.0;0.0;0.18836799263954163;-0.15518400073051453;1.140944004058838;0.0;0.0;0.0
759;0.08393599838018417;-0.020739998668432236;0.9889319539070129;0.19617599248886108;-0.14737600088119507;1.140944004058838;0.07000000029802322;0.3499999940395355;0.49000000953674316
761;0.0;0.0;0.0;0.19617599248886108;-0.1512800008058548;1.132159948348999;0.0;0.0;0.0
763;0.0;0.0;0.0;0.18836799263954163;-0.14737600088119507;1.1204479932785034;0.0;0.0;0.0
765;0.0;0.0;0.0;0.17665599286556244;-0.14737600088119507;1.1360639333724976;0.0;0.0;0.0
767;0.08417999744415283;-0.02122800052165985;0.98990797996521;0.20398399233818054;-0.15518400073051453;1.140944004058838;0.14000000059604645;0.21000000834465027;0.49000000953674316
770;0.0;0.0;0.0;0.2117919921875;-0.14737600088119507;1.148751974105835;0.0;0.0;0.0
772;0.0;0.0;0.0;0.1727519929409027;-0.16299200057983398;1.156559944152832;0.0;0.0;0.0
774;0.0;0.0;0.0;0.21569599211215973;-0.15518400073051453;1.1165440082550049;0.0;0.0;0.0
776;0.08442399650812149;-0.020495999604463577;0.98990797996521;0.18055999279022217;-0.16299200057983398;1.156559944152832;0.14000000059604645;0.2800000011920929;0.5600000023841858
778;0.0;0.0;0.0;0.19227199256420135;-0.1395680010318756;1.156559944152832;0.0;0.0;0.0
780;0.0;0.0;0.0;0.18055999279022217;-0.1395680010318756;1.1448479890823364;0.0;0.0;0.0
782;0.0;0.0;0.0;0.19227199256420135;-0.14347200095653534;1.124351978302002;0.0;0.0;0.0
784;0.08344800025224686;-0.020495999604463577;0.9913719892501831;0.20788799226284027;-0.15908800065517426;1.140944004058838;0.07000000029802322;0.3499999940395355;0.5600000023841858
787;0.0;0.0;0.0;0.19227199256420135;-0.1395680010318756;1.148751974105835;0.0;0.0;0.0
789;0.0;0.0;0.0;0.19227199256420135;-0.15518400073051453;1.1526559591293335;0.0;0.0;0.0
791;0.0;0.0;0.0;0.1727519929409027;-0.1512800008058548;1.1282559633255005;0.0;0.0;0.0
793;0.08369199931621552;-0.02000799961388111;0.98990797996521;0.19617599248886108;-0.16299200057983398;1.132159948348999;0.14000000059604645;0.2800000011920929;0.49000000953674316
795;0.0;0.0;0.0;0.19617599248886108;-0.1668960005044937;1.140944004058838;0.0;0.0;0.0
797;0.0;0.0;0.0;0.16884799301624298;-0.1395680010318756;1.165343999862671;0.0;0.0;0.0
799;0.0;0.0;0.0;0.20788799226284027;-0.1512800008058548;1.148751974105835;0.0;0.0;0.0
801;0.08515600115060806;-0.019763998687267303;0.9891759753227234;0.20788799226284027;-0.1512800008058548;1.148751974105835;0.07000000029802322;0.2800000011920929;0.49000000953674316
804;0.0;0.0;0.0;0.20398399233818054;-0.14737600088119507;1.1448479890823364;0.0;0.0;0.0
806;0.0;0.0;0.0;0.20788799226284027;-0.14347200095653534;1.140944004058838;0.0;0.0;0.0
808;0.0;0.0;0.0;0.20398399233818054;-0.1512800008058548;1.1448479890823364;0.0;0.0;0.0
810;0.0849120020866394;-0.019763998687267303;0.9891759753227234;0.19617599248886108;-0.15908800065517426;1.1448479890823364;0.14000000059604645;0.2800000011920929;0.49000000953674316
812;0.0;0.0;0.0;0.18836799263954163;-0.15518400073051453;1.148751974105835;0.0;0.0;0.0
814;0.0;0.0;0.0;0.2000799924135208;-0.1786080002784729;1.1204479932785034;0.0;0.0;0.0
816;0.0;0.0;0.0;0.2117919921875;-0.1668960005044937;1.132159948348999;0.0;0.0;0.0
818;0.08393599838018417;-0.020495999604463577;0.9901520013809204;0.19617599248886108;-0.14737600088119507;1.156559944152832;0.07000000029802322;0.2800000011920929;0.49000000953674316
821;0.0;0.0;0.0;0.18836799263954163;-0.14737600088119507;1.1370400190353394;0.0;0.0;0.0
823;0.0;0.0;0.0;0.2000799924135208;-0.14737600088119507;1.132159948348999;0.0;0.0;0.0
825;0.0;0.0;0.0;0.18836799263954163;-0.16299200057983398;1.1448479890823364;0.0;0.0;0.0
827;0.08540000021457672;-0.020983999595046043;0.9901520013809204;0.19227199256420135;-0.17080000042915344;1.140944004058838;0.07000000029802322;0.2800000011920929;0.49000000953674316
829;0.0;0.0;0.0;0.20788799226284027;-0.1395680010318756;1.1370400190353394;0.0;0.0;0.0
831;0.0;0.0;0.0;0.2000799924135208;-0.1512800008058548;1.140944004058838;0.0;0.0;0.0
833;0.0;0.0;0.0;0.18836799263954163;-0.17080000042915344;1.1448479890823364;0.0;0.0;0.0
835;0.08540000021457672;-0.020739998668432236;0.9901520013809204;0.19227199256420135;-0.14737600088119507;1.1604639291763306;0.14000000059604645;0.3499999940395355;0.5600000023841858
838;0.0;0.0;0.0;0.21959999203681946;-0.15908800065517426;1.1370400190353394;0.0;0.0;0.0
840;0.0;0.0;0.0;0.1571359932422638;-0.17470400035381317;1.1370400190353394;0.0;0.0;0.0
842;0.0;0.0;0.0;0.20788799226284027;-0.1668960005044937;1.1370400190353394;0.0;0.0;0.0
844;0.0849120020866394;-0.020739998668432236;0.9903959631919861;0.19617599248886108;-0.15518400073051453;1.1360639333724976;0.14000000059604645;0.21000000834465027;0.49000000953674316
846;0.0;0.0;0.0;0.18836799263954163;-0.17470400035381317;1.1370400190353394;0.0;0.0;0.0
848;0.0;0.0;0.0;0.16494399309158325;-0.17080000042915344;1.165343999862671;0.0;0.0;0.0
850;0.0;0.0;0.0;0.18055999279022217;-0.1395680010318756;1.124351978302002;0.0;0.0;0.0
852;0.08515600115060806;-0.02025200054049492;0.9891759753227234;0.19227199256420135;-0.1395680010318756;1.1526559591293335;0.21000000834465027;0.21000000834465027;0.49000000953674316
855;0.0;0.0;0.0;0.1727519929409027;-0.1395680010318756;1.1448479890823364;0.0;0.0;0.0
857;0.0;0.0;0.0;0.19227199256420135;-0.1668960005044937;1.1448479890823364;0.0;0.0;0.0
859;0.0;0.0;0.0;0.2000799924135208;-0.14737600088119507;1.140944004058838;0.0;0.0;0.0
861;0.08564399927854538;-0.02000799961388111;0.9886879920959473;0.18836799263954163;-0.13176000118255615;1.1282559633255005;0.14000000059604645;0.2800000011920929;0.49000000953674316
863;0.0;0.0;0.0;0.2000799924135208;-0.14737600088119507;1.140944004058838;0.0;0.0;0.0
865;0.0;0.0;0.0;0.2000799924135208;-0.1395680010318756;1.156559944152832;0.0;0.0;0.0
867;0.0;0.0;0.0;0.1844639927148819;-0.15518400073051453;1.148751974105835;0.0;0.0;0.0
869;0.08515600115060806;-0.02025200054049492;0.9901520013809204;0.18055999279022217;-0.1395680010318756;1.1448479890823364;0.14000000059604645;0.3499999940395355;0.49000000953674316
872;0.0;0.0;0.0;0.20398399233818054;-0.1395680010318756;1.1204479932785034;0.0;0.0;0.0
874;0.0;0.0;0.0;0.1815359890460968;-0.15518400073051453;1.1370400190353394;0.0;0.0;0.0
876;0.0;0.0;0.0;0.19617599248886108;-0.17470400035381317;1.148751974105835;0.0;0.0;0.0
878;0.0849120020866394;-0.02000799961388111;0.9911279678344727;0.19227199256420135;-0.14347200095653534;1.1370400190353394;0.14000000059604645;0.2800000011920929;0.49000000953674316
880;0.0;0.0;0.0;0.18836799263954163;-0.1395680010318756;1.1614400148391724;0.0;0.0;0.0
882;0.0;0.0;0.0;0.1727519929409027;-0.14347200095653534;1.165343999862671;0.0;0.0;0.0
884;0.0;0.0;0.0;0.20788799226284027;-0.15908800065517426;1.148751974105835;0.0;0.0;0.0
886;0.0849120020866394;-0.020495999604463577;0.9903959631919861;0.2000799924135208;-0.15518400073051453;1.1370400190353394;0.21000000834465027;0.21000000834465027;0.5600000023841858
889;0.0;0.0;0.0;0.18836799263954163;-0.13566400110721588;1.148751974105835;0.0;0.0;0.0
891;0.0;0.0;0.0;0.2000799924135208;-0.18251200020313263;1.1692479848861694;0.0;0.0;0.0
893;0.0;0.0;0.0;0.17665599286556244;-0.14737600088119507;1.1370400190353394;0.0;0.0;0.0
895;0.0849120020866394;-0.02000799961388111;0.9889319539070129;0.19617599248886108;-0.18251200020313263;1.156559944152832;0.14000000059604645;0.2800000011920929;0.5600000023841858
897;0.0;0.0;0.0;0.19227199256420135;-0.13566400110721588;1.1526559591293335;0.0;0.0;0.0
899;0.0;0.0;0.0;0.20398399233818054;-0.1668960005044937;1.148751974105835;0.0;0.0;0.0
901;0.0;0.0;0.0;0.20398399233818054;-0.16299200057983398;1.140944004058838;0.0;0.0;0.0
903;0.08466799557209015;-0.02025200054049492;0.98990797996521;0.19617599248886108;-0.15908800065517426;1.148751974105835;0.14000000059604645;0.3499999940395355;0.49000000953674316
906;0.0;0.0;0.0;0.23131199181079865;-0.1786080002784729;1.1448479890823364;0.0;0.0;0.0
908;0.0;0.0;0.0;0.20398399233818054;-0.17080000042915344;1.132159948348999;0.0;0.0;0.0
910;0.0;0.0;0.0;0.18836799263954163;-0.1668960005044937;1.165343999862671;0.0;0.0;0.0
912;0.08466799557209015;-0.02025200054049492;0.9896639585494995;0.18836799263954163;-0.15908800065517426;1.132159948348999;0.14000000059604645;0.21000000834465027;0.5556250214576721
914;0.0;0.0;0.0;0.19227199256420135;-0.16299200057983398;1.1370400190353394;0.0;0.0;0.0
916;0.0;0.0;0.0;0.20788799226284027;-0.17080000042915344;1.124351978302002;0.0;0.0;0.0
918;0.0;0.0;0.0;0.20398399233818054;-0.15518400073051453;1.140944004058838;0.0;0.0;0.0
920;0.0849120020866394;-0.019763998687267303;0.9894199967384338;0.20398399233818054;-0.17080000042915344;1.1165440082550049;0.14000000059604645;0.2800000011920929;0.4856249988079071
923;0.0;0.0;0.0;0.19617599248886108;-0.19422399997711182;1.156559944152832;0.0;0.0;0.0
925;0.0;0.0;0.0;0.2235039919614792;-0.16299200057983398;1.1370400190353394;0.0;0.0;0.0
927;0.0;0.0;0.0;0.18836799263954163;-0.15908800065517426;1.1526559591293335;0.0;0.0;0.0
929;0.08588799834251404;-0.02000799961388111;0.9891759753227234;0.19227199256420135;-0.14347200095653534;1.140944004058838;0.07000000029802322;0.27562499046325684;0.48125001788139343
931;0.0;0.0;0.0;0.20398399233818054;-0.13566400110721588;1.156559944152832;0.0;0.0;0.0
933;0.0;0.0;0.0;0.18055999279022217;-0.18251200020313263;1.148751974105835;0.0;0.0;0.0
935;0.0;0.0;0.0;0.1727519929409027;-0.1395680010318756;1.1448479890823364;0.0;0.0;0.0
937;0.08442399650812149;-0.02000799961388111;0.990884006023407;0.20398399233818054;-0.16299200057983398;1.148751974105835;0.07000000029802322;0.34562498331069946;0.48125001788139343
940;0.0;0.0;0.0;0.1727519929409027;-0.15518400073051453;1.1448479890823364;0.0;0.0;0.0
942;0.0;0.0;0.0;0.1844639927148819;-0.1668960005044937;1.1448479890823364;0.0;0.0;0.0
944;0.0;0.0;0.0;0.18836799263954163;-0.17080000042915344;1.140944004058838;0.0;0.0;0.0
946;0.08442399650812149;-0.02122800052165985;0.9901520013809204;0.19617599248886108;-0.15908800065517426;1.124351978302002;0.07000000029802322;0.27562499046325684;0.4768750071525574
948;0.0;0.0;0.0;0.20788799226284027;-0.14347200095653534;1.1204479932785034;0.0;0.0;0.0
950;0.0;0.0;0.0;0.21569599211215973;-0.14347200095653534;1.1360639333724976;0.0;0.0;0.0
952;0.0;0.0;0.0;0.19227199256420135;-0.19422399997711182;1.140944004058838;0.0;0.0;0.0
954;0.08442399650812149;-0.020495999604463577;0.9894199967384338;0.19617599248886108;-0.1512800008058548;1.1448479890823364;0.07000000029802322;0.27125000953674316;0.4768750071525574
957;0.0;0.0;0.0;0.16884799301624298;-0.15908800065517426;1.1526559591293335;0.0;0.0;0.0
959;0.0;0.0;0.0;0.17665599286556244;-0.15518400073051453;1.165343999862671;0.0;0.0;0.0
961;0.0;0.0;0.0;0.17665599286556244;-0.13176000118255615;1.148751974105835;0.0;0.0;0.0
963;0.0849120020866394;-0.02000799961388111;0.9894199967384338;0.19227199256420135;-0.15518400073051453;1.1360639333724976;0.07000000029802322;0.27125000953674316;0.4724999964237213
965;0.0;0.0;0.0;0.1571359932422638;-0.14737600088119507;1.148751974105835;0.0;0.0;0.0
967;0.0;0.0;0.0;0.19617599248886108;-0.16299200057983398;1.173151969909668;0.0;0.0;0.0
969;0.0;0.0;0.0;0.1844639927148819;-0.1668960005044937;1.140944004058838;0.0;0.0;0.0
971;0.08540000021457672;-0.02025200054049492;0.9884439706802368;0.21959999203681946;-0.15518400073051453;1.1526559591293335;0.07000000029802322;0.27125000953674316;0.46812501549720764
974;0.0;0.0;0.0;0.2000799924135208;-0.17470400035381317;1.1526559591293335;0.0;0.0;0.0
976;0.0;0.0;0.0;0.18055999279022217;-0.15518400073051453;1.1204479932785034;0.0;0.0;0.0
978;0.0;0.0;0.0;0.1844639927148819;-0.14347200095653534;1.1448479890823364;0.0;0.0;0.0
980;0.08564399927854538;-0.020495999604463577;0.9901520013809204;0.1844639927148819;-0.1512800008058548;1.1448479890823364;0.06562499701976776;0.33687499165534973;0.46812501549720764
982;0.0;0.0;0.0;0.19227199256420135;-0.15908800065517426;1.1370400190353394;0.0;0.0;0.0
984;0.0;0.0;0.0;0.20398399233818054;-0.16299200057983398;1.1360639333724976;0.0;0.0;0.0
986;0.0;0.0;0.0;0.19617599248886108;-0.14737600088119507;1.1448479890823364;0.0;0.0;0.0
989;0.0849120020866394;-0.02025200054049492;0.990884006023407;0.1727519929409027;-0.1668960005044937;1.156559944152832;0.06562499701976776;0.33687499165534973;0.4637500047683716
991;0.0;0.0;0.0;0.1844639927148819;-0.15908800065517426;1.148751974105835;0.0;0.0;0.0
993;0.0;0.0;0.0;0.2000799924135208;-0.19422399997711182;1.1448479890823364;0.0;0.0;0.0
995;0.0;0.0;0.0;0.1844639927148819;-0.1395680010318756;1.148751974105835;0.0;0.0;0.0
997;0.08442399650812149;-0.019763998687267303;0.9894199967384338;0.17665599286556244;-0.14737600088119507;1.1448479890823364;0.13562500476837158;0.19687500596046448;0.4637500047683716
999;0.0;0.0;0.0;0.21569599211215973;-0.17080000042915344;1.1282559633255005;0.0;0.0;0.0
1001;0.0;0.0;0.0;0.1727519929409027;-0.1668960005044937;1.140944004058838;0.0;0.0;0.0
1003;0.0;0.0;0.0;0.19227199256420135;-0.1512800008058548;1.1526559591293335;0.0;0.0;0.0
1006;0.08564399927854538;-0.02000799961388111;0.9886879920959473;0.18055999279022217;-0.14737600088119507;1.1604639291763306;0.13562500476837158;0.19687500596046448;0.3893750309944153
1008;0.0;0.0;0.0;0.19227199256420135;-0.14347200095653534;1.1370400190353394;0.0;0.0;0.0
1010;0.0;0.0;0.0;0.20398399233818054;-0.14347200095653534;1.132159948348999;0.0;0.0;0.0
1012;0.0;0.0;0.0;0.18055999279022217;-0.13566400110721588;1.1448479890823364;0.0;0.0;0.0
1014;0.08515600115060806;-0.02025200054049492;0.9886879920959473;0.17665599286556244;-0.14347200095653534;1.148751974105835;0.06562499701976776;0.33249998092651367;0.4593750238418579
1016;0.0;0.0;0.0;0.20398399233818054;-0.15518400073051453;1.173151969909668;0.0;0.0;0.0
1018;0.0;0.0;0.0;0.17665599286556244;-0.15518400073051453;1.1282559633255005;0.0;0.0;0.0
1020;0.0;0.0;0.0;0.2000799924135208;-0.15908800065517426;1.1604639291763306;0.0;0.0;0.0
1023;0.08417999744415283;-0.020739998668432236;0.9896639585494995;0.1844639927148819;-0.1786080002784729;1.1448479890823364;0.06562499701976776;0.33249998092651367;0.45500001311302185
1025;0.0;0.0;0.0;0.19617599248886108;-0.15908800065517426;1.1204479932785034;0.0;0.0;0.0
1027;0.0;0.0;0.0;0.1844639927148819;-0.12785600125789642;1.1448479890823364;0.0;0.0;0.0
1029;0.0;0.0;0.0;0.20398399233818054;-0.16299200057983398;1.148751974105835;0.0;0.0;0.0
1031;0.08417999744415283;-0.02025200054049492;0.9911279678344727;0.19227199256420135;-0.12785600125789642;1.140944004058838;0.13562500476837158;0.26249998807907104;0.45500001311302185
1033;0.0;0.0;0.0;0.19227199256420135;-0.15518400073051453;1.1448479890823364;0.0;0.0;0.0
1035;0.0;0.0;0.0;0.21569599211215973;-0.1512800008058548;1.1526559591293335;0.0;0.0;0.0
1037;0.0;0.0;0.0;0.18055999279022217;-0.15518400073051453;1.1282559633255005;0.0;0.0;0.0
1040;0.08417999744415283;-0.020495999604463577;0.9901520013809204;0.2000799924135208;-0.14737600088119507;1.124351978302002;0.13562500476837158;0.18812501430511475;0.4506250023841858
1042;0.0;0.0;0.0;0.20788799226284027;-0.16299200057983398;1.1282559633255005;0.0;0.0;0.0
1044;0.0;0.0;0.0;0.21569599211215973;-0.15518400073051453;1.1526559591293335;0.0;0.0;0.0
1046;0.0;0.0;0.0;0.20398399233818054;-0.14737600088119507;1.1448479890823364;0.0;0.0;0.0
1048;0.0849120020866394;-0.019763998687267303;0.98990797996521;0.18055999279022217;-0.16299200057983398;1.1282559633255005;0.06562499701976776;0.2581250071525574;0.4506250023841858
1050;0.0;0.0;0.0;0.18836799263954163;-0.15518400073051453;1.1526559591293335;0.0;0.0;0.0
1052;0.0;0.0;0.0;0.20398399233818054;-0.1395680010318756;1.140944004058838;0.0;0.0;0.0
1054;0.0;0.0;0.0;0.2000799924135208;-0.15908800065517426;1.132159948348999;0.0;0.0;0.0
1057;0.08442399650812149;-0.02025200054049492;0.9906399846076965;0.18836799263954163;-0.15518400073051453;1.1370400190353394;0.06562499701976776;0.328125;0.3762500286102295
1059;0.0;0.0;0.0;0.21959999203681946;-0.13566400110721588;1.1360639333724976;0.0;0.0;0.0
1061;0.0;0.0;0.0;0.18055999279022217;-0.1512800008058548;1.1448479890823364;0.0;0.0;0.0
1063;0.0;0.0;0.0;0.1844639927148819;-0.14347200095653534;1.1360639333724976;0.0;0.0;0.0
1065;0.08393599838018417;-0.02122800052165985;0.9903959631919861;0.1844639927148819;-0.17080000042915344;1.124351978302002;0.13124999403953552;0.2537499964237213;0.4462500214576721
1067;0.0;0.0;0.0;0.19617599248886108;-0.17080000042915344;1.140944004058838;0.0;0.0;0.0
1069;0.0;0.0;0.0;0.19617599248886108;-0.1512800008058548;1.1282559633255005;0.0;0.0;0.0
1071;0.0;0.0;0.0;0.19617599248886108;-0.15908800065517426;1.1282559633255005;0.0;0.0;0.0
1074;0.08515600115060806;-0.020983999595046043;0.9894199967384338;0.1844639927148819;-0.17470400035381317;1.148751974105835;0.061250001192092896;0.1837500035762787;0.44187501072883606
1076;0.0;0.0;0.0;0.20788799226284027;-0.15518400073051453;1.1448479890823364;0.0;0.0;0.0
1078;0.0;0.0;0.0;0.1844639927148819;-0.16299200057983398;1.165343999862671;0.0;0.0;0.0
1080;0.0;0.0;0.0;0.1844639927148819;-0.16299200057983398;1.140944004058838;0.0;0.0;0.0
1082;0.08540000021457672;-0.02025200054049492;0.98990797996521;0.19227199256420135;-0.1668960005044937;1.132159948348999;0.13124999403953552;0.32374998927116394;0.44187501072883606
1084;0.0;0.0;0.0;0.19617599248886108;-0.1512800008058548;1.140944004058838;0.0;0.0;0.0
1086;0.0;0.0;0.0;0.21569599211215973;-0.1786080002784729;1.132159948348999;0.0;0.0;0.0
1088;0.0;0.0;0.0;0.18055999279022217;-0.15908800065517426;1.148751974105835;0.0;0.0;0.0
1091;0.08466799557209015;-0.02025200054049492;0.9896639585494995;0.21569599211215973;-0.1668960005044937;1.1604639291763306;0.061250001192092896;0.3193749785423279;0.4375
1093;0.0;0.0;0.0;0.18836799263954163;-0.15908800065517426;1.132159948348999;0.0;0.0;0.0
1095;0.0;0.0;0.0;0.19617599248886108;-0.16299200057983398;1.148751974105835;0.0;0.0;0.0
1097;0.0;0.0;0.0;0.19227199256420135;-0.14737600088119507;1.132159948348999;0.0;0.0;0.0
1099;0.0849120020866394;-0.02000799961388111;0.9911279678344727;0.21569599211215973;-0.1668960005044937;1.140944004058838;0.061250001192092896;0.24937500059604645;0.4375
1101;0.0;0.0;0.0;0.18055999279022217;-0.1395680010318756;1.1448479890823364;0.0;0.0;0.0
1103;0.0;0.0;0.0;0.20398399233818054;-0.16299200057983398;1.124351978302002;0.0;0.0;0.0
1105;0.0;0.0;0.0;0.1727519929409027;-0.15518400073051453;1.148751974105835;0.0;0.0;0.0
1108;0.08515600115060806;-0.020983999595046043;0.98990797996521;0.1844639927148819;-0.12004800140857697;1.148751974105835;0.061250001192092896;0.24937500059604645;0.43312501907348633
1110;0.0;0.0;0.0;0.19227199256420135;-0.17080000042915344;1.1448479890823364;0.0;0.0;0.0
1112;0.0;0.0;0.0;0.18836799263954163;-0.14347200095653534;1.165343999862671;0.0;0.0;0.0
1114;0.0;0.0;0.0;0.20398399233818054;-0.15908800065517426;1.1282559633255005;0.0;0.0;0.0
1116;0.08564399927854538;-0.02025200054049492;0.9891759753227234;0.1727519929409027;-0.15518400073051453;1.1282559633255005;0.061250001192092896;0.24937500059604645;0.43312501907348633
1118;0.0;0.0;0.0;0.21569599211215973;-0.1668960005044937;1.148751974105835;0.0;0.0;0.0
1120;0.0;0.0;0.0;0.20788799226284027;-0.14737600088119507;1.124351978302002;0.0;0.0;0.0
1122;0.0;0.0;0.0;0.20398399233818054;-0.15518400073051453;1.156559944152832;0.0;0.0;0.0
1125;0.08515600115060806;-0.02000799961388111;0.9889319539070129;0.20788799226284027;-0.15908800065517426;1.1126400232315063;0.061250001192092896;0.24500000476837158;0.35875001549720764
1127;0.0;0.0;0.0;0.21569599211215973;-0.16299200057983398;1.140944004058838;0.0;0.0;0.0
1129;0.0;0.0;0.0;0.19227199256420135;-0.14737600088119507;1.1526559591293335;0.0;0.0;0.0
1131;0.0;0.0;0.0;0.2000799924135208;-0.14347200095653534;1.1204479932785034;0.0;0.0;0.0
1133;0.08417999744415283;-0.02000799961388111;0.9894199967384338;0.19617599248886108;-0.19812799990177155;1.1526559591293335;0.13124999403953552;0.24500000476837158;0.4987500011920929
1135;0.0;0.0;0.0;0.17665599286556244;-0.1668960005044937;1.132159948348999;0.0;0.0;0.0
1137;0.0;0.0;0.0;0.19227199256420135;-0.1512800008058548;1.1370400190353394;0.0;0.0;0.0
1139;0.0;0.0;0.0;0.2000799924135208;-0.1395680010318756;1.1526559591293335;0.0;0.0;0.0
1142;0.08417999744415283;-0.019763998687267303;0.9901520013809204;0.1844639927148819;-0.17080000042915344;1.1448479890823364;0.061250001192092896;0.24500000476837158;0.4243749976158142
1144;0.0;0.0;0.0;0.19617599248886108;-0.15908800065517426;1.1370400190353394;0.0;0.0;0.0
1146;0.0;0.0;0.0;0.20398399233818054;-0.15908800065517426;1.132159948348999;0.0;0.0;0.0
1148;0.0;0.0;0.0;0.2117919921875;-0.1668960005044937;1.1165440082550049;0.0;0.0;0.0
1150;0.08540000021457672;-0.019763998687267303;0.9891759753227234;0.1844639927148819;-0.1512800008058548;1.140944004058838;0.12687499821186066;0.17500001192092896;0.4243749976158142
1152;0.0;0.0;0.0;0.20788799226284027;-0.15908800065517426;1.1526559591293335;0.0;0.0;0.0
1154;0.0;0.0;0.0;0.19617599248886108;-0.14737600088119507;1.1360639333724976;0.0;0.0;0.0
1157;0.0;0.0;0.0;0.20788799226284027;-0.15518400073051453;1.1526559591293335;0.0;0.0;0.0
1159;0.08442399650812149;-0.019763998687267303;0.9891759753227234;0.1844639927148819;-0.16299200057983398;1.1526559591293335;0.12687499821186066;0.24062499403953552;0.3543750047683716
1161;0.0;0.0;0.0;0.17665599286556244;-0.13566400110721588;1.1282559633255005;0.0;0.0;0.0
1163;0.0;0.0;0.0;0.2000799924135208;-0.13176000118255615;1.132159948348999;0.0;0.0;0.0
1165;0.0;0.0;0.0;0.17665599286556244;-0.1668960005044937;1.140944004058838;0.0;0.0;0.0
1167;0.08393599838018417;-0.020739998668432236;0.9901520013809204;0.2000799924135208;-0.14737600088119507;1.132159948348999;0.12687499821186066;0.31062498688697815;0.42000001668930054
1169;0.0;0.0;0.0;0.19617599248886108;-0.17470400035381317;1.148751974105835;0.0;0.0;0.0
1171;0.0;0.0;0.0;0.21569599211215973;-0.1512800008058548;1.1526559591293335;0.0;0.0;0.0
1174;0.0;0.0;0.0;0.18055999279022217;-0.14737600088119507;1.1282559633255005;0.0;0.0;0.0
1176;0.08442399650812149;-0.02025200054049492;0.98990797996521;0.19617599248886108;-0.1512800008058548;1.1360639333724976;-0.013125000521540642;0.24062499403953552;0.42000001668930054
1178;0.0;0.0;0.0;0.18836799263954163;-0.16299200057983398;1.140944004058838;0.0;0.0;0.0
1180;0.0;0.0;0.0;0.18055999279022217;-0.1512800008058548;1.1692479848861694;0.0;0.0;0.0
1182;0.0;0.0;0.0;0.20788799226284027;-0.16299200057983398;1.1165440082550049;0.0;0.0;0.0
1184;0.08466799557209015;-0.02000799961388111;0.9894199967384338;0.20398399233818054;-0.1395680010318756;1.1282559633255005;0.05687499791383743;0.23624999821186066;0.4156250059604645
1186;0.0;0.0;0.0;0.21569599211215973;-0.1668960005044937;1.1448479890823364;0.0;0.0;0.0
1188;0.0;0.0;0.0;0.19617599248886108;-0.1668960005044937;1.148751974105835;0.0;0.0;0.0
1191;0.0;0.0;0.0;0.16103999316692352;-0.1668960005044937;1.1126400232315063;0.0;0.0;0.0
1193;0.08515600115060806;-0.020739998668432236;0.9886879920959473;0.19227199256420135;-0.12785600125789642;1.1282559633255005;0.05687499791383743;0.16625000536441803;0.4156250059604645
1195;0.0;0.0;0.0;0.2117919921875;-0.16299200057983398;1.1204479932785034;0.0;0.0;0.0
1197;0.0;0.0;0.0;0.20398399233818054;-0.14347200095653534;1.1448479890823364;0.0;0.0;0.0
1199;0.0;0.0;0.0;0.19227199256420135;-0.1512800008058548;1.1282559633255005;0.0;0.0;0.0
1201;0.08515600115060806;-0.020495999604463577;0.9896639585494995;0.20788799226284027;-0.1668960005044937;1.156559944152832;0.05687499791383743;0.23624999821186066;0.4112499952316284
1203;0.0;0.0;0.0;0.1844639927148819;-0.1512800008058548;1.148751974105835;0.0;0.0;0.0
1205;0.0;0.0;0.0;0.19617599248886108;-0.14347200095653534;1.1370400190353394;0.0;0.0;0.0
1208;0.0;0.0;0.0;0.18836799263954163;-0.15518400073051453;1.1526559591293335;0.0;0.0;0.0
1210;0.08540000021457672;-0.020739998668432236;0.9891759753227234;0.2000799924135208;-0.15908800065517426;1.132159948348999;0.12687499821186066;0.23624999821186066;0.4112499952316284
1212;0.0;0.0;0.0;0.19617599248886108;-0.1903200000524521;1.156559944152832;0.0;0.0;0.0
1214;0.0;0.0;0.0;0.17665599286556244;-0.16299200057983398;1.1165440082550049;0.0;0.0;0.0
1216;0.0;0.0;0.0;0.1844639927148819;-0.15908800065517426;1.1282559633255005;0.0;0.0;0.0
1218;0.08442399650812149;-0.020495999604463577;0.9901520013809204;0.18055999279022217;-0.17080000042915344;1.1604639291763306;0.12687499821186066;0.3018749952316284;0.40687501430511475
1220;0.0;0.0;0.0;0.1844639927148819;-0.15518400073051453;1.132159948348999;0.0;0.0;0.0
1222;0.0;0.0;0.0;0.17665599286556244;-0.1395680010318756;1.148751974105835;0.0;0.0;0.0
1225;0.0;0.0;0.0;0.17665599286556244;-0.16299200057983398;1.140944004058838;0.0;0.0;0.0
1227;0.08540000021457672;-0.020983999595046043;0.98990797996521;0.20398399233818054;-0.13566400110721588;1.1448479890823364;0.12687499821186066;0.09187500178813934;0.40687501430511475
1229;0.0;0.0;0.0;0.21959999203681946;-0.1668960005044937;1.132159948348999;0.0;0.0;0.0
1231;0.0;0.0;0.0;0.1844639927148819;-0.16299200057983398;1.1448479890823364;0.0;0.0;0.0
1233;0.0;0.0;0.0;0.2000799924135208;-0.17080000042915344;1.1370400190353394;0.0;0.0;0.0
1235;0.08661999553442001;-0.02025200054049492;0.9891759753227234;0.20788799226284027;-0.16299200057983398;1.148751974105835;0.1925000101327896;0.2318750023841858;0.4025000035762787
1237;0.0;0.0;0.0;0.19617599248886108;-0.1512800008058548;1.140944004058838;0.0;0.0;0.0
1239;0.0;0.0;0.0;0.19617599248886108;-0.15908800065517426;1.148751974105835;0.0;0.0;0.0
1242;0.0;0.0;0.0;0.20788799226284027;-0.17080000042915344;1.1448479890823364;0.0;0.0;0.0
1244;0.08442399650812149;-0.02122800052165985;0.9903959631919861;0.18836799263954163;-0.1668960005044937;1.124351978302002;0.05250000208616257;0.37187501788139343;0.4724999964237213
1246;0.0;0.0;0.0;0.19617599248886108;-0.15908800065517426;1.148751974105835;0.0;0.0;0.0
1248;0.0;0.0;0.0;0.2000799924135208;-0.1512800008058548;1.1526559591293335;0.0;0.0;0.0
1250;0.0;0.0;0.0;0.19227199256420135;-0.1512800008058548;1.107759952545166;0.0;0.0;0.0
1252;0.08393599838018417;-0.020495999604463577;0.9903959631919861;0.20788799226284027;-0.12004800140857697;1.1282559633255005;0.05250000208616257;0.1574999988079071;0.3981249928474426
1254;0.0;0.0;0.0;0.19227199256420135;-0.14347200095653534;1.148751974105835;0.0;0.0;0.0
1256;0.0;0.0;0.0;0.18836799263954163;-0.1395680010318756;1.1282559633255005;0.0;0.0;0.0
1259;0.0;0.0;0.0;0.18055999279022217;-0.1786080002784729;1.140944004058838;0.0;0.0;0.0
1261;0.08442399650812149;-0.019763998687267303;0.9884439706802368;0.20398399233818054;-0.16299200057983398;1.1282559633255005;0.12250000238418579;0.08749999850988388;0.46812498569488525
1263;0.0;0.0;0.0;0.19227199256420135;-0.1395680010318756;1.156559944152832;0.0;0.0;0.0
1265;0.0;0.0;0.0;0.20788799226284027;-0.13566400110721588;1.148751974105835;0.0;0.0;0.0
1267;0.0;0.0;0.0;0.17665599286556244;-0.1668960005044937;1.1282559633255005;0.0;0.0;0.0
1269;0.08515600115060806;-0.020495999604463577;0.9886879920959473;0.20398399233818054;-0.16299200057983398;1.1448479890823364;0.05250000208616257;0.29749998450279236;0.39375001192092896
1271;0.0;0.0;0.0;0.19227199256420135;-0.13566400110721588;1.1614400148391724;0.0;0.0;0.0
1273;0.0;0.0;0.0;0.19617599248886108;-0.1512800008058548;1.1448479890823364;0.0;0.0;0.0
1276;0.0;0.0;0.0;0.2117919921875;-0.18251200020313263;1.148751974105835;0.0;0.0;0.0
1278;0.08442399650812149;-0.019763998687267303;0.98990797996521;0.19227199256420135;-0.15908800065517426;1.1448479890823364;0.05250000208616257;0.29749998450279236;0.39375001192092896
1280;0.0;0.0;0.0;0.20398399233818054;-0.14737600088119507;1.1448479890823364;0.0;0.0;0.0
1282;0.0;0.0;0.0;0.19227199256420135;-0.13566400110721588;1.1282559633255005;0.0;0.0;0.0
1284;0.0;0.0;0.0;0.16103999316692352;-0.1512800008058548;1.124351978302002;0.0;0.0;0.0
1286;0.08466799557209015;-0.020495999604463577;0.9901520013809204;0.20398399233818054;-0.13566400110721588;1.148751974105835;0.12250000238418579;0.15312500298023224;0.3893750011920929
1289;0.0;0.0;0.0;0.18836799263954163;-0.16299200057983398;1.1448479890823364;0.0;0.0;0.0
1290;0.0;0.0;0.0;0.18836799263954163;-0.16299200057983398;1.132159948348999;0.0;0.0;0.0
1293;0.0;0.0;0.0;0.2000799924135208;-0.1668960005044937;1.1204479932785034;0.0;0.0;0.0
1295;0.08442399650812149;-0.02000799961388111;0.9896639585494995;0.19617599248886108;-0.1512800008058548;1.1448479890823364;0.12250000238418579;0.15312500298023224;0.3893750011920929
1297;0.0;0.0;0.0;0.18836799263954163;-0.1395680010318756;1.1282559633255005;0.0;0.0;0.0
1299;0.0;0.0;0.0;0.18836799263954163;-0.16299200057983398;1.156559944152832;0.0;0.0;0.0
1301;0.0;0.0;0.0;0.1727519929409027;-0.1395680010318756;1.140944004058838;0.0;0.0;0.0
1303;0.08661999553442001;-0.019276000559329987;0.9901520013809204;0.19227199256420135;-0.14737600088119507;1.132159948348999;0.12250000238418579;0.2931250035762787;0.3893750011920929
1305;0.0;0.0;0.0;0.19617599248886108;-0.17080000042915344;1.124351978302002;0.0;0.0;0.0
1307;0.0;0.0;0.0;0.19227199256420135;-0.14347200095653534;1.1360639333724976;0.0;0.0;0.0
1310;0.0;0.0;0.0;0.19227199256420135;-0.13566400110721588;1.124351978302002;0.0;0.0;0.0
1312;0.08295999467372894;-0.02025200054049492;0.9896639585494995;0.19227199256420135;-0.15518400073051453;1.165343999862671;0.048124998807907104;0.22312499582767487;0.45499998331069946
1314;0.0;0.0;0.0;0.1844639927148819;-0.15518400073051453;1.132159948348999;0.0;0.0;0.0
1316;0.0;0.0;0.0;0.20788799226284027;-0.15518400073051453;1.148751974105835;0.0;0.0;0.0
1318;0.0;0.0;0.0;0.2000799924135208;-0.16299200057983398;1.140944004058838;0.0;0.0;0.0
1320;0.08393599838018417;-0.02025200054049492;0.98990797996521;0.2000799924135208;-0.13176000118255615;1.1448479890823364;0.11812499910593033;0.08312499523162842;0.3149999976158142
1323;0.0;0.0;0.0;0.1727519929409027;-0.14347200095653534;1.140944004058838;0.0;0.0;0.0
1325;0.0;0.0;0.0;0.20398399233818054;-0.14737600088119507;1.1204479932785034;0.0;0.0;0.0
1327;0.0;0.0;0.0;0.1727519929409027;-0.15518400073051453;1.1360639333724976;0.0;0.0;0.0
1329;0.08686399459838867;-0.019519999623298645;0.9882000088691711;0.19617599248886108;-0.1512800008058548;1.1526559591293335;0.048124998807907104;0.14875000715255737;0.38062500953674316
1331;0.0;0.0;0.0;0.18836799263954163;-0.14737600088119507;1.1370400190353394;0.0;0.0;0.0
1333;0.0;0.0;0.0;0.1844639927148819;-0.14347200095653534;1.1282559633255005;0.0;0.0;0.0
1335;0.0;0.0;0.0;0.20788799226284027;-0.15908800065517426;1.1282559633255005;0.0;0.0;0.0
1337;0.08515600115060806;-0.020739998668432236;0.9894199967384338;0.16103999316692352;-0.1512800008058548;1.1604639291763306;-0.02187499962747097;0.42875000834465027;0.38062500953674316
1340;0.0;0.0;0.0;0.18055999279022217;-0.13176000118255615;1.1448479890823364;0.0;0.0;0.0
1342;0.0;0.0;0.0;0.20788799226284027;-0.16299200057983398;1.156559944152832;0.0;0.0;0.0
1344;0.0;0.0;0.0;0.20788799226284027;-0.15518400073051453;1.1126400232315063;0.0;0.0;0.0
1346;0.08295999467372894;-0.02147199958562851;0.9925919771194458;0.1844639927148819;-0.1512800008058548;1.1370400190353394;0.048124998807907104;0.3543750047683716;0.3762499988079071
1348;0.0;0.0;0.0;0.19617599248886108;-0.14347200095653534;1.165343999862671;0.0;0.0;0.0
1350;0.0;0.0;0.0;0.20398399233818054;-0.15908800065517426;1.1360639333724976;0.0;0.0;0.0
1352;0.0;0.0;0.0;0.16103999316692352;-0.17080000042915344;1.1370400190353394;0.0;0.0;0.0
1354;0.08271599560976028;-0.021715998649597168;0.9913719892501831;0.2000799924135208;-0.1668960005044937;1.1692479848861694;0.18812501430511475;0.004375003278255463;0.3762499988079071
1357;0.0;0.0;0.0;0.19617599248886108;-0.1512800008058548;1.1360639333724976;0.0;0.0;0.0
1359;0.0;0.0;0.0;0.19617599248886108;-0.1395680010318756;1.1360639333724976;0.0;0.0;0.0
1361;0.0;0.0;0.0;0.18836799263954163;-0.1786080002784729;1.148751974105835;0.0;0.0;0.0
1363;0.0861319974064827;-0.01903199963271618;0.9894199967384338;0.18836799263954163;-0.1512800008058548;1.1282559633255005;0.18812501430511475;0.004375003278255463;0.44187501072883606
1365;0.0;0.0;0.0;0.2000799924135208;-0.14347200095653534;1.124351978302002;0.0;0.0;0.0
1367;0.0;0.0;0.0;0.17665599286556244;-0.1668960005044937;1.1360639333724976;0.0;0.0;0.0
1369;0.0;0.0;0.0;0.2000799924135208;-0.13566400110721588;1.1448479890823364;0.0;0.0;0.0
1371;0.08564399927854538;-0.02000799961388111;0.9882000088691711;0.19227199256420135;-0.1786080002784729;1.1360639333724976;0.11812499910593033;0.21437500417232513;0.37187501788139343
1373;0.0;0.0;0.0;0.19617599248886108;-0.16299200057983398;1.165343999862671;0.0;0.0;0.0
1376;0.0;0.0;0.0;0.17665599286556244;-0.1395680010318756;1.124351978302002;0.0;0.0;0.0
1378;0.0;0.0;0.0;0.20398399233818054;-0.15518400073051453;1.1448479890823364;0.0;0.0;0.0
1380;0.08466799557209015;-0.020495999604463577;0.9882000088691711;0.19617599248886108;-0.15518400073051453;1.1282559633255005;0.048124998807907104;0.3543750047683716;0.37187501788139343
1382;0.0;0.0;0.0;0.19617599248886108;-0.17080000042915344;1.1204479932785034;0.0;0.0;0.0
1384;0.0;0.0;0.0;0.19617599248886108;-0.1512800008058548;1.132159948348999;0.0;0.0;0.0
1386;0.0;0.0;0.0;0.19227199256420135;-0.17080000042915344;1.156559944152832;0.0;0.0;0.0
1388;0.08369199931621552;-0.02000799961388111;0.990884006023407;0.21959999203681946;-0.16299200057983398;1.1370400190353394;0.048124998807907104;0.3500000238418579;0.29750001430511475
1391;0.0;0.0;0.0;0.19227199256420135;-0.1786080002784729;1.1282559633255005;0.0;0.0;0.0
1393;0.0;0.0;0.0;0.20788799226284027;-0.14737600088119507;1.148751974105835;0.0;0.0;0.0
1395;0.0;0.0;0.0;0.18836799263954163;-0.16299200057983398;1.148751974105835;0.0;0.0;0.0
1397;0.0832040011882782;-0.02025200054049492;0.98990797996521;0.19227199256420135;-0.1668960005044937;1.132159948348999;0.11374999582767487;0.14000001549720764;0.3675000071525574
1399;0.0;0.0;0.0;0.21959999203681946;-0.14737600088119507;1.132159948348999;0.0;0.0;0.0
1401;0.0;0.0;0.0;0.18055999279022217;-0.1512800008058548;1.140944004058838;0.0;0.0;0.0
1403;0.0;0.0;0.0;0.18836799263954163;-0.1668960005044937;1.1370400190353394;0.0;0.0;0.0
1405;0.08540000021457672;-0.02025200054049492;0.9896639585494995;0.19227199256420135;-0.14347200095653534;1.1370400190353394;0.11374999582767487;0.07000000029802322;0.2931250333786011
1408;0.0;0.0;0.0;0.1844639927148819;-0.1512800008058548;1.132159948348999;0.0;0.0;0.0
1410;0.0;0.0;0.0;0.19617599248886108;-0.15908800065517426;1.140944004058838;0.0;0.0;0.0
1412;0.0;0.0;0.0;0.18836799263954163;-0.15908800065517426;1.132159948348999;0.0;0.0;0.0
1414;0.08686399459838867;-0.019519999623298645;0.9889319539070129;0.20788799226284027;-0.1668960005044937;1.156559944152832;0.04374999925494194;0.2800000011920929;0.3631250262260437
1416;0.0;0.0;0.0;0.2117919921875;-0.17080000042915344;1.1448479890823364;0.0;0.0;0.0
1418;0.0;0.0;0.0;0.1844639927148819;-0.14347200095653534;1.1526559591293335;0.0;0.0;0.0
1420;0.0;0.0;0.0;0.19617599248886108;-0.16299200057983398;1.1360639333724976;0.0;0.0;0.0
1422;0.08369199931621552;-0.02025200054049492;0.9906399846076965;0.1844639927148819;-0.1512800008058548;1.1448479890823364;0.04374999925494194;0.34562501311302185;0.3631250262260437
1425;0.0;0.0;0.0;0.16494399309158325;-0.14737600088119507;1.1448479890823364;0.0;0.0;0.0
1427;0.0;0.0;0.0;0.20788799226284027;-0.1512800008058548;1.1282559633255005;0.0;0.0;0.0
1429;0.0;0.0;0.0;0.20788799226284027;-0.14347200095653534;1.140944004058838;0.0;0.0;0.0
1431;0.0832040011882782;-0.019763998687267303;0.9911279678344727;0.18836799263954163;-0.14347200095653534;1.1526559591293335;0.11374999582767487;0.06562499701976776;0.35875001549720764
1433;0.0;0.0;0.0;0.18836799263954163;-0.1668960005044937;1.1526559591293335;0.0;0.0;0.0
1435;0.0;0.0;0.0;0.20788799226284027;-0.1668960005044937;1.1448479890823364;0.0;0.0;0.0
1437;0.0;0.0;0.0;0.2235039919614792;-0.16299200057983398;1.148751974105835;0.0;0.0;0.0
1439;0.08564399927854538;-0.019519999623298645;0.9877119660377502;0.18836799263954163;-0.1786080002784729;1.1526559591293335;0.11374999582767487;-0.004375003278255463;0.35875001549720764
1442;0.0;0.0;0.0;0.20398399233818054;-0.17470400035381317;1.1526559591293335;0.0;0.0;0.0
1444;0.0;0.0;0.0;0.19617599248886108;-0.17470400035381317;1.1448479890823364;0.0;0.0;0.0
1446;0.0;0.0;0.0;0.2235039919614792;-0.15518400073051453;1.148751974105835;0.0;0.0;0.0
1448;0.08710800111293793;-0.019519999623298645;0.9879559874534607;0.19617599248886108;-0.15908800065517426;1.1204479932785034;0.04374999925494194;0.34562501311302185;0.3543750047683716
1450;0.0;0.0;0.0;0.20398399233818054;-0.14737600088119507;1.1526559591293335;0.0;0.0;0.0
1452;0.0;0.0;0.0;0.18836799263954163;-0.1512800008058548;1.1360639333724976;0.0;0.0;0.0
1454;0.0;0.0;0.0;0.20398399233818054;-0.13176000118255615;1.1604639291763306;0.0;0.0;0.0
1456;0.08393599838018417;-0.020739998668432236;0.9913719892501831;0.18055999279022217;-0.14737600088119507;1.1204479932785034;0.04374999925494194;0.4112499952316284;0.3543750047683716
1459;0.0;0.0;0.0;0.20788799226284027;-0.1668960005044937;1.1692479848861694;0.0;0.0;0.0
1461;0.0;0.0;0.0;0.17665599286556244;-0.13566400110721588;1.148751974105835;0.0;0.0;0.0
1463;0.0;0.0;0.0;0.19617599248886108;-0.15908800065517426;1.165343999862671;0.0;0.0;0.0
1465;0.08222799748182297;-0.02122800052165985;0.9921039938926697;0.1844639927148819;-0.17080000042915344;1.1448479890823364;0.04374999925494194;0.20125000178813934;0.3543750047683716
1467;0.0;0.0;0.0;0.19227199256420135;-0.15518400073051453;1.1448479890823364;0.0;0.0;0.0
1469;0.0;0.0;0.0;0.19227199256420135;-0.14737600088119507;1.1448479890823364;0.0;0.0;0.0
1471;0.0;0.0;0.0;0.20398399233818054;-0.18641600012779236;1.1204479932785034;0.0;0.0;0.0
1473;0.08540000021457672;-0.02000799961388111;0.98990797996521;0.19227199256420135;-0.17470400035381317;1.1448479890823364;0.11374999582767487;-0.008749999105930328;0.2800000309944153
1476;0.0;0.0;0.0;0.19617599248886108;-0.1395680010318756;1.140944004058838;0.0;0.0;0.0
1478;0.0;0.0;0.0;0.2000799924135208;-0.1395680010318756;1.1448479890823364;0.0;0.0;0.0
1480;0.0;0.0;0.0;0.20788799226284027;-0.14737600088119507;1.1526559591293335;0.0;0.0;0.0
1482;0.08686399459838867;-0.02000799961388111;0.9889319539070129;0.16884799301624298;-0.1668960005044937;1.1204479932785034;0.11374999582767487;0.20125000178813934;0.2800000309944153
1484;0.0;0.0;0.0;0.2000799924135208;-0.14347200095653534;1.140944004058838;0.0;0.0;0.0
1486;0.0;0.0;0.0;0.1844639927148819;-0.16299200057983398;1.124351978302002;0.0;0.0;0.0
1488;0.0;0.0;0.0;0.2000799924135208;-0.1668960005044937;1.1526559591293335;0.0;0.0;0.0
1490;0.08515600115060806;-0.020983999595046043;0.98990797996521;0.16884799301624298;-0.1512800008058548;1.140944004058838;0.04374999925494194;0.3412500023841858;0.3500000238418579
1493;0.0;0.0;0.0;0.1844639927148819;-0.14347200095653534;1.1282559633255005;0.0;0.0;0.0
1495;0.0;0.0;0.0;0.19617599248886108;-0.1668960005044937;1.1448479890823364;0.0;0.0;0.0
1497;0.0;0.0;0.0;0.21959999203681946;-0.1786080002784729;1.156559944152832;0.0;0.0;0.0
1499;0.08417999744415283;-0.020983999595046043;0.98990797996521;0.2117919921875;-0.17080000042915344;1.156559944152832;0.04374999925494194;0.19687500596046448;0.34562501311302185
1501;0.0;0.0;0.0;0.2117919921875;-0.17470400035381317;1.148751974105835;0.0;0.0;0.0
1503;0.0;0.0;0.0;0.19227199256420135;-0.14347200095653534;1.1614400148391724;0.0;0.0;0.0
1505;0.0;0.0;0.0;0.17665599286556244;-0.14737600088119507;1.1448479890823364;0.0;0.0;0.0
1507;0.08417999744415283;-0.020983999595046043;0.9906399846076965;0.2000799924135208;-0.1395680010318756;1.140944004058838;0.039374999701976776;0.05687499791383743;0.34562501311302185
1510;0.0;0.0;0.0;0.20398399233818054;-0.14737600088119507;1.1165440082550049;0.0;0.0;0.0
1512;0.0;0.0;0.0;0.2000799924135208;-0.14347200095653534;1.132159948348999;0.0;0.0;0.0
1514;0.0;0.0;0.0;0.18055999279022217;-0.12785600125789642;1.148751974105835;0.0;0.0;0.0
1516;0.08515600115060806;-0.02025200054049492;0.9896639585494995;0.19227199256420135;-0.14737600088119507;1.1282559633255005;0.109375;0.12687501311302185;0.3412500023841858
1518;0.0;0.0;0.0;0.19227199256420135;-0.1668960005044937;1.148751974105835;0.0;0.0;0.0
1520;0.0;0.0;0.0;0.2235039919614792;-0.14737600088119507;1.148751974105835;0.0;0.0;0.0
1522;0.0;0.0;0.0;0.2000799924135208;-0.14737600088119507;1.132159948348999;0.0;0.0;0.0
1524;0.08564399927854538;-0.02000799961388111;0.9889319539070129;0.2000799924135208;-0.14737600088119507;1.124351978302002;0.039374999701976776;0.19687500596046448;0.3412500023841858
1527;0.0;0.0;0.0;0.20788799226284027;-0.1786080002784729;1.1370400190353394;0.0;0.0;0.0
1529;0.0;0.0;0.0;0.1844639927148819;-0.15908800065517426;1.148751974105835;0.0;0.0;0.0
1531;0.0;0.0;0.0;0.17665599286556244;-0.15518400073051453;1.148751974105835;0.0;0.0;0.0
1533;0.08466799557209015;-0.02025200054049492;0.9891759753227234;0.19617599248886108;-0.16299200057983398;1.1204479932785034;0.039374999701976776;0.2668749988079071;0.3412500023841858
1535;0.0;0.0;0.0;0.18836799263954163;-0.17080000042915344;1.1692479848861694;0.0;0.0;0.0
1537;0.0;0.0;0.0;0.17665599286556244;-0.1668960005044937;1.1331360340118408;0.0;0.0;0.0
1539;0.0;0.0;0.0;0.18836799263954163;-0.1512800008058548;1.140944004058838;0.0;0.0;0.0
1541;0.08393599838018417;-0.020983999595046043;0.990884006023407;0.19617599248886108;-0.14347200095653534;1.132159948348999;0.109375;0.12687501311302185;0.3368750214576721
1544;0.0;0.0;0.0;0.18836799263954163;-0.1512800008058548;1.1204479932785034;0.0;0.0;0.0
1546;0.0;0.0;0.0;0.2117919921875;-0.15518400073051453;1.1448479890823364;0.0;0.0;0.0
1548;0.0;0.0;0.0;0.1727519929409027;-0.1395680010318756;1.107759952545166;0.0;0.0;0.0
1550;0.08515600115060806;-0.02025200054049492;0.9896639585494995;0.19617599248886108;-0.16299200057983398;1.1370400190353394;0.109375;-0.013125002384185791;0.3368750214576721
1552;0.0;0.0;0.0;0.18055999279022217;-0.16299200057983398;1.1526559591293335;0.0;0.0;0.0
1554;0.0;0.0;0.0;0.20398399233818054;-0.14347200095653534;1.132159948348999;0.0;0.0;0.0
1556;0.0;0.0;0.0;0.20788799226284027;-0.14347200095653534;1.1204479932785034;0.0;0.0;0.0
1558;0.0861319974064827;-0.019763998687267303;0.9886879920959473;0.22740799188613892;-0.1512800008058548;1.140944004058838;0.039374999701976776;0.12250000983476639;0.33250001072883606
1561;0.0;0.0;0.0;0.1727519929409027;-0.1395680010318756;1.1282559633255005;0.0;0.0;0.0
1563;0.0;0.0;0.0;0.18836799263954163;-0.17080000042915344;1.124351978302002;0.0;0.0;0.0
1565;0.0;0.0;0.0;0.20398399233818054;-0.1668960005044937;1.1448479890823364;0.0;0.0;0.0
1567;0.08515600115060806;-0.019519999623298645;0.9896639585494995;0.16884799301624298;-0.1786080002784729;1.1604639291763306;0.039374999701976776;0.33250001072883606;0.33250001072883606
1569;0.0;0.0;0.0;0.20788799226284027;-0.16299200057983398;1.132159948348999;0.0;0.0;0.0
1571;0.0;0.0;0.0;0.18836799263954163;-0.1512800008058548;1.1448479890823364;0.0;0.0;0.0
1573;0.0;0.0;0.0;0.16103999316692352;-0.1668960005044937;1.1360639333724976;0.0;0.0;0.0
1575;0.08417999744415283;-0.020739998668432236;0.9913719892501831;0.20398399233818054;-0.15908800065517426;1.140944004058838;0.039374999701976776;0.19249999523162842;0.33250001072883606
1578;0.0;0.0;0.0;0.18055999279022217;-0.1512800008058548;1.1370400190353394;0.0;0.0;0.0
1580;0.0;0.0;0.0;0.20788799226284027;-0.15908800065517426;1.165343999862671;0.0;0.0;0.0
1582;0.0;0.0;0.0;0.20398399233818054;-0.1512800008058548;1.1360639333724976;0.0;0.0;0.0
1584;0.0849120020866394;-0.020739998668432236;0.9901520013809204;0.20788799226284027;-0.15908800065517426;1.165343999862671;0.109375;0.05250000208616257;0.328125
1586;0.0;0.0;0.0;0.20398399233818054;-0.17470400035381317;1.132159948348999;0.0;0.0;0.0
1588;0.0;0.0;0.0;0.21959999203681946;-0.15908800065517426;1.1360639333724976;0.0;0.0;0.0
1590;0.0;0.0;0.0;0.18836799263954163;-0.14737600088119507;1.140944004058838;0.0;0.0;0.0
1592;0.08637599647045135;-0.02000799961388111;0.9889319539070129;0.1844639927148819;-0.14347200095653534;1.1282559633255005;0.109375;0.19249999523162842;0.3981249928474426
1595;0.0;0.0;0.0;0.2000799924135208;-0.15518400073051453;1.1165440082550049;0.0;0.0;0.0
1597;0.0;0.0;0.0;0.20788799226284027;-0.14347200095653534;1.1331360340118408;0.0;0.0;0.0
1599;0.0;0.0;0.0;0.18055999279022217;-0.15908800065517426;1.1370400190353394;0.0;0.0;0.0
1601;0.08515600115060806;-0.02025200054049492;0.9891759753227234;0.19617599248886108;-0.15518400073051453;1.1370400190353394;0.109375;0.2581250071525574;0.32375001907348633
1603;0.0;0.0;0.0;0.18836799263954163;-0.1786080002784729;1.156559944152832;0.0;0.0;0.0
1605;0.0;0.0;0.0;0.2117919921875;-0.14737600088119507;1.132159948348999;0.0;0.0;0.0
1607;0.0;0.0;0.0;0.19617599248886108;-0.1668960005044937;1.1282559633255005;0.0;0.0;0.0
1609;0.08369199931621552;-0.020495999604463577;0.9901520013809204;0.20398399233818054;-0.1786080002784729;1.132159948348999;0.10500000417232513;0.2581250071525574;0.32375001907348633
1612;0.0;0.0;0.0;0.17665599286556244;-0.13566400110721588;1.156559944152832;0.0;0.0;0.0
1614;0.0;0.0;0.0;0.19227199256420135;-0.15908800065517426;1.1282559633255005;0.0;0.0;0.0
1616;0.0;0.0;0.0;0.19617599248886108;-0.15908800065517426;1.140944004058838;0.0;0.0;0.0
1618;0.08540000021457672;-0.019763998687267303;0.9896639585494995;0.18836799263954163;-0.17080000042915344;1.165343999862671;0.03500000014901161;0.11812500655651093;0.32375001907348633
1620;0.0;0.0;0.0;0.18055999279022217;-0.14737600088119507;1.148751974105835;0.0;0.0;0.0
1622;0.0;0.0;0.0;0.21959999203681946;-0.1512800008058548;1.1448479890823364;0.0;0.0;0.0
1624;0.0;0.0;0.0;0.19227199256420135;-0.14737600088119507;1.1448479890823364;0.0;0.0;0.0
1626;0.08466799557209015;-0.020495999604463577;0.9896639585494995;0.19227199256420135;-0.14737600088119507;1.132159948348999;0.03500000014901161;0.18812499940395355;0.31937500834465027
1629;0.0;0.0;0.0;0.1844639927148819;-0.14737600088119507;1.1448479890823364;0.0;0.0;0.0
1631;0.0;0.0;0.0;0.17665599286556244;-0.15518400073051453;1.1204479932785034;0.0;0.0;0.0
1633;0.0;0.0;0.0;0.1844639927148819;-0.14737600088119507;1.1614400148391724;0.0;0.0;0.0
1635;0.08442399650812149;-0.020739998668432236;0.9903959631919861;0.19227199256420135;-0.1512800008058548;1.140944004058838;0.10500000417232513;0.1837500035762787;0.31937500834465027
1637;0.0;0.0;0.0;0.2000799924135208;-0.1512800008058548;1.1360639333724976;0.0;0.0;0.0
1639;0.0;0.0;0.0;0.19227199256420135;-0.1512800008058548;1.1282559633255005;0.0;0.0;0.0
1641;0.0;0.0;0.0;0.20398399233818054;-0.15518400073051453;1.1282559633255005;0.0;0.0;0.0
1643;0.08417999744415283;-0.019519999623298645;0.9901520013809204;0.17665599286556244;-0.15518400073051453;1.140944004058838;0.03500000014901161;0.1837500035762787;0.31937500834465027
1646;0.0;0.0;0.0;0.18055999279022217;-0.15518400073051453;1.1282559633255005;0.0;0.0;0.0
1648;0.0;0.0;0.0;0.18055999279022217;-0.14347200095653534;1.148751974105835;0.0;0.0;0.0
1650;0.0;0.0;0.0;0.19227199256420135;-0.14737600088119507;1.140944004058838;0.0;0.0;0.0
1652;0.0849120020866394;-0.02000799961388111;0.9896639585494995;0.21569599211215973;-0.15908800065517426;1.132159948348999;0.10500000417232513;0.11375001072883606;0.3149999976158142
1654;0.0;0.0;0.0;0.19227199256420135;-0.17470400035381317;1.1370400190353394;0.0;0.0;0.0
1656;0.0;0.0;0.0;0.20788799226284027;-0.1786080002784729;1.140944004058838;0.0;0.0;0.0
1658;0.0;0.0;0.0;0.2117919921875;-0.15518400073051453;1.124351978302002;0.0;0.0;0.0
1660;0.08417999744415283;-0.019763998687267303;0.9894199967384338;0.19617599248886108;-0.1512800008058548;1.132159948348999;0.03500000014901161;0.11375001072883606;0.3149999976158142
1663;0.0;0.0;0.0;0.21569599211215973;-0.1786080002784729;1.1448479890823364;0.0;0.0;0.0
1665;0.0;0.0;0.0;0.18836799263954163;-0.14737600088119507;1.140944004058838;0.0;0.0;0.0
1667;0.0;0.0;0.0;0.20398399233818054;-0.17470400035381317;1.140944004058838;0.0;0.0;0.0
1669;0.08442399650812149;-0.020739998668432236;0.9889319539070129;0.2000799924135208;-0.1512800008058548;1.1448479890823364;0.10500000417232513;0.2537499964237213;0.3149999976158142
1671;0.0;0.0;0.0;0.2000799924135208;-0.15518400073051453;1.1282559633255005;0.0;0.0;0.0
1673;0.0;0.0;0.0;0.1844639927148819;-0.14737600088119507;1.132159948348999;0.0;0.0;0.0
1675;0.0;0.0;0.0;0.19227199256420135;-0.16299200057983398;1.124351978302002;0.0;0.0;0.0
1677;0.08515600115060806;-0.02000799961388111;0.9882000088691711;0.19617599248886108;-0.1512800008058548;1.148751974105835;0.10500000417232513;0.17937499284744263;0.31062501668930054
1680;0.0;0.0;0.0;0.2000799924135208;-0.1512800008058548;1.1526559591293335;0.0;0.0;0.0
1682;0.0;0.0;0.0;0.2117919921875;-0.14737600088119507;1.132159948348999;0.0;0.0;0.0
1684;0.0;0.0;0.0;0.1727519929409027;-0.16299200057983398;1.1692479848861694;0.0;0.0;0.0
1686;0.08515600115060806;-0.019763998687267303;0.9894199967384338;0.1844639927148819;-0.14347200095653534;1.132159948348999;0.03500000014901161;0.17937499284744263;0.31062501668930054
1688;0.0;0.0;0.0;0.2235039919614792;-0.16299200057983398;1.132159948348999;0.0;0.0;0.0
1690;0.0;0.0;0.0;0.19617599248886108;-0.1395680010318756;1.1370400190353394;0.0;0.0;0.0
1692;0.0;0.0;0.0;0.18055999279022217;-0.1512800008058548;1.156559944152832;0.0;0.0;0.0
1695;0.08564399927854538;-0.020495999604463577;0.9901520013809204;0.1727519929409027;-0.14737600088119507;1.1370400190353394;0.10500000417232513;0.17937499284744263;0.3762499988079071
1697;0.0;0.0;0.0;0.19617599248886108;-0.1512800008058548;1.1331360340118408;0.0;0.0;0.0
1699;0.0;0.0;0.0;0.20788799226284027;-0.14737600088119507;1.1614400148391724;0.0;0.0;0.0
1701;0.0;0.0;0.0;0.20398399233818054;-0.14737600088119507;1.1419199705123901;0.0;0.0;0.0
1703;0.08515600115060806;-0.020495999604463577;0.9901520013809204;0.1727519929409027;-0.1668960005044937;1.1214239597320557;0.03500000014901161;0.24937498569488525;0.3062500059604645
1705;0.0;0.0;0.0;0.19227199256420135;-0.14347200095653534;1.1575360298156738;0.0;0.0;0.0
1707;0.0;0.0;0.0;0.19227199256420135;-0.16299200057983398;1.1497279405593872;0.0;0.0;0.0
1709;0.0;0.0;0.0;0.20398399233818054;-0.1512800008058548;1.1536319255828857;0.0;0.0;0.0
1712;0.08515600115060806;-0.020495999604463577;0.9903959631919861;0.18836799263954163;-0.16299200057983398;1.1331360340118408;0.10062500089406967;0.17937499284744263;0.3062500059604645
1714;0.0;0.0;0.0;0.1844639927148819;-0.15908800065517426;1.1282559633255005;0.0;0.0;0.0
1716;0.0;0.0;0.0;0.20788799226284027;-0.17080000042915344;1.1526559591293335;0.0;0.0;0.0
1718;0.0;0.0;0.0;0.21569599211215973;-0.15908800065517426;1.148751974105835;0.0;0.0;0.0
1720;0.0849120020866394;-0.02000799961388111;0.98990797996521;0.22740799188613892;-0.15908800065517426;1.156559944152832;0.10062500089406967;0.17499999701976776;0.3018749952316284
1722;0.0;0.0;0.0;0.19227199256420135;-0.1668960005044937;1.1526559591293335;0.0;0.0;0.0
1724;0.0;0.0;0.0;0.19227199256420135;-0.14347200095653534;1.148751974105835;0.0;0.0;0.0
1726;0.0;0.0;0.0;0.1844639927148819;-0.14737600088119507;1.148751974105835;0.0;0.0;0.0
1729;0.0849120020866394;-0.02000799961388111;0.9889319539070129;0.18836799263954163;-0.18251200020313263;1.140944004058838;0.10062500089406967;0.17499999701976776;0.3018749952316284
1731;0.0;0.0;0.0;0.2000799924135208;-0.15518400073051453;1.140944004058838;0.0;0.0;0.0
1733;0.0;0.0;0.0;0.21959999203681946;-0.13176000118255615;1.1360639333724976;0.0;0.0;0.0
1735;0.0;0.0;0.0;0.1844639927148819;-0.13566400110721588;1.1282559633255005;0.0;0.0;0.0
1737;0.08417999744415283;-0.020495999604463577;0.9901520013809204;0.19617599248886108;-0.1668960005044937;1.1370400190353394;0.030625000596046448;0.17499999701976776;0.37187498807907104
1739;0.0;0.0;0.0;0.21569599211215973;-0.15518400073051453;1.140944004058838;0.0;0.0;0.0
1741;0.0;0.0;0.0;0.1844639927148819;-0.14737600088119507;1.1448479890823364;0.0;0.0;0.0
1743;0.0;0.0;0.0;0.19617599248886108;-0.1786080002784729;1.148751974105835;0.0;0.0;0.0
1746;0.08393599838018417;-0.020495999604463577;0.9903959631919861;0.2000799924135208;-0.15518400073051453;1.1370400190353394;0.030625000596046448;0.17499999701976776;0.29750001430511475
1748;0.0;0.0;0.0;0.2000799924135208;-0.16299200057983398;1.1448479890823364;0.0;0.0;0.0
1750;0.0;0.0;0.0;0.20398399233818054;-0.13176000118255615;1.140944004058838;0.0;0.0;0.0
1752;0.0;0.0;0.0;0.18055999279022217;-0.1395680010318756;1.140944004058838;0.0;0.0;0.0
1754;0.08564399927854538;-0.020495999604463577;0.9894199967384338;0.19617599248886108;-0.17470400035381317;1.148751974105835;0.10062500089406967;0.17499999701976776;0.29750001430511475
1756;0.0;0.0;0.0;0.2235039919614792;-0.1512800008058548;1.1370400190353394;0.0;0.0;0.0
1758;0.0;0.0;0.0;0.20398399233818054;-0.1512800008058548;1.1526559591293335;0.0;0.0;0.0
1760;0.0;0.0;0.0;0.18836799263954163;-0.15518400073051453;1.1204479932785034;0.0;0.0;0.0
1763;0.08564399927854538;-0.020739998668432236;0.9896639585494995;0.16884799301624298;-0.14737600088119507;1.1282559633255005;0.10062500089406967;0.10062500834465027;0.29750001430511475
1765;0.0;0.0;0.0;0.18055999279022217;-0.1786080002784729;1.132159948348999;0.0;0.0;0.0
1767;0.0;0.0;0.0;0.18836799263954163;-0.1395680010318756;1.1526559591293335;0.0;0.0;0.0
1769;0.0;0.0;0.0;0.19227199256420135;-0.1512800008058548;1.140944004058838;0.0;0.0;0.0
1771;0.08442399650812149;-0.02025200054049492;0.9906399846076965;0.1844639927148819;-0.1512800008058548;1.148751974105835;0.030625000596046448;0.31062501668930054;0.2931250035762787
1773;0.0;0.0;0.0;0.19227199256420135;-0.15518400073051453;1.156559944152832;0.0;0.0;0.0
1775;0.0;0.0;0.0;0.2000799924135208;-0.1395680010318756;1.1448479890823364;0.0;0.0;0.0
1777;0.0;0.0;0.0;0.16884799301624298;-0.18251200020313263;1.1526559591293335;0.0;0.0;0.0
1780;0.08393599838018417;-0.020495999604463577;0.990884006023407;0.2117919921875;-0.15518400073051453;1.1370400190353394;0.030625000596046448;0.1706250011920929;0.2931250035762787
1782;0.0;0.0;0.0;0.1844639927148819;-0.1512800008058548;1.132159948348999;0.0;0.0;0.0
1784;0.0;0.0;0.0;0.20788799226284027;-0.14737600088119507;1.1526559591293335;0.0;0.0;0.0
1786;0.0;0.0;0.0;0.19227199256420135;-0.16299200057983398;1.1370400190353394;0.0;0.0;0.0
1788;0.0861319974064827;-0.02000799961388111;0.9894199967384338;0.20788799226284027;-0.1512800008058548;1.140944004058838;0.10062500089406967;0.030625000596046448;0.2931250035762787
1790;0.0;0.0;0.0;0.2000799924135208;-0.16299200057983398;1.124351978302002;0.0;0.0;0.0
1792;0.0;0.0;0.0;0.19617599248886108;-0.1395680010318756;1.1526559591293335;0.0;0.0;0.0
1794;0.0;0.0;0.0;0.19227199256420135;-0.17470400035381317;1.1370400190353394;0.0;0.0;0.0
1797;0.08540000021457672;-0.019519999623298645;0.9896639585494995;0.17665599286556244;-0.14347200095653534;1.1448479890823364;0.10062500089406967;0.1706250011920929;0.2887499928474426
1799;0.0;0.0;0.0;0.19227199256420135;-0.1395680010318756;1.1380159854888916;0.0;0.0;0.0
1801;0.0;0.0;0.0;0.20398399233818054;-0.13566400110721588;1.1458239555358887;0.0;0.0;0.0
1803;0.0;0.0;0.0;0.20788799226284027;-0.14737600088119507;1.1370400190353394;0.0;0.0;0.0
1805;0.08442399650812149;-0.02000799961388111;0.9901520013809204;0.19227199256420135;-0.13176000118255615;1.1331360340118408;0.030625000596046448;0.1706250011920929;0.2887499928474426
1807;0.0;0.0;0.0;0.20398399233818054;-0.15908800065517426;1.1292319297790527;0.0;0.0;0.0
1809;0.0;0.0;0.0;0.19617599248886108;-0.14737600088119507;1.1536319255828857;0.0;0.0;0.0
1811;0.0;0.0;0.0;0.20788799226284027;-0.16299200057983398;1.1419199705123901;0.0;0.0;0.0
1814;0.08442399650812149;-0.019763998687267303;0.9901520013809204;0.20788799226284027;-0.1239520013332367;1.1292319297790527;0.10062500089406967;0.16624999046325684;0.2887499928474426
1816;0.0;0.0;0.0;0.2000799924135208;-0.1668960005044937;1.148751974105835;0.0;0.0;0.0
1818;0.0;0.0;0.0;0.18055999279022217;-0.15518400073051453;1.1448479890823364;0.0;0.0;0.0
1820;0.0;0.0;0.0;0.21569599211215973;-0.14737600088119507;1.132159948348999;0.0;0.0;0.0
1822;0.08466799557209015;-0.02000799961388111;0.9891759753227234;0.19227199256420135;-0.16299200057983398;1.1448479890823364;0.026250001043081284;0.0962500050663948;0.3543750047683716
1824;0.0;0.0;0.0;0.19617599248886108;-0.17470400035381317;1.1604639291763306;0.0;0.0;0.0
1826;0.0;0.0;0.0;0.20788799226284027;-0.17080000042915344;1.1604639291763306;0.0;0.0;0.0
1828;0.0;0.0;0.0;0.17665599286556244;-0.13566400110721588;1.1282559633255005;0.0;0.0;0.0
1831;0.08466799557209015;-0.019519999623298645;0.9896639585494995;0.19227199256420135;-0.15518400073051453;1.148751974105835;0.09624999761581421;0.0962500050663948;0.28437501192092896
1833;0.0;0.0;0.0;0.19227199256420135;-0.1512800008058548;1.1458239555358887;0.0;0.0;0.0
1835;0.0;0.0;0.0;0.20398399233818054;-0.17080000042915344;1.1380159854888916;0.0;0.0;0.0
1837;0.0;0.0;0.0;0.17665599286556244;-0.17080000042915344;1.1575360298156738;0.0;0.0;0.0
1839;0.08540000021457672;-0.02000799961388111;0.9889319539070129;0.22740799188613892;-0.14347200095653534;1.1624159812927246;0.09624999761581421;0.16624999046325684;0.28437501192092896
1841;0.0;0.0;0.0;0.21569599211215973;-0.1512800008058548;1.1497279405593872;0.0;0.0;0.0
1843;0.0;0.0;0.0;0.1844639927148819;-0.16299200057983398;1.1331360340118408;0.0;0.0;0.0
1845;0.0;0.0;0.0;0.21959999203681946;-0.17080000042915344;1.1331360340118408;0.0;0.0;0.0
1848;0.08515600115060806;-0.02025200054049492;0.9894199967384338;0.16494399309158325;-0.1512800008058548;1.1214239597320557;0.026250001043081284;0.16624999046325684;0.2800000011920929
1850;0.0;0.0;0.0;0.19227199256420135;-0.17080000042915344;1.156559944152832;0.0;0.0;0.0
1852;0.0;0.0;0.0;0.18836799263954163;-0.14347200095653534;1.140944004058838;0.0;0.0;0.0
1854;0.0;0.0;0.0;0.18836799263954163;-0.1395680010318756;1.1614400148391724;0.0;0.0;0.0
1856;0.08393599838018417;-0.019763998687267303;0.9894199967384338;0.19227199256420135;-0.1395680010318756;1.1604639291763306;0.026250001043081284;0.16624999046325684;0.2800000011920929
1858;0.0;0.0;0.0;0.18055999279022217;-0.17080000042915344;1.1370400190353394;0.0;0.0;0.0
1860;0.0;0.0;0.0;0.19617599248886108;-0.1512800008058548;1.148751974105835;0.0;0.0;0.0
1863;0.0;0.0;0.0;0.20398399233818054;-0.1512800008058548;1.148751974105835;0.0;0.0;0.0
1865;0.08442399650812149;-0.020739998668432236;0.9903959631919861;0.1844639927148819;-0.14737600088119507;1.132159948348999;0.09624999761581421;0.09187500923871994;0.21000000834465027
1867;0.0;0.0;0.0;0.1727519929409027;-0.17080000042915344;1.1360639333724976;0.0;0.0;0.0
1869;0.0;0.0;0.0;0.20398399233818054;-0.16299200057983398;1.132159948348999;0.0;0.0;0.0
1871;0.0;0.0;0.0;0.20398399233818054;-0.15518400073051453;1.1165440082550049;0.0;0.0;0.0
1873;0.08540000021457672;-0.02025200054049492;0.9896639585494995;0.18836799263954163;-0.15908800065517426;1.1448479890823364;0.026250001043081284;0.2318750023841858;0.27562499046325684
1875;0.0;0.0;0.0;0.18055999279022217;-0.1512800008058548;1.148751974105835;0.0;0.0;0.0
1877;0.0;0.0;0.0;0.20788799226284027;-0.15908800065517426;1.1204479932785034;0.0;0.0;0.0
1880;0.0;0.0;0.0;0.19617599248886108;-0.15518400073051453;1.1360639333724976;0.0;0.0;0.0
1882;0.0849120020866394;-0.02025200054049492;0.9896639585494995;0.19227199256420135;-0.1786080002784729;1.1204479932785034;0.026250001043081284;0.16187500953674316;0.34562498331069946
1884;0.0;0.0;0.0;0.21569599211215973;-0.14737600088119507;1.1282559633255005;0.0;0.0;0.0
1886;0.0;0.0;0.0;0.19617599248886108;-0.16299200057983398;1.1282559633255005;0.0;0.0;0.0
1888;0.0;0.0;0.0;0.17665599286556244;-0.14737600088119507;1.140944004058838;0.0;0.0;0.0
1890;0.08393599838018417;-0.020495999604463577;0.9894199967384338;0.2117919921875;-0.1786080002784729;1.1448479890823364;0.09624999761581421;0.09187500923871994;0.27562499046325684
1892;0.0;0.0;0.0;0.20788799226284027;-0.13176000118255615;1.1448479890823364;0.0;0.0;0.0
1894;0.0;0.0;0.0;0.20788799226284027;-0.14347200095653534;1.148751974105835;0.0;0.0;0.0
1897;0.0;0.0;0.0;0.2000799924135208;-0.14737600088119507;1.148751974105835;0.0;0.0;0.0
1899;0.08515600115060806;-0.019519999623298645;0.98990797996521;0.21569599211215973;-0.14737600088119507;1.140944004058838;0.09624999761581421;0.09187500923871994;0.3412500023841858
1901;0.0;0.0;0.0;0.2000799924135208;-0.17080000042915344;1.1526559591293335;0.0;0.0;0.0
1903;0.0;0.0;0.0;0.21959999203681946;-0.15908800065517426;1.140944004058838;0.0;0.0;0.0
1905;0.0;0.0;0.0;0.20788799226284027;-0.15518400073051453;1.1448479890823364;0.0;0.0;0.0
1907;0.08588799834251404;-0.019763998687267303;0.990884006023407;0.1844639927148819;-0.15908800065517426;1.124351978302002;0.026250001043081284;0.2318750023841858;0.27125000953674316
1909;0.0;0.0;0.0;0.1844639927148819;-0.14737600088119507;1.1448479890823364;0.0;0.0;0.0
1911;0.0;0.0;0.0;0.18836799263954163;-0.1512800008058548;1.156559944152832;0.0;0.0;0.0
1914;0.0;0.0;0.0;0.18055999279022217;-0.17470400035381317;1.1448479890823364;0.0;0.0;0.0
1916;0.08515600115060806;-0.02025200054049492;0.9911279678344727;0.20788799226284027;-0.14737600088119507;1.1360639333724976;0.026250001043081284;0.22749999165534973;0.27125000953674316
1918;0.0;0.0;0.0;0.19227199256420135;-0.13566400110721588;1.1282559633255005;0.0;0.0;0.0
1920;0.0;0.0;0.0;0.2000799924135208;-0.17080000042915344;1.140944004058838;0.0;0.0;0.0
1922;0.0;0.0;0.0;0.18055999279022217;-0.13566400110721588;1.1448479890823364;0.0;0.0;0.0
1924;0.0849120020866394;-0.02025200054049492;0.9913719892501831;0.19617599248886108;-0.1668960005044937;1.156559944152832;0.09624999761581421;0.1574999988079071;0.2668750286102295
1926;0.0;0.0;0.0;0.18055999279022217;-0.14347200095653534;1.156559944152832;0.0;0.0;0.0
1928;0.0;0.0;0.0;0.19227199256420135;-0.1512800008058548;1.124351978302002;0.0;0.0;0.0
1931;0.0;0.0;0.0;0.18055999279022217;-0.15908800065517426;1.148751974105835;0.0;0.0;0.0
1933;0.08540000021457672;-0.02000799961388111;0.9901520013809204;0.18836799263954163;-0.14737600088119507;1.1165440082550049;0.16187500953674316;0.08750000596046448;0.2668750286102295
1935;0.0;0.0;0.0;0.2391199916601181;-0.14347200095653534;1.156559944152832;0.0;0.0;0.0
1937;0.0;0.0;0.0;0.23131199181079865;-0.1668960005044937;1.1360639333724976;0.0;0.0;0.0
1939;0.0;0.0;0.0;0.21959999203681946;-0.16299200057983398;1.1370400190353394;0.0;0.0;0.0
1941;0.08442399650812149;-0.02000799961388111;0.9889319539070129;0.2000799924135208;-0.15518400073051453;1.1282559633255005;0.02187500149011612;0.08750000596046448;0.2668750286102295
1943;0.0;0.0;0.0;0.18055999279022217;-0.1395680010318756;1.156559944152832;0.0;0.0;0.0
1945;0.0;0.0;0.0;0.18055999279022217;-0.15518400073051453;1.1604639291763306;0.0;0.0;0.0
1948;0.0;0.0;0.0;0.18836799263954163;-0.14347200095653534;1.1526559591293335;0.0;0.0;0.0
1950;0.08466799557209015;-0.02025200054049492;0.9891759753227234;0.17665599286556244;-0.1668960005044937;1.140944004058838;0.09187500178813934;0.08750000596046448;0.26249998807907104
1952;0.0;0.0;0.0;0.19617599248886108;-0.14737600088119507;1.1526559591293335;0.0;0.0;0.0
1954;0.0;0.0;0.0;0.1727519929409027;-0.1395680010318756;1.124351978302002;0.0;0.0;0.0
1956;0.0;0.0;0.0;0.1844639927148819;-0.16299200057983398;1.148751974105835;0.0;0.0;0.0
1958;0.08466799557209015;-0.02025200054049492;0.9889319539070129;0.21569599211215973;-0.1668960005044937;1.124351978302002;0.09187500178813934;0.1574999988079071;0.26249998807907104
1961;0.0;0.0;0.0;0.21569599211215973;-0.15908800065517426;1.156559944152832;0.0;0.0;0.0
1962;0.0;0.0;0.0;0.18055999279022217;-0.15908800065517426;1.140944004058838;0.0;0.0;0.0
1965;0.0;0.0;0.0;0.2117919921875;-0.1512800008058548;1.1448479890823364;0.0;0.0;0.0
1967;0.08564399927854538;-0.019763998687267303;0.98990797996521;0.20398399233818054;-0.1512800008058548;1.148751974105835;0.02187500149011612;0.15312500298023224;0.26249998807907104
1969;0.0;0.0;0.0;0.1844639927148819;-0.15518400073051453;1.132159948348999;0.0;0.0;0.0
1971;0.0;0.0;0.0;0.18055999279022217;-0.16299200057983398;1.1526559591293335;0.0;0.0;0.0
1973;0.0;0.0;0.0;0.16884799301624298;-0.14347200095653534;1.1526559591293335;0.0;0.0;0.0
1975;0.08515600115060806;-0.020495999604463577;0.9901520013809204;0.21959999203681946;-0.15518400073051453;1.1604639291763306;0.02187500149011612;0.15312500298023224;0.26249998807907104
1977;0.0;0.0;0.0;0.1727519929409027;-0.14737600088119507;1.1204479932785034;0.0;0.0;0.0
1979;0.0;0.0;0.0;0.16494399309158325;-0.16299200057983398;1.1448479890823364;0.0;0.0;0.0
1982;0.0;0.0;0.0;0.20398399233818054;-0.17080000042915344;1.132159948348999;0.0;0.0;0.0
1984;0.0849120020866394;-0.020983999595046043;0.9906399846076965;0.2000799924135208;-0.14737600088119507;1.140944004058838;0.09187500178813934;0.15312500298023224;0.2581250071525574
1986;0.0;0.0;0.0;0.2000799924135208;-0.16299200057983398;1.1282559633255005;0.0;0.0;0.0
1988;0.0;0.0;0.0;0.1727519929409027;-0.14737600088119507;1.140944004058838;0.0;0.0;0.0
1990;0.0;0.0;0.0;0.20398399233818054;-0.17080000042915344;1.132159948348999;0.0;0.0;0.0
1992;0.0849120020866394;-0.020495999604463577;0.9896639585494995;0.2000799924135208;-0.15518400073051453;1.132159948348999;0.09187500178813934;0.15312500298023224;0.2581250071525574
1995;0.0;0.0;0.0;0.1844639927148819;-0.13566400110721588;1.124351978302002;0.0;0.0;0.0
1996;0.0;0.0;0.0;0.19617599248886108;-0.1512800008058548;1.1165440082550049;0.0;0.0;0.0
1999;0.0;0.0;0.0;0.20398399233818054;-0.13176000118255615;1.140944004058838;0.0;0.0;0.0
2001;0.08515600115060806;-0.020495999604463577;0.9906399846076965;0.1844639927148819;-0.1512800008058548;1.1370400190353394;-0.048124998807907104;0.15312500298023224;0.328125
2003;0.0;0.0;0.0;0.19617599248886108;-0.1395680010318756;1.132159948348999;0.0;0.0;0.0
2005;0.0;0.0;0.0;0.19227199256420135;-0.13566400110721588;1.1614400148391724;0.0;0.0;0.0
2007;0.0;0.0;0.0;0.19617599248886108;-0.15908800065517426;1.1448479890823364;0.0;0.0;0.0
2009;0.08564399927854538;-0.020495999604463577;0.9901520013809204;0.19617599248886108;-0.13176000118255615;1.148751974105835;-0.048124998807907104;0.15312500298023224;0.2537500262260437
2012;0.0;0.0;0.0;0.21959999203681946;-0.1512800008058548;1.1282559633255005;0.0;0.0;0.0
2013;0.0;0.0;0.0;0.1844639927148819;-0.15908800065517426;1.1448479890823364;0.0;0.0;0.0
2016;0.0;0.0;0.0;0.18836799263954163;-0.1512800008058548;1.132159948348999;0.0;0.0;0.0
2018;0.0849120020866394;-0.02025200054049492;0.9901520013809204;0.19227199256420135;-0.1668960005044937;1.140944004058838;0.09187500178813934;0.14875000715255737;0.2537500262260437
2020;0.0;0.0;0.0;0.2000799924135208;-0.1668960005044937;1.148751974105835;0.0;0.0;0.0
2022;0.0;0.0;0.0;0.20788799226284027;-0.15908800065517426;1.1360639333724976;0.0;0.0;0.0
2024;0.0;0.0;0.0;0.18055999279022217;-0.17080000042915344;1.1360639333724976;0.0;0.0;0.0
2026;0.08417999744415283;-0.020739998668432236;0.9894199967384338;0.2235039919614792;-0.17080000042915344;1.1282559633255005;0.02187500149011612;0.14875000715255737;0.2537500262260437
2029;0.0;0.0;0.0;0.18836799263954163;-0.17470400035381317;1.148751974105835;0.0;0.0;0.0
2031;0.0;0.0;0.0;0.20398399233818054;-0.14347200095653534;1.148751974105835;0.0;0.0;0.0
2033;0.0;0.0;0.0;0.19617599248886108;-0.17080000042915344;1.1448479890823364;0.0;0.0;0.0
2035;0.08515600115060806;-0.02025200054049492;0.9896639585494995;0.18836799263954163;-0.16299200057983398;1.140944004058838;0.02187500149011612;0.14875000715255737;0.24937501549720764
2037;0.0;0.0;0.0;0.2000799924135208;-0.16299200057983398;1.1204479932785034;0.0;0.0;0.0
2039;0.0;0.0;0.0;0.18836799263954163;-0.18251200020313263;1.1370400190353394;0.0;0.0;0.0
2041;0.0;0.0;0.0;0.1844639927148819;-0.15518400073051453;1.124351978302002;0.0;0.0;0.0
2043;0.08515600115060806;-0.020495999604463577;0.98990797996521;0.1844639927148819;-0.16299200057983398;1.1282559633255005;0.09187500178813934;0.21875;0.31937500834465027
2046;0.0;0.0;0.0;0.2000799924135208;-0.14737600088119507;1.148751974105835;0.0;0.0;0.0
2048;0.0;0.0;0.0;0.19617599248886108;-0.15518400073051453;1.140944004058838;0.0;0.0;0.0
2050;0.0;0.0;0.0;0.1844639927148819;-0.17470400035381317;1.1448479890823364;0.0;0.0;0.0
2052;0.08393599838018417;-0.020739998668432236;0.9901520013809204;0.19617599248886108;-0.15518400073051453;1.140944004058838;0.09187500178813934;0.14875000715255737;0.17937502264976501
2054;0.0;0.0;0.0;0.2000799924135208;-0.16299200057983398;1.1448479890823364;0.0;0.0;0.0
2056;0.0;0.0;0.0;0.17665599286556244;-0.14737600088119507;1.1282559633255005;0.0;0.0;0.0
2058;0.0;0.0;0.0;0.17665599286556244;-0.12004800140857697;1.1126400232315063;0.0;0.0;0.0
2060;0.08442399650812149;-0.020495999604463577;0.9896639585494995;0.2117919921875;-0.1512800008058548;1.132159948348999;0.16187500953674316;0.008750006556510925;0.24937501549720764
2063;0.0;0.0;0.0;0.20398399233818054;-0.15908800065517426;1.132159948348999;0.0;0.0;0.0
2065;0.0;0.0;0.0;0.21569599211215973;-0.12785600125789642;1.1282559633255005;0.0;0.0;0.0
2067;0.0;0.0;0.0;0.20788799226284027;-0.17470400035381317;1.1448479890823364;0.0;0.0;0.0
2069;0.0861319974064827;-0.019276000559329987;0.9894199967384338;0.2000799924135208;-0.14347200095653534;1.1370400190353394;0.02187500149011612;0.1443749964237213;0.24500000476837158
2071;0.0;0.0;0.0;0.1844639927148819;-0.15908800065517426;1.132159948348999;0.0;0.0;0.0
2073;0.0;0.0;0.0;0.19227199256420135;-0.16299200057983398;1.124351978302002;0.0;0.0;0.0
2075;0.0;0.0;0.0;0.19617599248886108;-0.17470400035381317;1.1526559591293335;0.0;0.0;0.0
2077;0.08417999744415283;-0.02000799961388111;0.9901520013809204;0.19617599248886108;-0.17470400035381317;1.156559944152832;0.02187500149011612;0.1443749964237213;0.3149999976158142
2080;0.0;0.0;0.0;0.19227199256420135;-0.1395680010318756;1.140944004058838;0.0;0.0;0.0
2082;0.0;0.0;0.0;0.1727519929409027;-0.14347200095653534;1.148751974105835;0.0;0.0;0.0
2084;0.0;0.0;0.0;0.18836799263954163;-0.1786080002784729;1.1448479890823364;0.0;0.0;0.0
2086;0.08515600115060806;-0.02025200054049492;0.9911279678344727;0.18055999279022217;-0.15908800065517426;1.1204479932785034;0.08749999850988388;0.1443749964237213;0.24500000476837158
2088;0.0;0.0;0.0;0.1844639927148819;-0.15518400073051453;1.1126400232315063;0.0;0.0;0.0
2090;0.0;0.0;0.0;0.2000799924135208;-0.17080000042915344;1.1448479890823364;0.0;0.0;0.0
2092;0.0;0.0;0.0;0.1844639927148819;-0.1512800008058548;1.132159948348999;0.0;0.0;0.0
2094;0.08515600115060806;-0.020739998668432236;0.9903959631919861;0.19617599248886108;-0.12004800140857697;1.148751974105835;0.08749999850988388;0.07437500357627869;0.24062500894069672
2097;0.0;0.0;0.0;0.19617599248886108;-0.15908800065517426;1.140944004058838;0.0;0.0;0.0
2099;0.0;0.0;0.0;0.19617599248886108;-0.16299200057983398;1.1448479890823364;0.0;0.0;0.0
2101;0.0;0.0;0.0;0.2000799924135208;-0.1512800008058548;1.132159948348999;0.0;0.0;0.0
2103;0.08588799834251404;-0.019763998687267303;0.9896639585494995;0.18055999279022217;-0.15518400073051453;1.1526559591293335;0.08749999850988388;0.004374995827674866;0.1706250160932541
2105;0.0;0.0;0.0;0.17665599286556244;-0.15518400073051453;1.1458239555358887;0.0;0.0;0.0
2107;0.0;0.0;0.0;0.2000799924135208;-0.1395680010318756;1.1380159854888916;0.0;0.0;0.0
2109;0.0;0.0;0.0;0.21569599211215973;-0.13566400110721588;1.1253279447555542;0.0;0.0;0.0
2111;0.08661999553442001;-0.019276000559329987;0.9886879920959473;0.18055999279022217;-0.16299200057983398;1.1419199705123901;0.08749999850988388;0.1443749964237213;0.31062501668930054
2114;0.0;0.0;0.0;0.1844639927148819;-0.1239520013332367;1.1175199747085571;0.0;0.0;0.0
2116;0.0;0.0;0.0;0.1844639927148819;-0.1668960005044937;1.1497279405593872;0.0;0.0;0.0
2118;0.0;0.0;0.0;0.20398399233818054;-0.14737600088119507;1.1458239555358887;0.0;0.0;0.0
2120;0.08466799557209015;-0.02025200054049492;0.9891759753227234;0.2000799924135208;-0.1395680010318756;1.1331360340118408;0.017499998211860657;0.21437498927116394;0.24062500894069672
2122;0.0;0.0;0.0;0.19617599248886108;-0.1395680010318756;1.1419199705123901;0.0;0.0;0.0
2124;0.0;0.0;0.0;0.1844639927148819;-0.14737600088119507;1.1419199705123901;0.0;0.0;0.0
2126;0.0;0.0;0.0;0.20788799226284027;-0.16299200057983398;1.1370400190353394;0.0;0.0;0.0
2128;0.0849120020866394;-0.02000799961388111;0.9901520013809204;0.2000799924135208;-0.15908800065517426;1.1497279405593872;0.017499998211860657;0.07437500357627869;0.23625001311302185
2131;0.0;0.0;0.0;0.1844639927148819;-0.1668960005044937;1.1253279447555542;0.0;0.0;0.0
2133;0.0;0.0;0.0;0.2000799924135208;-0.15518400073051453;1.1458239555358887;0.0;0.0;0.0
2135;0.0;0.0;0.0;0.19617599248886108;-0.13566400110721588;1.1253279447555542;0.0;0.0;0.0
2137;0.08540000021457672;-0.02025200054049492;0.9896639585494995;0.20788799226284027;-0.15518400073051453;1.1380159854888916;0.08749999850988388;0.07437500357627869;0.23625001311302185
2139;0.0;0.0;0.0;0.2000799924135208;-0.1512800008058548;1.156559944152832;0.0;0.0;0.0
2141;0.0;0.0;0.0;0.20398399233818054;-0.15518400073051453;1.148751974105835;0.0;0.0;0.0
2143;0.0;0.0;0.0;0.18055999279022217;-0.15518400073051453;1.1282559633255005;0.0;0.0;0.0
2145;0.08588799834251404;-0.02000799961388111;0.9884439706802368;0.19617599248886108;-0.15518400073051453;1.1370400190353394;0.08749999850988388;0.07000000774860382;0.23625001311302185
2148;0.0;0.0;0.0;0.2117919921875;-0.14737600088119507;1.1126400232315063;0.0;0.0;0.0
2150;0.0;0.0;0.0;0.19617599248886108;-0.15908800065517426;1.156559944152832;0.0;0.0;0.0
2152;0.0;0.0;0.0;0.18055999279022217;-0.12785600125789642;1.140944004058838;0.0;0.0;0.0
2154;0.08466799557209015;-0.020983999595046043;0.9896639585494995;0.1844639927148819;-0.17080000042915344;1.1282559633255005;0.08749999850988388;0.20999999344348907;0.23625001311302185
2156;0.0;0.0;0.0;0.22740799188613892;-0.1668960005044937;1.1126400232315063;0.0;0.0;0.0
2158;0.0;0.0;0.0;0.19227199256420135;-0.14347200095653534;1.1448479890823364;0.0;0.0;0.0
2160;0.0;0.0;0.0;0.1727519929409027;-0.17470400035381317;1.1526559591293335;0.0;0.0;0.0
2162;0.08369199931621552;-0.02122800052165985;0.9901520013809204;0.2235039919614792;-0.13566400110721588;1.148751974105835;0.017499998211860657;0.14000000059604645;0.2318750023841858
2165;0.0;0.0;0.0;0.20788799226284027;-0.15518400073051453;1.124351978302002;0.0;0.0;0.0
2167;0.0;0.0;0.0;0.19227199256420135;-0.15908800065517426;1.1448479890823364;0.0;0.0;0.0
2169;0.0;0.0;0.0;0.16884799301624298;-0.11224000155925751;1.1448479890823364;0.0;0.0;0.0
2171;0.08442399650812149;-0.019763998687267303;0.9896639585494995;0.18836799263954163;-0.14347200095653534;1.1370400190353394;0.017499998211860657;0.07000000774860382;0.16187500953674316
2173;0.0;0.0;0.0;0.1844639927148819;-0.15518400073051453;1.1448479890823364;0.0;0.0;0.0
2175;0.0;0.0;0.0;0.18836799263954163;-0.14737600088119507;1.1526559591293335;0.0;0.0;0.0
2177;0.0;0.0;0.0;0.19617599248886108;-0.17080000042915344;1.1526559591293335;0.0;0.0;0.0
2179;0.08442399650812149;-0.02025200054049492;0.9884439706802368;0.20788799226284027;-0.13566400110721588;1.1204479932785034;0.08749999850988388;0.14000000059604645;0.2318750023841858
2182;0.0;0.0;0.0;0.2000799924135208;-0.15908800065517426;1.148751974105835;0.0;0.0;0.0
2184;0.0;0.0;0.0;0.18836799263954163;-0.14347200095653534;1.1126400232315063;0.0;0.0;0.0
2186;0.0;0.0;0.0;0.19227199256420135;-0.13176000118255615;1.132159948348999;0.0;0.0;0.0
2188;0.08417999744415283;-0.02000799961388111;0.9891759753227234;0.20398399233818054;-0.15518400073051453;1.148751974105835;0.08749999850988388;0.14000000059604645;0.2318750023841858
2190;0.0;0.0;0.0;0.17665599286556244;-0.15518400073051453;1.140944004058838;0.0;0.0;0.0
2192;0.0;0.0;0.0;0.21569599211215973;-0.15908800065517426;1.1204479932785034;0.0;0.0;0.0
2194;0.0;0.0;0.0;0.20788799226284027;-0.14737600088119507;1.1448479890823364;0.0;0.0;0.0
2196;0.08417999744415283;-0.02000799961388111;0.9894199967384338;0.17665599286556244;-0.1668960005044937;1.148751974105835;0.08312499523162842;0.2056249976158142;0.22750002145767212
2199;0.0;0.0;0.0;0.18055999279022217;-0.13176000118255615;1.1692479848861694;0.0;0.0;0.0
2201;0.0;0.0;0.0;0.1844639927148819;-0.1395680010318756;1.1448479890823364;0.0;0.0;0.0
2203;0.0;0.0;0.0;0.1844639927148819;-0.14347200095653534;1.156559944152832;0.0;0.0;0.0
2205;0.08442399650812149;-0.020495999604463577;0.9901520013809204;0.18836799263954163;-0.15518400073051453;1.156559944152832;0.013124998658895493;0.13562500476837158;0.22750002145767212
2207;0.0;0.0;0.0;0.1844639927148819;-0.1668960005044937;1.140944004058838;0.0;0.0;0.0
2209;0.0;0.0;0.0;0.19617599248886108;-0.1395680010318756;1.156559944152832;0.0;0.0;0.0
2211;0.0;0.0;0.0;0.19227199256420135;-0.14347200095653534;1.1370400190353394;0.0;0.0;0.0
2213;0.08466799557209015;-0.02025200054049492;0.990884006023407;0.18836799263954163;-0.18251200020313263;1.1370400190353394;0.08312499523162842;-0.004374995827674866;0.22750002145767212
2216;0.0;0.0;0.0;0.18836799263954163;-0.15518400073051453;1.140944004058838;0.0;0.0;0.0
2218;0.0;0.0;0.0;0.19227199256420135;-0.17080000042915344;1.140944004058838;0.0;0.0;0.0
2220;0.0;0.0;0.0;0.19227199256420135;-0.14737600088119507;1.156559944152832;0.0;0.0;0.0
2222;0.08564399927854538;-0.020495999604463577;0.9889319539070129;0.18836799263954163;-0.14737600088119507;1.1614400148391724;0.013124998658895493;0.13562500476837158;0.22750002145767212
2224;0.0;0.0;0.0;0.19617599248886108;-0.16299200057983398;1.1370400190353394;0.0;0.0;0.0
2226;0.0;0.0;0.0;0.1844639927148819;-0.16299200057983398;1.1526559591293335;0.0;0.0;0.0
2228;0.0;0.0;0.0;0.2117919921875;-0.1668960005044937;1.140944004058838;0.0;0.0;0.0
2230;0.08466799557209015;-0.020495999604463577;0.9896639585494995;0.21569599211215973;-0.16299200057983398;1.1360639333724976;0.013124998658895493;0.2756250202655792;0.22312501072883606
2233;0.0;0.0;0.0;0.2000799924135208;-0.15518400073051453;1.132159948348999;0.0;0.0;0.0
2235;0.0;0.0;0.0;0.19617599248886108;-0.16299200057983398;1.140944004058838;0.0;0.0;0.0
2237;0.0;0.0;0.0;0.18836799263954163;-0.15908800065517426;1.1165440082550049;0.0;0.0;0.0
2239;0.0832040011882782;-0.020495999604463577;0.990884006023407;0.1844639927148819;-0.18641600012779236;1.1526559591293335;0.08312499523162842;0.06562501192092896;0.22312501072883606
2241;0.0;0.0;0.0;0.20398399233818054;-0.16299200057983398;1.1526559591293335;0.0;0.0;0.0
2243;0.0;0.0;0.0;0.21569599211215973;-0.15908800065517426;1.1526559591293335;0.0;0.0;0.0
2245;0.0;0.0;0.0;0.1844639927148819;-0.1668960005044937;1.1370400190353394;0.0;0.0;0.0
2247;0.08515600115060806;-0.02025200054049492;0.9894199967384338;0.2000799924135208;-0.1668960005044937;1.148751974105835;0.08312499523162842;0.06562501192092896;0.22312501072883606
2250;0.0;0.0;0.0;0.1727519929409027;-0.14347200095653534;1.132159948348999;0.0;0.0;0.0
2252;0.0;0.0;0.0;0.20788799226284027;-0.1512800008058548;1.140944004058838;0.0;0.0;0.0
2254;0.0;0.0;0.0;0.1844639927148819;-0.1786080002784729;1.1282559633255005;0.0;0.0;0.0
2256;0.08588799834251404;-0.02000799961388111;0.98990797996521;0.19227199256420135;-0.14737600088119507;1.140944004058838;0.013124998658895493;0.13124999403953552;0.22312501072883606
2258;0.0;0.0;0.0;0.20788799226284027;-0.15908800065517426;1.148751974105835;0.0;0.0;0.0
2260;0.0;0.0;0.0;0.2235039919614792;-0.18641600012779236;1.140944004058838;0.0;0.0;0.0
2262;0.0;0.0;0.0;0.2000799924135208;-0.14737600088119507;1.1282559633255005;0.0;0.0;0.0
2264;0.08540000021457672;-0.02025200054049492;0.9901520013809204;0.18055999279022217;-0.14347200095653534;1.1370400190353394;0.013124998658895493;0.20124998688697815;0.21875
2267;0.0;0.0;0.0;0.1844639927148819;-0.1512800008058548;1.1370400190353394;0.0;0.0;0.0
2269;0.0;0.0;0.0;0.19617599248886108;-0.1786080002784729;1.156559944152832;0.0;0.0;0.0
2271;0.0;0.0;0.0;0.2235039919614792;-0.1668960005044937;1.148751974105835;0.0;0.0;0.0
2273;0.08442399650812149;-0.02025200054049492;0.98990797996521;0.19617599248886108;-0.15518400073051453;1.1526559591293335;0.08312499523162842;0.13124999403953552;0.21875
2275;0.0;0.0;0.0;0.20398399233818054;-0.15908800065517426;1.156559944152832;0.0;0.0;0.0
2277;0.0;0.0;0.0;0.18836799263954163;-0.1512800008058548;1.1604639291763306;0.0;0.0;0.0
2279;0.0;0.0;0.0;0.19227199256420135;-0.14737600088119507;1.1370400190353394;0.0;0.0;0.0
2281;0.08564399927854538;-0.02000799961388111;0.9889319539070129;0.18836799263954163;-0.1395680010318756;1.156559944152832;0.08312499523162842;0.13124999403953552;0.21875
2284;0.0;0.0;0.0;0.2117919921875;-0.15908800065517426;1.140944004058838;0.0;0.0;0.0
2286;0.0;0.0;0.0;0.19617599248886108;-0.16299200057983398;1.132159948348999;0.0;0.0;0.0
2288;0.0;0.0;0.0;0.21959999203681946;-0.13176000118255615;1.1448479890823364;0.0;0.0;0.0
2290;0.08466799557209015;-0.019519999623298645;0.9882000088691711;0.2117919921875;-0.1512800008058548;1.148751974105835;0.08312499523162842;0.13124999403953552;0.21875
2292;0.0;0.0;0.0;0.20788799226284027;-0.17080000042915344;1.140944004058838;0.0;0.0;0.0
2294;0.0;0.0;0.0;0.19227199256420135;-0.13566400110721588;1.1282559633255005;0.0;0.0;0.0
2296;0.0;0.0;0.0;0.1844639927148819;-0.1512800008058548;1.124351978302002;0.0;0.0;0.0
2298;0.08515600115060806;-0.02000799961388111;0.9891759753227234;0.2000799924135208;-0.14737600088119507;1.1370400190353394;0.08312499523162842;0.13124999403953552;0.21437501907348633
2301;0.0;0.0;0.0;0.2117919921875;-0.1512800008058548;1.156559944152832;0.0;0.0;0.0
2303;0.0;0.0;0.0;0.18836799263954163;-0.1786080002784729;1.1614400148391724;0.0;0.0;0.0
2305;0.0;0.0;0.0;0.20398399233818054;-0.1668960005044937;1.132159948348999;0.0;0.0;0.0
2307;0.08417999744415283;-0.02025200054049492;0.9903959631919861;0.2000799924135208;-0.14737600088119507;1.140944004058838;0.013124998658895493;0.19687499105930328;0.21437501907348633
2309;0.0;0.0;0.0;0.19617599248886108;-0.14737600088119507;1.1360639333724976;0.0;0.0;0.0
2311;0.0;0.0;0.0;0.17665599286556244;-0.13566400110721588;1.148751974105835;0.0;0.0;0.0
2313;0.0;0.0;0.0;0.2235039919614792;-0.16299200057983398;1.124351978302002;0.0;0.0;0.0
2315;0.08393599838018417;-0.02000799961388111;0.990884006023407;0.20788799226284027;-0.15518400073051453;1.124351978302002;0.08312499523162842;0.05687500536441803;0.1443750262260437
2318;0.0;0.0;0.0;0.2117919921875;-0.1512800008058548;1.1604639291763306;0.0;0.0;0.0
2320;0.0;0.0;0.0;0.19227199256420135;-0.18251200020313263;1.1204479932785034;0.0;0.0;0.0
2322;0.0;0.0;0.0;0.19227199256420135;-0.16299200057983398;1.140944004058838;0.0;0.0;0.0
2324;0.08540000021457672;-0.019763998687267303;0.9896639585494995;0.18836799263954163;-0.14347200095653534;1.140944004058838;0.013124998658895493;0.12687499821186066;0.21437501907348633
2326;0.0;0.0;0.0;0.2117919921875;-0.15518400073051453;1.1370400190353394;0.0;0.0;0.0
2328;0.0;0.0;0.0;0.19617599248886108;-0.14347200095653534;1.148751974105835;0.0;0.0;0.0
2330;0.0;0.0;0.0;0.2000799924135208;-0.16299200057983398;1.1526559591293335;0.0;0.0;0.0
2332;0.08393599838018417;-0.019763998687267303;0.9894199967384338;0.1571359932422638;-0.14347200095653534;1.1448479890823364;0.013124998658895493;0.05687500536441803;0.21000000834465027
2335;0.0;0.0;0.0;0.2000799924135208;-0.15908800065517426;1.1370400190353394;0.0;0.0;0.0
2337;0.0;0.0;0.0;0.19227199256420135;-0.16299200057983398;1.1448479890823364;0.0;0.0;0.0
2339;0.0;0.0;0.0;0.19227199256420135;-0.13566400110721588;1.148751974105835;0.0;0.0;0.0
2341;0.08344800025224686;-0.02025200054049492;0.9903959631919861;0.19617599248886108;-0.1668960005044937;1.1448479890823364;0.013124998658895493;0.12687499821186066;0.21000000834465027
2343;0.0;0.0;0.0;0.18836799263954163;-0.16299200057983398;1.1448479890823364;0.0;0.0;0.0
2345;0.0;0.0;0.0;0.19227199256420135;-0.1668960005044937;1.1282559633255005;0.0;0.0;0.0
2347;0.0;0.0;0.0;0.19227199256420135;-0.15518400073051453;1.1204479932785034;0.0;0.0;0.0
2349;0.08466799557209015;-0.02025200054049492;0.9896639585494995;0.16494399309158325;-0.1786080002784729;1.140944004058838;0.08312499523162842;-0.013125002384185791;0.21000000834465027
