Timestamp(ms);LG-Accel x(g);LG-Accel y(g);LG-Accel z(g);HG-Accel x(g);HG-Accel y(g);HG-Accel z(g);Gyro x(dps);Gyro y(dps);Gyro z(dps)
80;0.0;0.0;0.0;0.20105600357055664;-0.15323199331760406;1.1477760076522827;0.0;0.0;0.0
83;0.0;0.0;0.0;0.17372798919677734;-0.14932799339294434;1.1350879669189453;0.0;0.0;0.0
85;0.0;0.0;0.0;0.17372798919677734;-0.1571359932422638;1.1516799926757812;0.0;0.0;0.0
87;0.0;0.0;0.0;0.2088640034198761;-0.1298079937696457;1.1233760118484497;0.0;0.0;0.0
89;0.0;0.0;0.0;0.18544000387191772;-0.16494399309158325;1.1594879627227783;0.0;0.0;0.0
91;0.0;0.0;0.0;0.2000799924135208;-0.17080000042915344;1.1370400190353394;0.0;0.0;0.0
93;0.0;0.0;0.0;0.19617599248886108;-0.14737600088119507;1.1448479890823364;0.0;0.0;0.0
95;0.0;0.0;0.0;0.19227199256420135;-0.1668960005044937;1.1526559591293335;0.0;0.0;0.0
98;0.08759599924087524;-0.01903199963271618;0.9889319539070129;0.2000799924135208;-0.14347200095653534;1.1448479890823364;0.0;0.0;0.0
100;0.0;0.0;0.0;0.21959999203681946;-0.14737600088119507;1.1448479890823364;0.0;0.0;0.0
102;0.0;0.0;0.0;0.19227199256420135;-0.1239520013332367;1.165343999862671;0.0;0.0;0.0
104;0.0;0.0;0.0;0.17665599286556244;-0.1512800008058548;1.132159948348999;0.0;0.0;0.0
106;0.08686399459838867;-0.018300000578165054;0.9901520013809204;0.19617599248886108;-0.17080000042915344;1.1526559591293335;0.0;0.0;0.0
108;0.0;0.0;0.0;0.2000799924135208;-0.1512800008058548;1.1360639333724976;0.0;0.0;0.0
110;0.0;0.0;0.0;0.2000799924135208;-0.15908800065517426;1.1370400190353394;0.0;0.0;0.0
112;0.0;0.0;0.0;0.1844639927148819;-0.15908800065517426;1.140944004058838;0.0;0.0;0.0
115;0.08759599924087524;-0.01903199963271618;0.9901520013809204;0.20788799226284027;-0.14347200095653534;1.132159948348999;0.0;0.0;0.0
117;0.0;0.0;0.0;0.2117919921875;-0.13176000118255615;1.140944004058838;0.0;0.0;0.0
119;0.0;0.0;0.0;0.18055999279022217;-0.1668960005044937;1.1282559633255005;0.0;0.0;0.0
121;0.0;0.0;0.0;0.19617599248886108;-0.15908800065517426;1.1448479890823364;0.0;0.0;0.0
123;0.08808399736881256;-0.01903199963271618;0.9894199967384338;0.19617599248886108;-0.15518400073051453;1.140944004058838;0.0;0.0;0.0
125;0.0;0.0;0.0;0.17665599286556244;-0.13176000118255615;1.1360639333724976;0.0;0.0;0.0
127;0.0;0.0;0.0;0.19227199256420135;-0.16299200057983398;1.1526559591293335;0.0;0.0;0.0
129;0.0;0.0;0.0;0.19617599248886108;-0.15518400073051453;1.1370400190353394;0.0;0.0;0.0
132;0.08661999553442001;-0.019276000559329987;0.9891759753227234;0.19617599248886108;-0.15908800065517426;1.140944004058838;0.0;0.0;0.0
134;0.0;0.0;0.0;0.18055999279022217;-0.17080000042915344;1.1360639333724976;0.0;0.0;0.0
136;0.0;0.0;0.0;0.19227199256420135;-0.14737600088119507;1.1448479890823364;0.0;0.0;0.0
138;0.0;0.0;0.0;0.22740799188613892;-0.16299200057983398;1.140944004058838;0.0;0.0;0.0
140;0.08857199549674988;-0.019519999623298645;0.9894199967384338;0.17665599286556244;-0.15908800065517426;1.1282559633255005;0.14000000059604645;0.2800000011920929;0.49000000953674316
142;0.0;0.0;0.0;0.18836799263954163;-0.13176000118255615;1.1448479890823364;0.0;0.0;0.0
144;0.0;0.0;0.0;0.1844639927148819;-0.18251200020313263;1.132159948348999;0.0;0.0;0.0
146;0.0;0.0;0.0;0.19617599248886108;-0.13566400110721588;1.1370400190353394;0.0;0.0;0.0
149;0.08686399459838867;-0.019519999623298645;0.98990797996521;0.19617599248886108;-0.15908800065517426;1.1448479890823364;0.07000000029802322;0.2800000011920929;0.49000000953674316
151;0.0;0.0;0.0;0.19227199256420135;-0.1512800008058548;1.1614400148391724;0.0;0.0;0.0
153;0.0;0.0;0.0;0.19227199256420135;-0.15518400073051453;1.140944004058838;0.0;0.0;0.0
155;0.0;0.0;0.0;0.20788799226284027;-0.17080000042915344;1.140944004058838;0.0;0.0;0.0
157;0.08710800111293793;-0.019276000559329987;0.9886879920959473;0.1844639927148819;-0.17470400035381317;1.1282559633255005;0.07000000029802322;0.21000000834465027;0.49000000953674316
159;0.0;0.0;0.0;0.19617599248886108;-0.15518400073051453;1.1282559633255005;0.0;0.0;0.0
161;0.0;0.0;0.0;0.16884799301624298;-0.1668960005044937;1.1370400190353394;0.0;0.0;0.0
163;0.0;0.0;0.0;0.18836799263954163;-0.15518400073051453;1.1370400190353394;0.0;0.0;0.0
166;0.08686399459838867;-0.01903199963271618;0.9882000088691711;0.18055999279022217;-0.1512800008058548;1.132159948348999;0.07000000029802322;0.2800000011920929;0.49000000953674316
168;0.0;0.0;0.0;0.19227199256420135;-0.14737600088119507;1.140944004058838;0.0;0.0;0.0
170;0.0;0.0;0.0;0.1727519929409027;-0.1395680010318756;1.140944004058838;0.0;0.0;0.0
172;0.0;0.0;0.0;0.18836799263954163;-0.12785600125789642;1.140944004058838;0.0;0.0;0.0
174;0.08588799834251404;-0.02000799961388111;0.9889319539070129;0.21959999203681946;-0.13176000118255615;1.148751974105835;0.14000000059604645;0.2800000011920929;0.49000000953674316
176;0.0;0.0;0.0;0.18055999279022217;-0.15908800065517426;1.1360639333724976;0.0;0.0;0.0
178;0.0;0.0;0.0;0.18836799263954163;-0.13566400110721588;1.1448479890823364;0.0;0.0;0.0
181;0.0;0.0;0.0;0.16494399309158325;-0.1512800008058548;1.1360639333724976;0.0;0.0;0.0
183;0.08808399736881256;-0.019276000559329987;0.9891759753227234;0.18836799263954163;-0.15908800065517426;1.1448479890823364;0.07000000029802322;0.2800000011920929;0.5600000023841858
185;0.0;0.0;0.0;0.20398399233818054;-0.14737600088119507;1.1448479890823364;0.0;0.0;0.0
187;0.0;0.0;0.0;0.2000799924135208;-0.1512800008058548;1.148751974105835;0.0;0.0;0.0
189;0.0;0.0;0.0;0.2000799924135208;-0.15908800065517426;1.1282559633255005;0.0;0.0;0.0
191;0.08710800111293793;-0.01903199963271618;0.9889319539070129;0.2000799924135208;-0.15908800065517426;1.1360639333724976;0.07000000029802322;0.2800000011920929;0.49000000953674316
193;0.0;0.0;0.0;0.1844639927148819;-0.1512800008058548;1.1614400148391724;0.0;0.0;0.0
195;0.0;0.0;0.0;0.20788799226284027;-0.13176000118255615;1.1526559591293335;0.0;0.0;0.0
198;0.0;0.0;0.0;0.19617599248886108;-0.15908800065517426;1.1526559591293335;0.0;0.0;0.0
200;0.08710800111293793;-0.018543999642133713;0.9886879920959473;0.1844639927148819;-0.16299200057983398;1.1526559591293335;0.14000000059604645;0.21000000834465027;0.49000000953674316
202;0.0;0.0;0.0;0.19617599248886108;-0.16299200057983398;1.1770559549331665;0.0;0.0;0.0
204;0.0;0.0;0.0;0.2000799924135208;-0.1668960005044937;1.132159948348999;0.0;0.0;0.0
206;0.0;0.0;0.0;0.20398399233818054;-0.15908800065517426;1.140944004058838;0.0;0.0;0.0
208;0.08710800111293793;-0.01878799870610237;0.9891759753227234;0.20788799226284027;-0.16299200057983398;1.1448479890823364;0.07000000029802322;0.2800000011920929;0.5600000023841858
210;0.0;0.0;0.0;0.18836799263954163;-0.17470400035381317;1.1448479890823364;0.0;0.0;0.0
212;0.0;0.0;0.0;0.19617599248886108;-0.16299200057983398;1.140944004058838;0.0;0.0;0.0
215;0.0;0.0;0.0;0.2000799924135208;-0.17080000042915344;1.140944004058838;0.0;0.0;0.0
217;0.08686399459838867;-0.019763998687267303;0.9901520013809204;0.1844639927148819;-0.1668960005044937;1.156559944152832;0.07000000029802322;0.2800000011920929;0.5600000023841858
219;0.0;0.0;0.0;0.19227199256420135;-0.14737600088119507;1.1360639333724976;0.0;0.0;0.0
221;0.0;0.0;0.0;0.18836799263954163;-0.15518400073051453;1.124351978302002;0.0;0.0;0.0
223;0.0;0.0;0.0;0.1844639927148819;-0.15908800065517426;1.124351978302002;0.0;0.0;0.0
225;0.08735200017690659;-0.01878799870610237;0.9889319539070129;0.20788799226284027;-0.15518400073051453;1.132159948348999;0.14000000059604645;0.21000000834465027;0.49000000953674316
227;0.0;0.0;0.0;0.1844639927148819;-0.16299200057983398;1.1380159854888916;0.0;0.0;0.0
229;0.0;0.0;0.0;0.18836799263954163;-0.1512800008058548;1.1175199747085571;0.0;0.0;0.0
232;0.0;0.0;0.0;0.19227199256420135;-0.1395680010318756;1.1419199705123901;0.0;0.0;0.0
234;0.08710800111293793;-0.019519999623298645;0.98990797996521;0.1844639927148819;-0.14737600088119507;1.1536319255828857;0.14000000059604645;0.3499999940395355;0.49000000953674316
236;0.0;0.0;0.0;0.1844639927148819;-0.1395680010318756;1.1497279405593872;0.0;0.0;0.0
238;0.0;0.0;0.0;0.20398399233818054;-0.15908800065517426;1.1380159854888916;0.0;0.0;0.0
240;0.0;0.0;0.0;0.20398399233818054;-0.17470400035381317;1.1331360340118408;0.0;0.0;0.0
242;0.08686399459838867;-0.019519999623298645;0.9894199967384338;0.21959999203681946;-0.16299200057983398;1.1497279405593872;0.14000000059604645;0.21000000834465027;0.49000000953674316
244;0.0;0.0;0.0;0.16884799301624298;-0.1512800008058548;1.1282559633255005;0.0;0.0;0.0
246;0.0;0.0;0.0;0.20398399233818054;-0.14737600088119507;1.1526559591293335;0.0;0.0;0.0
249;0.0;0.0;0.0;0.18055999279022217;-0.15908800065517426;1.140944004058838;0.0;0.0;0.0
251;0.08832799643278122;-0.018543999642133713;0.9877119660377502;0.19617599248886108;-0.1512800008058548;1.132159948348999;0.07000000029802322;0.2800000011920929;0.49000000953674316
253;0.0;0.0;0.0;0.18055999279022217;-0.15908800065517426;1.156559944152832;0.0;0.0;0.0
255;0.0;0.0;0.0;0.20398399233818054;-0.14737600088119507;1.148751974105835;0.0;0.0;0.0
257;0.0;0.0;0.0;0.20788799226284027;-0.13566400110721588;1.1448479890823364;0.0;0.0;0.0
259;0.08710800111293793;-0.019276000559329987;0.9894199967384338;0.18836799263954163;-0.14737600088119507;1.1526559591293335;0.07000000029802322;0.2800000011920929;0.49000000953674316
261;0.0;0.0;0.0;0.19617599248886108;-0.14347200095653534;1.1526559591293335;0.0;0.0;0.0
263;0.0;0.0;0.0;0.2000799924135208;-0.1512800008058548;1.124351978302002;0.0;0.0;0.0
266;0.0;0.0;0.0;0.16494399309158325;-0.15518400073051453;1.1370400190353394;0.0;0.0;0.0
268;0.0878399983048439;-0.019276000559329987;0.9884439706802368;0.2117919921875;-0.14347200095653534;1.1448479890823364;0.07000000029802322;0.2800000011920929;0.49000000953674316
270;0.0;0.0;0.0;0.21959999203681946;-0.1395680010318756;1.148751974105835;0.0;0.0;0.0
272;0.0;0.0;0.0;0.20398399233818054;-0.15518400073051453;1.1448479890823364;0.0;0.0;0.0
274;0.0;0.0;0.0;0.19617599248886108;-0.15908800065517426;1.140944004058838;0.0;0.0;0.0
276;0.0878399983048439;-0.01878799870610237;0.9874680042266846;0.21569599211215973;-0.1395680010318756;1.1448479890823364;0.14000000059604645;0.2800000011920929;0.49000000953674316
278;0.0;0.0;0.0;0.17665599286556244;-0.1395680010318756;1.124351978302002;0.0;0.0;0.0
280;0.0;0.0;0.0;0.19227199256420135;-0.13566400110721588;1.165343999862671;0.0;0.0;0.0
283;0.0;0.0;0.0;0.18055999279022217;-0.15908800065517426;1.1370400190353394;0.0;0.0;0.0
285;0.08735200017690659;-0.01903199963271618;0.9896639585494995;0.1844639927148819;-0.14347200095653534;1.132159948348999;0.07000000029802322;0.3499999940395355;0.5600000023841858
287;0.0;0.0;0.0;0.2117919921875;-0.15518400073051453;1.1370400190353394;0.0;0.0;0.0
289;0.0;0.0;0.0;0.20788799226284027;-0.15518400073051453;1.1370400190353394;0.0;0.0;0.0
291;0.0;0.0;0.0;0.21569599211215973;-0.13566400110721588;1.124351978302002;0.0;0.0;0.0
293;0.0861319974064827;-0.019519999623298645;0.9911279678344727;0.2117919921875;-0.1786080002784729;1.148751974105835;0.14000000059604645;0.2800000011920929;0.5600000023841858
295;0.0;0.0;0.0;0.20398399233818054;-0.16299200057983398;1.1331360340118408;0.0;0.0;0.0
297;0.0;0.0;0.0;0.19617599248886108;-0.15908800065517426;1.1536319255828857;0.0;0.0;0.0
300;0.0;0.0;0.0;0.19227199256420135;-0.1786080002784729;1.1380159854888916;0.0;0.0;0.0
302;0.08686399459838867;-0.019276000559329987;0.9886879920959473;0.19227199256420135;-0.14737600088119507;1.1292319297790527;0.14000000059604645;0.21000000834465027;0.49000000953674316
304;0.0;0.0;0.0;0.19227199256420135;-0.16299200057983398;1.1331360340118408;0.0;0.0;0.0
306;0.0;0.0;0.0;0.19617599248886108;-0.1668960005044937;1.1458239555358887;0.0;0.0;0.0
308;0.0;0.0;0.0;0.19617599248886108;-0.15908800065517426;1.1419199705123901;0.0;0.0;0.0
310;0.08710800111293793;-0.019519999623298645;0.9901520013809204;0.18836799263954163;-0.17470400035381317;1.1380159854888916;0.07000000029802322;0.2800000011920929;0.49000000953674316
313;0.0;0.0;0.0;0.18055999279022217;-0.14347200095653534;1.124351978302002;0.0;0.0;0.0
314;0.0;0.0;0.0;0.20788799226284027;-0.14737600088119507;1.148751974105835;0.0;0.0;0.0
317;0.0;0.0;0.0;0.19227199256420135;-0.15518400073051453;1.132159948348999;0.0;0.0;0.0
319;0.08710800111293793;-0.019276000559329987;0.9901520013809204;0.19617599248886108;-0.14737600088119507;1.148751974105835;0.07000000029802322;0.2800000011920929;0.49000000953674316
321;0.0;0.0;0.0;0.19617599248886108;-0.15908800065517426;1.132159948348999;0.0;0.0;0.0
323;0.0;0.0;0.0;0.21569599211215973;-0.1395680010318756;1.148751974105835;0.0;0.0;0.0
325;0.0;0.0;0.0;0.19617599248886108;-0.1512800008058548;1.1448479890823364;0.0;0.0;0.0
327;0.08735200017690659;-0.01903199963271618;0.9891759753227234;0.18836799263954163;-0.15518400073051453;1.1448479890823364;0.14000000059604645;0.21000000834465027;0.49000000953674316
330;0.0;0.0;0.0;0.1727519929409027;-0.1512800008058548;1.1331360340118408;0.0;0.0;0.0
331;0.0;0.0;0.0;0.18836799263954163;-0.14737600088119507;1.1536319255828857;0.0;0.0;0.0
334;0.0;0.0;0.0;0.22740799188613892;-0.15518400073051453;1.1458239555358887;0.0;0.0;0.0
336;0.0861319974064827;-0.02000799961388111;0.9911279678344727;0.1727519929409027;-0.18251200020313263;1.1575360298156738;0.14000000059604645;0.21000000834465027;0.49000000953674316
338;0.0;0.0;0.0;0.2000799924135208;-0.15518400073051453;1.1497279405593872;0.0;0.0;0.0
340;0.0;0.0;0.0;0.20788799226284027;-0.15908800065517426;1.1458239555358887;0.0;0.0;0.0
342;0.0;0.0;0.0;0.20398399233818054;-0.1395680010318756;1.1419199705123901;0.0;0.0;0.0
344;0.08832799643278122;-0.019276000559329987;0.9896639585494995;0.2117919921875;-0.1239520013332367;1.1458239555358887;0.14000000059604645;0.21000000834465027;0.49000000953674316
346;0.0;0.0;0.0;0.2235039919614792;-0.15518400073051453;1.140944004058838;0.0;0.0;0.0
349;0.0;0.0;0.0;0.16884799301624298;-0.14737600088119507;1.1448479890823364;0.0;0.0;0.0
351;0.0;0.0;0.0;0.19227199256420135;-0.17080000042915344;1.1448479890823364;0.0;0.0;0.0
353;0.08686399459838867;-0.019276000559329987;0.9889319539070129;0.2000799924135208;-0.14347200095653534;1.140944004058838;0.07000000029802322;0.3499999940395355;0.49000000953674316
355;0.0;0.0;0.0;0.19227199256420135;-0.14347200095653534;1.1526559591293335;0.0;0.0;0.0
357;0.0;0.0;0.0;0.2117919921875;-0.14737600088119507;1.1448479890823364;0.0;0.0;0.0
359;0.0;0.0;0.0;0.19617599248886108;-0.14737600088119507;1.1526559591293335;0.0;0.0;0.0
361;0.08735200017690659;-0.019763998687267303;0.9884439706802368;0.19617599248886108;-0.15518400073051453;1.140944004058838;0.14000000059604645;0.21000000834465027;0.49000000953674316
364;0.0;0.0;0.0;0.1844639927148819;-0.1668960005044937;1.124351978302002;0.0;0.0;0.0
366;0.0;0.0;0.0;0.21959999203681946;-0.15908800065517426;1.1116639375686646;0.0;0.0;0.0
368;0.0;0.0;0.0;0.2000799924135208;-0.1668960005044937;1.1526559591293335;0.0;0.0;0.0
370;0.08710800111293793;-0.01903199963271618;0.9884439706802368;0.20788799226284027;-0.1512800008058548;1.1448479890823364;0.07000000029802322;0.2800000011920929;0.49000000953674316
372;0.0;0.0;0.0;0.20788799226284027;-0.15518400073051453;1.148751974105835;0.0;0.0;0.0
374;0.0;0.0;0.0;0.2000799924135208;-0.1786080002784729;1.165343999862671;0.0;0.0;0.0
376;0.0;0.0;0.0;0.19227199256420135;-0.15518400073051453;1.132159948348999;0.0;0.0;0.0
378;0.08661999553442001;-0.019276000559329987;0.9891759753227234;0.17665599286556244;-0.1512800008058548;1.148751974105835;0.07000000029802322;0.2800000011920929;0.42000001668930054
380;0.0;0.0;0.0;0.17665599286556244;-0.15908800065517426;1.1448479890823364;0.0;0.0;0.0
383;0.0;0.0;0.0;0.2117919921875;-0.14347200095653534;1.140944004058838;0.0;0.0;0.0
385;0.0;0.0;0.0;0.20788799226284027;-0.1395680010318756;1.1526559591293335;0.0;0.0;0.0
387;0.08735200017690659;-0.01903199963271618;0.9886879920959473;0.19227199256420135;-0.1512800008058548;1.1526559591293335;0.14000000059604645;0.3499999940395355;0.49000000953674316
389;0.0;0.0;0.0;0.18836799263954163;-0.14737600088119507;1.132159948348999;0.0;0.0;0.0
391;0.0;0.0;0.0;0.19617599248886108;-0.15518400073051453;1.1370400190353394;0.0;0.0;0.0
393;0.0;0.0;0.0;0.2117919921875;-0.17470400035381317;1.140944004058838;0.0;0.0;0.0
395;0.08686399459838867;-0.01878799870610237;0.9906399846076965;0.18836799263954163;-0.13566400110721588;1.1604639291763306;0.14000000059604645;0.2800000011920929;0.49000000953674316
398;0.0;0.0;0.0;0.2000799924135208;-0.1786080002784729;1.1458239555358887;0.0;0.0;0.0
400;0.0;0.0;0.0;0.20398399233818054;-0.1512800008058548;1.1458239555358887;0.0;0.0;0.0
402;0.0;0.0;0.0;0.2235039919614792;-0.1668960005044937;1.1458239555358887;0.0;0.0;0.0
404;0.08686399459838867;-0.019276000559329987;0.9901520013809204;0.18055999279022217;-0.13566400110721588;1.1380159854888916;0.14000000059604645;0.2800000011920929;0.49000000953674316
406;0.0;0.0;0.0;0.1844639927148819;-0.1395680010318756;1.1458239555358887;0.0;0.0;0.0
408;0.0;0.0;0.0;0.19617599248886108;-0.17470400035381317;1.1536319255828857;0.0;0.0;0.0
410;0.0;0.0;0.0;0.18836799263954163;-0.13566400110721588;1.1253279447555542;0.0;0.0;0.0
412;0.08759599924087524;-0.01903199963271618;0.9884439706802368;0.2000799924135208;-0.13176000118255615;1.1370400190353394;0.07000000029802322;0.2800000011920929;0.49000000953674316
415;0.0;0.0;0.0;0.19227199256420135;-0.14737600088119507;1.156559944152832;0.0;0.0;0.0
417;0.0;0.0;0.0;0.17665599286556244;-0.14347200095653534;1.1448479890823364;0.0;0.0;0.0
419;0.0;0.0;0.0;0.18836799263954163;-0.12004800140857697;1.140944004058838;0.0;0.0;0.0
421;0.08686399459838867;-0.019276000559329987;0.9891759753227234;0.19227199256420135;-0.1512800008058548;1.140944004058838;0.07000000029802322;0.2800000011920929;0.49000000953674316
423;0.0;0.0;0.0;0.19617599248886108;-0.18251200020313263;1.148751974105835;0.0;0.0;0.0
425;0.0;0.0;0.0;0.18836799263954163;-0.1512800008058548;1.1282559633255005;0.0;0.0;0.0
427;0.0;0.0;0.0;0.1844639927148819;-0.17080000042915344;1.1448479890823364;0.0;0.0;0.0
429;0.08808399736881256;-0.019519999623298645;0.9896639585494995;0.19227199256420135;-0.1903200000524521;1.1282559633255005;0.14000000059604645;0.21000000834465027;0.49000000953674316
432;0.0;0.0;0.0;0.19227199256420135;-0.14347200095653534;1.1458239555358887;0.0;0.0;0.0
434;0.0;0.0;0.0;0.18836799263954163;-0.17080000042915344;1.1536319255828857;0.0;0.0;0.0
436;0.0;0.0;0.0;0.20398399233818054;-0.16299200057983398;1.1380159854888916;0.0;0.0;0.0
438;0.08759599924087524;-0.019276000559329987;0.9891759753227234;0.19617599248886108;-0.1668960005044937;1.1380159854888916;0.07000000029802322;0.2800000011920929;0.49000000953674316
440;0.0;0.0;0.0;0.2117919921875;-0.14737600088119507;1.1458239555358887;0.0;0.0;0.0
442;0.0;0.0;0.0;0.1844639927148819;-0.1395680010318756;1.1819360256195068;0.0;0.0;0.0
444;0.0;0.0;0.0;0.21959999203681946;-0.14737600088119507;1.1331360340118408;0.0;0.0;0.0
446;0.08710800111293793;-0.019763998687267303;0.9906399846076965;0.19617599248886108;-0.13176000118255615;1.1214239597320557;0.07000000029802322;0.3499999940395355;0.5600000023841858
449;0.0;0.0;0.0;0.1727519929409027;-0.12785600125789642;1.1536319255828857;0.0;0.0;0.0
451;0.0;0.0;0.0;0.18836799263954163;-0.1512800008058548;1.1458239555358887;0.0;0.0;0.0
453;0.0;0.0;0.0;0.20788799226284027;-0.15518400073051453;1.1253279447555542;0.0;0.0;0.0
455;0.08686399459838867;-0.01878799870610237;0.9903959631919861;0.20788799226284027;-0.1668960005044937;1.1458239555358887;0.14000000059604645;0.2800000011920929;0.49000000953674316
457;0.0;0.0;0.0;0.18055999279022217;-0.15908800065517426;1.1536319255828857;0.0;0.0;0.0
459;0.0;0.0;0.0;0.21569599211215973;-0.17470400035381317;1.1419199705123901;0.0;0.0;0.0
461;0.0;0.0;0.0;0.18836799263954163;-0.1668960005044937;1.1536319255828857;0.0;0.0;0.0
463;0.08832799643278122;-0.018300000578165054;0.9891759753227234;0.19617599248886108;-0.15908800065517426;1.1253279447555542;0.14000000059604645;0.2800000011920929;0.42000001668930054
466;0.0;0.0;0.0;0.19227199256420135;-0.13566400110721588;1.1526559591293335;0.0;0.0;0.0
468;0.0;0.0;0.0;0.19227199256420135;-0.1395680010318756;1.1526559591293335;0.0;0.0;0.0
470;0.0;0.0;0.0;0.1844639927148819;-0.14347200095653534;1.1604639291763306;0.0;0.0;0.0
472;0.08686399459838867;-0.01878799870610237;0.9894199967384338;0.19617599248886108;-0.1668960005044937;1.1604639291763306;0.14000000059604645;0.2800000011920929;0.49000000953674316
474;0.0;0.0;0.0;0.19227199256420135;-0.14347200095653534;1.1448479890823364;0.0;0.0;0.0
476;0.0;0.0;0.0;0.19227199256420135;-0.1512800008058548;1.1526559591293335;0.0;0.0;0.0
478;0.0;0.0;0.0;0.20398399233818054;-0.15518400073051453;1.156559944152832;0.0;0.0;0.0
480;0.08686399459838867;-0.019276000559329987;0.9891759753227234;0.20398399233818054;-0.15518400073051453;1.1370400190353394;0.07000000029802322;0.2800000011920929;0.49000000953674316
483;0.0;0.0;0.0;0.20398399233818054;-0.14737600088119507;1.1360639333724976;0.0;0.0;0.0
485;0.0;0.0;0.0;0.19227199256420135;-0.17080000042915344;1.1526559591293335;0.0;0.0;0.0
487;0.0;0.0;0.0;0.2000799924135208;-0.15518400073051453;1.132159948348999;0.0;0.0;0.0
489;0.08759599924087524;-0.02000799961388111;0.9891759753227234;0.20398399233818054;-0.14737600088119507;1.124351978302002;0.14000000059604645;0.3499999940395355;0.49000000953674316
491;0.0;0.0;0.0;0.2117919921875;-0.13176000118255615;1.1448479890823364;0.0;0.0;0.0
493;0.0;0.0;0.0;0.17665599286556244;-0.14347200095653534;1.140944004058838;0.0;0.0;0.0
495;0.0;0.0;0.0;0.19617599248886108;-0.14347200095653534;1.124351978302002;0.0;0.0;0.0
497;0.08759599924087524;-0.019276000559329987;0.9884439706802368;0.19617599248886108;-0.14737600088119507;1.1448479890823364;0.14000000059604645;0.21000000834465027;0.49000000953674316
500;0.0;0.0;0.0;0.19617599248886108;-0.15518400073051453;1.1292319297790527;0.0;0.0;0.0
502;0.0;0.0;0.0;0.18836799263954163;-0.1395680010318756;1.1575360298156738;0.0;0.0;0.0
504;0.0;0.0;0.0;0.18055999279022217;-0.15518400073051453;1.1419199705123901;0.0;0.0;0.0
506;0.08832799643278122;-0.019276000559329987;0.9884439706802368;0.2000799924135208;-0.14737600088119507;1.1536319255828857;0.07000000029802322;0.2800000011920929;0.5600000023841858
508;0.0;0.0;0.0;0.18055999279022217;-0.1668960005044937;1.1458239555358887;0.0;0.0;0.0
510;0.0;0.0;0.0;0.21569599211215973;-0.14737600088119507;1.1292319297790527;0.0;0.0;0.0
512;0.0;0.0;0.0;0.20398399233818054;-0.14347200095653534;1.1331360340118408;0.0;0.0;0.0
514;0.08661999553442001;-0.02000799961388111;0.9906399846076965;0.2000799924135208;-0.17470400035381317;1.1458239555358887;0.14000000059604645;0.2800000011920929;0.5600000023841858
517;0.0;0.0;0.0;0.18836799263954163;-0.14347200095653534;1.1331360340118408;0.0;0.0;0.0
519;0.0;0.0;0.0;0.20788799226284027;-0.15518400073051453;1.1497279405593872;0.0;0.0;0.0
521;0.0;0.0;0.0;0.2000799924135208;-0.15908800065517426;1.1380159854888916;0.0;0.0;0.0
523;0.08759599924087524;-0.019763998687267303;0.9894199967384338;0.19617599248886108;-0.15908800065517426;1.1292319297790527;0.14000000059604645;0.2800000011920929;0.49000000953674316
525;0.0;0.0;0.0;0.18836799263954163;-0.14347200095653534;1.1380159854888916;0.0;0.0;0.0
527;0.0;0.0;0.0;0.18055999279022217;-0.16299200057983398;1.1419199705123901;0.0;0.0;0.0
529;0.0;0.0;0.0;0.18055999279022217;-0.16299200057983398;1.1536319255828857;0.0;0.0;0.0
531;0.08686399459838867;-0.01878799870610237;0.9896639585494995;0.19617599248886108;-0.1512800008058548;1.1331360340118408;0.14000000059604645;0.2800000011920929;0.42000001668930054
534;0.0;0.0;0.0;0.18055999279022217;-0.17470400035381317;1.1575360298156738;0.0;0.0;0.0
536;0.0;0.0;0.0;0.1844639927148819;-0.14347200095653534;1.1458239555358887;0.0;0.0;0.0
538;0.0;0.0;0.0;0.20398399233818054;-0.15518400073051453;1.1419199705123901;0.0;0.0;0.0
540;0.0878399983048439;-0.018300000578165054;0.98990797996521;0.16103999316692352;-0.16299200057983398;1.1458239555358887;0.07000000029802322;0.21000000834465027;0.49000000953674316
542;0.0;0.0;0.0;0.20788799226284027;-0.1395680010318756;1.1497279405593872;0.0;0.0;0.0
544;0.0;0.0;0.0;0.19617599248886108;-0.14347200095653534;1.1497279405593872;0.0;0.0;0.0
546;0.0;0.0;0.0;0.20398399233818054;-0.13176000118255615;1.1419199705123901;0.0;0.0;0.0
548;0.08735200017690659;-0.01878799870610237;0.9891759753227234;0.20788799226284027;-0.1512800008058548;1.1458239555358887;0.07000000029802322;0.2800000011920929;0.49000000953674316
551;0.0;0.0;0.0;0.1727519929409027;-0.14737600088119507;1.1419199705123901;0.0;0.0;0.0
553;0.0;0.0;0.0;0.1727519929409027;-0.15518400073051453;1.1497279405593872;0.0;0.0;0.0
555;0.0;0.0;0.0;0.20788799226284027;-0.16299200057983398;1.1419199705123901;0.0;0.0;0.0
557;0.0861319974064827;-0.019519999623298645;0.9901520013809204;0.20398399233818054;-0.1512800008058548;1.1536319255828857;0.07000000029802322;0.2800000011920929;0.49000000953674316
559;0.0;0.0;0.0;0.19227199256420135;-0.15908800065517426;1.1419199705123901;0.0;0.0;0.0
561;0.0;0.0;0.0;0.2000799924135208;-0.14347200095653534;1.1331360340118408;0.0;0.0;0.0
563;0.0;0.0;0.0;0.1844639927148819;-0.14737600088119507;1.1458239555358887;0.0;0.0;0.0
565;0.08710800111293793;-0.019276000559329987;0.9886879920959473;0.2000799924135208;-0.14737600088119507;1.1419199705123901;0.07000000029802322;0.2800000011920929;0.49000000953674316
568;0.0;0.0;0.0;0.18055999279022217;-0.15908800065517426;1.1497279405593872;0.0;0.0;0.0
570;0.0;0.0;0.0;0.2117919921875;-0.1668960005044937;1.1292319297790527;0.0;0.0;0.0
572;0.0;0.0;0.0;0.20788799226284027;-0.13176000118255615;1.1536319255828857;0.0;0.0;0.0
574;0.08686399459838867;-0.01878799870610237;0.9891759753227234;0.18836799263954163;-0.16299200057983398;1.1380159854888916;0.07000000029802322;0.2800000011920929;0.49000000953674316
576;0.0;0.0;0.0;0.16884799301624298;-0.16299200057983398;1.1331360340118408;0.0;0.0;0.0
578;0.0;0.0;0.0;0.1844639927148819;-0.14347200095653534;1.1331360340118408;0.0;0.0;0.0
580;0.0;0.0;0.0;0.20398399233818054;-0.1668960005044937;1.1292319297790527;0.0;0.0;0.0
582;0.08710800111293793;-0.02000799961388111;0.9891759753227234;0.18836799263954163;-0.14347200095653534;1.1624159812927246;0.14000000059604645;0.3499999940395355;0.49000000953674316
585;0.0;0.0;0.0;0.2117919921875;-0.12785600125789642;1.1370400190353394;0.0;0.0;0.0
587;0.0;0.0;0.0;0.2000799924135208;-0.1668960005044937;1.1536319255828857;0.0;0.0;0.0
589;0.0;0.0;0.0;0.19227199256420135;-0.1668960005044937;1.1419199705123901;0.0;0.0;0.0
591;0.08759599924087524;-0.019276000559329987;0.9891759753227234;0.1844639927148819;-0.13176000118255615;1.1419199705123901;0.14000000059604645;0.2800000011920929;0.49000000953674316
593;0.0;0.0;0.0;0.20788799226284027;-0.16299200057983398;1.1292319297790527;0.0;0.0;0.0
595;0.0;0.0;0.0;0.20788799226284027;-0.1395680010318756;1.1575360298156738;0.0;0.0;0.0
597;0.0;0.0;0.0;0.2000799924135208;-0.17470400035381317;1.1497279405593872;0.0;0.0;0.0
599;0.08661999553442001;-0.019276000559329987;0.98990797996521;0.20788799226284027;-0.13566400110721588;1.1419199705123901;0.07000000029802322;0.21000000834465027;0.49000000953674316
602;0.0;0.0;0.0;0.18055999279022217;-0.14347200095653534;1.1448479890823364;0.0;0.0;0.0
604;0.0;0.0;0.0;0.2000799924135208;-0.16299200057983398;1.148751974105835;0.0;0.0;0.0
606;0.0;0.0;0.0;0.2000799924135208;-0.14737600088119507;1.1282559633255005;0.0;0.0;0.0
608;0.08735200017690659;-0.01878799870610237;0.9891759753227234;0.19227199256420135;-0.1512800008058548;1.1360639333724976;0.14000000059604645;0.21000000834465027;0.49000000953674316
610;0.0;0.0;0.0;0.20788799226284027;-0.1512800008058548;1.132159948348999;0.0;0.0;0.0
612;0.0;0.0;0.0;0.19227199256420135;-0.16299200057983398;1.148751974105835;0.0;0.0;0.0
614;0.0;0.0;0.0;0.21569599211215973;-0.1512800008058548;1.1282559633255005;0.0;0.0;0.0
616;0.08710800111293793;-0.018543999642133713;0.9877119660377502;0.21569599211215973;-0.14347200095653534;1.1526559591293335;0.07000000029802322;0.21000000834465027;0.49000000953674316
619;0.0;0.0;0.0;0.19227199256420135;-0.1512800008058548;1.1419199705123901;0.0;0.0;0.0
621;0.0;0.0;0.0;0.1727519929409027;-0.13176000118255615;1.1575360298156738;0.0;0.0;0.0
623;0.0;0.0;0.0;0.2000799924135208;-0.16299200057983398;1.1497279405593872;0.0;0.0;0.0
625;0.08710800111293793;-0.019276000559329987;0.9889319539070129;0.18836799263954163;-0.1512800008058548;1.1497279405593872;0.07000000029802322;0.21000000834465027;0.49000000953674316
627;0.0;0.0;0.0;0.20398399233818054;-0.1512800008058548;1.1536319255828857;0.0;0.0;0.0
629;0.0;0.0;0.0;0.19227199256420135;-0.14347200095653534;1.1614400148391724;0.0;0.0;0.0
631;0.0;0.0;0.0;0.2117919921875;-0.16299200057983398;1.1292319297790527;0.0;0.0;0.0
633;0.08686399459838867;-0.02000799961388111;0.9886879920959473;0.21569599211215973;-0.1512800008058548;1.1458239555358887;0.07000000029802322;0.21000000834465027;0.5600000023841858
636;0.0;0.0;0.0;0.20398399233818054;-0.14737600088119507;1.148751974105835;0.0;0.0;0.0
638;0.0;0.0;0.0;0.1844639927148819;-0.1668960005044937;1.1282559633255005;0.0;0.0;0.0
640;0.0;0.0;0.0;0.16884799301624298;-0.13566400110721588;1.1604639291763306;0.0;0.0;0.0
642;0.08759599924087524;-0.01903199963271618;0.9896639585494995;0.1844639927148819;-0.16299200057983398;1.148751974105835;0.07000000029802322;0.2800000011920929;0.49000000953674316
644;0.0;0.0;0.0;0.20788799226284027;-0.17470400035381317;1.1282559633255005;0.0;0.0;0.0
646;0.0;0.0;0.0;0.1844639927148819;-0.16299200057983398;1.140944004058838;0.0;0.0;0.0
648;0.0;0.0;0.0;0.17665599286556244;-0.1512800008058548;1.1448479890823364;0.0;0.0;0.0
650;0.08735200017690659;-0.018543999642133713;0.98990797996521;0.2117919921875;-0.14737600088119507;1.1370400190353394;0.14000000059604645;0.2800000011920929;0.49000000953674316
653;0.0;0.0;0.0;0.19227199256420135;-0.12785600125789642;1.1253279447555542;0.0;0.0;0.0
655;0.0;0.0;0.0;0.18836799263954163;-0.14347200095653534;1.1292319297790527;0.0;0.0;0.0
657;0.0;0.0;0.0;0.17665599286556244;-0.15908800065517426;1.1380159854888916;0.0;0.0;0.0
659;0.08710800111293793;-0.019276000559329987;0.9906399846076965;0.1727519929409027;-0.1512800008058548;1.1253279447555542;0.07000000029802322;0.3499999940395355;0.5600000023841858
661;0.0;0.0;0.0;0.18836799263954163;-0.15518400073051453;1.1497279405593872;0.0;0.0;0.0
663;0.0;0.0;0.0;0.19227199256420135;-0.14347200095653534;1.1292319297790527;0.0;0.0;0.0
665;0.0;0.0;0.0;0.2235039919614792;-0.1395680010318756;1.1292319297790527;0.0;0.0;0.0
667;0.08735200017690659;-0.02000799961388111;0.9891759753227234;0.20788799226284027;-0.15518400073051453;1.1575360298156738;0.14000000059604645;0.3499999940395355;0.49000000953674316
670;0.0;0.0;0.0;0.20788799226284027;-0.14347200095653534;1.1458239555358887;0.0;0.0;0.0
672;0.0;0.0;0.0;0.20398399233818054;-0.1512800008058548;1.1497279405593872;0.0;0.0;0.0
674;0.0;0.0;0.0;0.19227199256420135;-0.14737600088119507;1.1536319255828857;0.0;0.0;0.0
676;0.08686399459838867;-0.019519999623298645;0.9894199967384338;0.19617599248886108;-0.15908800065517426;1.1292319297790527;0.14000000059604645;0.2800000011920929;0.49000000953674316
678;0.0;0.0;0.0;0.2000799924135208;-0.14347200095653534;1.1419199705123901;0.0;0.0;0.0
680;0.0;0.0;0.0;0.18055999279022217;-0.1239520013332367;1.1458239555358887;0.0;0.0;0.0
682;0.0;0.0;0.0;0.21569599211215973;-0.15908800065517426;1.1331360340118408;0.0;0.0;0.0
685;0.0878399983048439;-0.018543999642133713;0.9884439706802368;0.18055999279022217;-0.15908800065517426;1.1458239555358887;0.14000000059604645;0.21000000834465027;0.5600000023841858
687;0.0;0.0;0.0;0.2000799924135208;-0.1512800008058548;1.1370400190353394;0.0;0.0;0.0
689;0.0;0.0;0.0;0.1727519929409027;-0.17080000042915344;1.1419199705123901;0.0;0.0;0.0
691;0.0;0.0;0.0;0.1844639927148819;-0.14347200095653534;1.1253279447555542;0.0;0.0;0.0
693;0.08759599924087524;-0.018055999651551247;0.9891759753227234;0.20398399233818054;-0.13176000118255615;1.1331360340118408;0.07000000029802322;0.3499999940395355;0.49000000953674316
695;0.0;0.0;0.0;0.18836799263954163;-0.15518400073051453;1.1536319255828857;0.0;0.0;0.0
697;0.0;0.0;0.0;0.18836799263954163;-0.16299200057983398;1.1214239597320557;0.0;0.0;0.0
699;0.0;0.0;0.0;0.21959999203681946;-0.15908800065517426;1.1126400232315063;0.0;0.0;0.0
702;0.08637599647045135;-0.019519999623298645;0.9906399846076965;0.20398399233818054;-0.15908800065517426;1.1292319297790527;0.07000000029802322;0.3499999940395355;0.49000000953674316
704;0.0;0.0;0.0;0.20398399233818054;-0.15518400073051453;1.1497279405593872;0.0;0.0;0.0
706;0.0;0.0;0.0;0.18055999279022217;-0.14347200095653534;1.1419199705123901;0.0;0.0;0.0
708;0.0;0.0;0.0;0.20398399233818054;-0.17080000042915344;1.1536319255828857;0.0;0.0;0.0
710;0.08808399736881256;-0.019276000559329987;0.9896639585494995;0.2117919921875;-0.13566400110721588;1.1419199705123901;0.07000000029802322;0.21000000834465027;0.49000000953674316
712;0.0;0.0;0.0;0.18055999279022217;-0.15518400073051453;1.1536319255828857;0.0;0.0;0.0
714;0.0;0.0;0.0;0.21569599211215973;-0.17080000042915344;1.1292319297790527;0.0;0.0;0.0
716;0.0;0.0;0.0;0.19227199256420135;-0.1395680010318756;1.1458239555358887;0.0;0.0;0.0
719;0.08832799643278122;-0.02000799961388111;0.9886879920959473;0.22740799188613892;-0.1786080002784729;1.1380159854888916;0.14000000059604645;0.21000000834465027;0.49000000953674316
721;0.0;0.0;0.0;0.20398399233818054;-0.14347200095653534;1.1419199705123901;0.0;0.0;0.0
723;0.0;0.0;0.0;0.18055999279022217;-0.1668960005044937;1.1536319255828857;0.0;0.0;0.0
725;0.0;0.0;0.0;0.19617599248886108;-0.1395680010318756;1.1536319255828857;0.0;0.0;0.0
727;0.0878399983048439;-0.018543999642133713;0.9894199967384338;0.19227199256420135;-0.13566400110721588;1.1175199747085571;0.07000000029802322;0.2800000011920929;0.49000000953674316
729;0.0;0.0;0.0;0.19617599248886108;-0.11614400148391724;1.1458239555358887;0.0;0.0;0.0
731;0.0;0.0;0.0;0.20398399233818054;-0.1512800008058548;1.1497279405593872;0.0;0.0;0.0
733;0.0;0.0;0.0;0.18836799263954163;-0.1668960005044937;1.1292319297790527;0.0;0.0;0.0
736;0.08808399736881256;-0.019276000559329987;0.9886879920959473;0.18836799263954163;-0.14347200095653534;1.1419199705123901;0.07000000029802322;0.2800000011920929;0.49000000953674316
738;0.0;0.0;0.0;0.20788799226284027;-0.1786080002784729;1.1458239555358887;0.0;0.0;0.0
740;0.0;0.0;0.0;0.18836799263954163;-0.1668960005044937;1.1575360298156738;0.0;0.0;0.0
742;0.0;0.0;0.0;0.2000799924135208;-0.15518400073051453;1.1497279405593872;0.0;0.0;0.0
744;0.08661999553442001;-0.019276000559329987;0.9891759753227234;0.2000799924135208;-0.15518400073051453;1.1497279405593872;0.07000000029802322;0.3499999940395355;0.49000000953674316
746;0.0;0.0;0.0;0.17665599286556244;-0.16299200057983398;1.1458239555358887;0.0;0.0;0.0
748;0.0;0.0;0.0;0.20788799226284027;-0.15908800065517426;1.1458239555358887;0.0;0.0;0.0
750;0.0;0.0;0.0;0.1727519929409027;-0.16299200057983398;1.1253279447555542;0.0;0.0;0.0
753;0.0861319974064827;-0.019763998687267303;0.9901520013809204;0.2117919921875;-0.1786080002784729;1.1419199705123901;0.07000000029802322;0.2800000011920929;0.49000000953674316
755;0.0;0.0;0.0;0.20398399233818054;-0.14737600088119507;1.1380159854888916;0.0;0.0;0.0
757;0.0;0.0;0.0;0.20398399233818054;-0.1512800008058548;1.1458239555358887;0.0;0.0;0.0
759;0.0;0.0;0.0;0.19227199256420135;-0.12785600125789642;1.1624159812927246;0.0;0.0;0.0
761;0.08759599924087524;-0.019276000559329987;0.98990797996521;0.21959999203681946;-0.15908800065517426;1.1458239555358887;0.07000000029802322;0.2800000011920929;0.5600000023841858
763;0.0;0.0;0.0;0.18836799263954163;-0.17080000042915344;1.1380159854888916;0.0;0.0;0.0
765;0.0;0.0;0.0;0.2000799924135208;-0.1668960005044937;1.1575360298156738;0.0;0.0;0.0
767;0.0;0.0;0.0;0.2117919921875;-0.16299200057983398;1.1458239555358887;0.0;0.0;0.0
770;0.08661999553442001;-0.019276000559329987;0.98990797996521;0.20398399233818054;-0.1512800008058548;1.1380159854888916;0.07000000029802322;0.3499999940395355;0.49000000953674316
772;0.0;0.0;0.0;0.2030079960823059;-0.14640000462532043;1.1497279405593872;0.0;0.0;0.0
774;0.0;0.0;0.0;0.19519999623298645;-0.1424959897994995;1.1292319297790527;0.0;0.0;0.0
776;0.0;0.0;0.0;0.19910399615764618;-0.1698240041732788;1.1419199705123901;0.0;0.0;0.0
778;0.08661999553442001;-0.01903199963271618;0.98990797996521;0.18348799645900726;-0.14640000462532043;1.1458239555358887;0.07000000029802322;0.2800000011920929;0.49000000953674316
780;0.0;0.0;0.0;0.18348799645900726;-0.15030398964881897;1.1380159854888916;0.0;0.0;0.0
782;0.0;0.0;0.0;0.2147199958562851;-0.15030398964881897;1.1419199705123901;0.0;0.0;0.0
784;0.0;0.0;0.0;0.19129599630832672;-0.16201600432395935;1.1419199705123901;0.0;0.0;0.0
787;0.08759599924087524;-0.018300000578165054;0.9889319539070129;0.187391996383667;-0.1424959897994995;1.1614400148391724;0.07000000029802322;0.3499999940395355;0.49000000953674316
789;0.0;0.0;0.0;0.19617599248886108;-0.15908800065517426;1.1497279405593872;0.0;0.0;0.0
791;0.0;0.0;0.0;0.19617599248886108;-0.1395680010318756;1.1458239555358887;0.0;0.0;0.0
793;0.0;0.0;0.0;0.2117919921875;-0.15908800065517426;1.1419199705123901;0.0;0.0;0.0
795;0.08637599647045135;-0.02000799961388111;0.9911279678344727;0.19617599248886108;-0.1668960005044937;1.1497279405593872;0.07000000029802322;0.3499999940395355;0.49000000953674316
797;0.0;0.0;0.0;0.2117919921875;-0.15518400073051453;1.1380159854888916;0.0;0.0;0.0
799;0.0;0.0;0.0;0.2000799924135208;-0.15518400073051453;1.1419199705123901;0.0;0.0;0.0
801;0.0;0.0;0.0;0.20398399233818054;-0.14347200095653534;1.1741279363632202;0.0;0.0;0.0
804;0.08832799643278122;-0.019763998687267303;0.9891759753227234;0.20398399233818054;-0.15908800065517426;1.1331360340118408;0.14000000059604645;0.21000000834465027;0.49000000953674316
806;0.0;0.0;0.0;0.2117919921875;-0.1395680010318756;1.1497279405593872;0.0;0.0;0.0
808;0.0;0.0;0.0;0.18836799263954163;-0.1668960005044937;1.1419199705123901;0.0;0.0;0.0
810;0.0;0.0;0.0;0.2000799924135208;-0.15518400073051453;1.1458239555358887;0.0;0.0;0.0
812;0.0878399983048439;-0.01878799870610237;0.9896639585494995;0.21959999203681946;-0.14347200095653534;1.1214239597320557;0.14000000059604645;0.2800000011920929;0.49000000953674316
814;0.0;0.0;0.0;0.21959999203681946;-0.15518400073051453;1.1536319255828857;0.0;0.0;0.0
816;0.0;0.0;0.0;0.2000799924135208;-0.14737600088119507;1.1292319297790527;0.0;0.0;0.0
818;0.0;0.0;0.0;0.2000799924135208;-0.13566400110721588;1.1614400148391724;0.0;0.0;0.0
821;0.08661999553442001;-0.019763998687267303;0.9901520013809204;0.2117919921875;-0.16299200057983398;1.1497279405593872;0.07000000029802322;0.2800000011920929;0.49000000953674316
823;0.0;0.0;0.0;0.20788799226284027;-0.1512800008058548;1.1458239555358887;0.0;0.0;0.0
825;0.0;0.0;0.0;0.18836799263954163;-0.17470400035381317;1.1419199705123901;0.0;0.0;0.0
827;0.0;0.0;0.0;0.19227199256420135;-0.16299200057983398;1.1575360298156738;0.0;0.0;0.0
829;0.08808399736881256;-0.019276000559329987;0.9891759753227234;0.2000799924135208;-0.15518400073051453;1.1331360340118408;0.07000000029802322;0.3499999940395355;0.5600000023841858
831;0.0;0.0;0.0;0.21569599211215973;-0.15518400073051453;1.1419199705123901;0.0;0.0;0.0
833;0.0;0.0;0.0;0.19227199256420135;-0.18251200020313263;1.1292319297790527;0.0;0.0;0.0
835;0.0;0.0;0.0;0.21569599211215973;-0.1668960005044937;1.1614400148391724;0.0;0.0;0.0
838;0.0861319974064827;-0.018543999642133713;0.9896639585494995;0.19617599248886108;-0.1512800008058548;1.1331360340118408;0.14000000059604645;0.2800000011920929;0.49000000953674316
840;0.0;0.0;0.0;0.2000799924135208;-0.14347200095653534;1.1419199705123901;0.0;0.0;0.0
842;0.0;0.0;0.0;0.19227199256420135;-0.15908800065517426;1.1702239513397217;0.0;0.0;0.0
844;0.0;0.0;0.0;0.20788799226284027;-0.13176000118255615;1.1575360298156738;0.0;0.0;0.0
846;0.08735200017690659;-0.01878799870610237;0.9894199967384338;0.20788799226284027;-0.1512800008058548;1.1331360340118408;0.14000000059604645;0.21000000834465027;0.49000000953674316
848;0.0;0.0;0.0;0.21959999203681946;-0.1668960005044937;1.1575360298156738;0.0;0.0;0.0
850;0.0;0.0;0.0;0.19617599248886108;-0.1512800008058548;1.1253279447555542;0.0;0.0;0.0
853;0.0;0.0;0.0;0.20398399233818054;-0.12785600125789642;1.1497279405593872;0.0;0.0;0.0
855;0.08710800111293793;-0.019519999623298645;0.98990797996521;0.20788799226284027;-0.15518400073051453;1.1497279405593872;0.14000000059604645;0.3499999940395355;0.49000000953674316
857;0.0;0.0;0.0;0.18055999279022217;-0.14737600088119507;1.1458239555358887;0.0;0.0;0.0
859;0.0;0.0;0.0;0.2000799924135208;-0.18251200020313263;1.1458239555358887;0.0;0.0;0.0
861;0.0;0.0;0.0;0.16494399309158325;-0.1512800008058548;1.1419199705123901;0.0;0.0;0.0
863;0.08661999553442001;-0.02000799961388111;0.9903959631919861;0.2000799924135208;-0.14347200095653534;1.1458239555358887;0.07000000029802322;0.2800000011920929;0.49000000953674316
865;0.0;0.0;0.0;0.17665599286556244;-0.14737600088119507;1.1458239555358887;0.0;0.0;0.0
867;0.0;0.0;0.0;0.1844639927148819;-0.15908800065517426;1.1536319255828857;0.0;0.0;0.0
870;0.0;0.0;0.0;0.1844639927148819;-0.14347200095653534;1.1331360340118408;0.0;0.0;0.0
872;0.08759599924087524;-0.019519999623298645;0.9894199967384338;0.2000799924135208;-0.17080000042915344;1.1458239555358887;0.14000000059604645;0.2800000011920929;0.49000000953674316
874;0.0;0.0;0.0;0.19617599248886108;-0.16299200057983398;1.1370400190353394;0.0;0.0;0.0
876;0.0;0.0;0.0;0.19617599248886108;-0.15908800065517426;1.1614400148391724;0.0;0.0;0.0
878;0.0;0.0;0.0;0.19227199256420135;-0.1395680010318756;1.1419199705123901;0.0;0.0;0.0
880;0.08686399459838867;-0.01878799870610237;0.98990797996521;0.20788799226284027;-0.15518400073051453;1.1331360340118408;0.14000000059604645;0.2800000011920929;0.49000000953674316
882;0.0;0.0;0.0;0.20398399233818054;-0.15908800065517426;1.1370400190353394;0.0;0.0;0.0
884;0.0;0.0;0.0;0.19227199256420135;-0.1668960005044937;1.1497279405593872;0.0;0.0;0.0
887;0.0;0.0;0.0;0.18836799263954163;-0.14737600088119507;1.1663199663162231;0.0;0.0;0.0
889;0.08735200017690659;-0.018300000578165054;0.9886879920959473;0.20788799226284027;-0.1512800008058548;1.1419199705123901;0.14000000059604645;0.2800000011920929;0.49000000953674316
891;0.0;0.0;0.0;0.21569599211215973;-0.1512800008058548;1.1292319297790527;0.0;0.0;0.0
893;0.0;0.0;0.0;0.18836799263954163;-0.15518400073051453;1.1331360340118408;0.0;0.0;0.0
895;0.0;0.0;0.0;0.18055999279022217;-0.13566400110721588;1.1380159854888916;0.0;0.0;0.0
897;0.08710800111293793;-0.019276000559329987;0.9891759753227234;0.2000799924135208;-0.15908800065517426;1.1458239555358887;0.0;0.3499999940395355;0.49000000953674316
899;0.0;0.0;0.0;0.17665599286556244;-0.14737600088119507;1.1458239555358887;0.0;0.0;0.0
901;0.0;0.0;0.0;0.2117919921875;-0.15908800065517426;1.1380159854888916;0.0;0.0;0.0
904;0.0;0.0;0.0;0.19227199256420135;-0.1512800008058548;1.1497279405593872;0.0;0.0;0.0
906;0.08686399459838867;-0.019519999623298645;0.98990797996521;0.20788799226284027;-0.15518400073051453;1.1497279405593872;0.14000000059604645;0.21000000834465027;0.49000000953674316
908;0.0;0.0;0.0;0.20788799226284027;-0.1512800008058548;1.1331360340118408;0.0;0.0;0.0
910;0.0;0.0;0.0;0.19617599248886108;-0.13566400110721588;1.1575360298156738;0.0;0.0;0.0
912;0.0;0.0;0.0;0.20398399233818054;-0.13566400110721588;1.1214239597320557;0.0;0.0;0.0
914;0.08735200017690659;-0.01878799870610237;0.9894199967384338;0.19227199256420135;-0.15908800065517426;1.1458239555358887;0.21000000834465027;0.3499999940395355;0.49000000953674316
916;0.0;0.0;0.0;0.21569599211215973;-0.13566400110721588;1.1497279405593872;0.0;0.0;0.0
918;0.0;0.0;0.0;0.20398399233818054;-0.1395680010318756;1.1536319255828857;0.0;0.0;0.0
921;0.0;0.0;0.0;0.21569599211215973;-0.1512800008058548;1.1253279447555542;0.0;0.0;0.0
923;0.08686399459838867;-0.01903199963271618;0.9891759753227234;0.18836799263954163;-0.14347200095653534;1.1370400190353394;0.14000000059604645;0.2800000011920929;0.49000000953674316
925;0.0;0.0;0.0;0.18836799263954163;-0.15518400073051453;1.1380159854888916;0.0;0.0;0.0
927;0.0;0.0;0.0;0.17665599286556244;-0.14347200095653534;1.1624159812927246;0.0;0.0;0.0
929;0.0;0.0;0.0;0.18836799263954163;-0.14347200095653534;1.1497279405593872;0.0;0.0;0.0
931;0.08735200017690659;-0.01903199963271618;0.9896639585494995;0.1844639927148819;-0.1512800008058548;1.1458239555358887;0.07000000029802322;0.3499999940395355;0.49000000953674316
933;0.0;0.0;0.0;0.18055999279022217;-0.15518400073051453;1.1331360340118408;0.0;0.0;0.0
935;0.0;0.0;0.0;0.19227199256420135;-0.16299200057983398;1.1458239555358887;0.0;0.0;0.0
938;0.0;0.0;0.0;0.19227199256420135;-0.17470400035381317;1.1458239555358887;0.0;0.0;0.0
940;0.08466799557209015;-0.02000799961388111;0.9903959631919861;0.1844639927148819;-0.14737600088119507;1.1419199705123901;0.07000000029802322;0.42000001668930054;0.4856249988079071
942;0.0;0.0;0.0;0.19617599248886108;-0.1395680010318756;1.1458239555358887;0.0;0.0;0.0
944;0.0;0.0;0.0;0.2117919921875;-0.1512800008058548;1.1380159854888916;0.0;0.0;0.0
946;0.0;0.0;0.0;0.21959999203681946;-0.15908800065517426;1.1497279405593872;0.0;0.0;0.0
948;0.08857199549674988;-0.018300000578165054;0.9889319539070129;0.20788799226284027;-0.17080000042915344;1.1380159854888916;0.14000000059604645;0.2056250125169754;0.4856249988079071
950;0.0;0.0;0.0;0.20398399233818054;-0.15518400073051453;1.1497279405593872;0.0;0.0;0.0
952;0.0;0.0;0.0;0.20788799226284027;-0.1668960005044937;1.1536319255828857;0.0;0.0;0.0
955;0.0;0.0;0.0;0.19227199256420135;-0.15908800065517426;1.1175199747085571;0.0;0.0;0.0
957;0.08710800111293793;-0.01878799870610237;0.9894199967384338;0.20398399233818054;-0.13566400110721588;1.1702239513397217;0.07000000029802322;0.4156250059604645;0.48125001788139343
959;0.0;0.0;0.0;0.1844639927148819;-0.17080000042915344;1.1214239597320557;0.0;0.0;0.0
961;0.0;0.0;0.0;0.19227199256420135;-0.17470400035381317;1.1331360340118408;0.0;0.0;0.0
963;0.0;0.0;0.0;0.19227199256420135;-0.15518400073051453;1.1292319297790527;0.0;0.0;0.0
965;0.08686399459838867;-0.02000799961388111;0.9889319539070129;0.19227199256420135;-0.15908800065517426;1.1292319297790527;0.21000000834465027;0.13562500476837158;0.48125001788139343
968;0.0;0.0;0.0;0.16884799301624298;-0.17080000042915344;1.1331360340118408;0.0;0.0;0.0
969;0.0;0.0;0.0;0.21569599211215973;-0.14737600088119507;1.1458239555358887;0.0;0.0;0.0
972;0.0;0.0;0.0;0.19617599248886108;-0.1512800008058548;1.1292319297790527;0.0;0.0;0.0
974;0.08881600201129913;-0.01878799870610237;0.9882000088691711;0.20788799226284027;-0.1668960005044937;1.1458239555358887;0.07000000029802322;0.3412500023841858;0.4768750071525574
976;0.0;0.0;0.0;0.19227199256420135;-0.15518400073051453;1.1331360340118408;0.0;0.0;0.0
978;0.0;0.0;0.0;0.1844639927148819;-0.1903200000524521;1.1663199663162231;0.0;0.0;0.0
980;0.0;0.0;0.0;0.1727519929409027;-0.14347200095653534;1.1380159854888916;0.0;0.0;0.0
982;0.08442399650812149;-0.019276000559329987;0.9906399846076965;0.1844639927148819;-0.1512800008058548;1.1136159896850586;0.07000000029802322;0.3412500023841858;0.4768750071525574
984;0.0;0.0;0.0;0.20398399233818054;-0.15908800065517426;1.1292319297790527;0.0;0.0;0.0
986;0.0;0.0;0.0;0.1844639927148819;-0.1668960005044937;1.1380159854888916;0.0;0.0;0.0
989;0.0;0.0;0.0;0.19617599248886108;-0.17080000042915344;1.1536319255828857;0.0;0.0;0.0
991;0.08832799643278122;-0.018300000578165054;0.9872239828109741;0.19617599248886108;-0.13566400110721588;1.1331360340118408;0.13562500476837158;0.20125000178813934;0.4724999964237213
993;0.0;0.0;0.0;0.19617599248886108;-0.16299200057983398;1.1614400148391724;0.0;0.0;0.0
995;0.0;0.0;0.0;0.20398399233818054;-0.18641600012779236;1.1136159896850586;0.0;0.0;0.0
997;0.0;0.0;0.0;0.1844639927148819;-0.1395680010318756;1.1536319255828857;0.0;0.0;0.0
999;0.08759599924087524;-0.01878799870610237;0.9884439706802368;0.2000799924135208;-0.15518400073051453;1.1419199705123901;0.06562499701976776;0.40687501430511475;0.4724999964237213
1001;0.0;0.0;0.0;0.21569599211215973;-0.1512800008058548;1.1497279405593872;0.0;0.0;0.0
1003;0.0;0.0;0.0;0.19227199256420135;-0.14347200095653534;1.1536319255828857;0.0;0.0;0.0
1006;0.0;0.0;0.0;0.19227199256420135;-0.15908800065517426;1.1575360298156738;0.0;0.0;0.0
1008;0.08588799834251404;-0.02025200054049492;0.9911279678344727;0.19227199256420135;-0.14347200095653534;1.1419199705123901;0.13562500476837158;0.19687500596046448;0.5381249785423279
1010;0.0;0.0;0.0;0.19227199256420135;-0.16299200057983398;1.1419199705123901;0.0;0.0;0.0
1012;0.0;0.0;0.0;0.19617599248886108;-0.1903200000524521;1.1497279405593872;0.0;0.0;0.0
1014;0.0;0.0;0.0;0.21959999203681946;-0.13566400110721588;1.1292319297790527;0.0;0.0;0.0
1016;0.08881600201129913;-0.018543999642133713;0.9882000088691711;0.2000799924135208;-0.17080000042915344;1.1614400148391724;0.06562499701976776;0.19687500596046448;0.4637500047683716
1018;0.0;0.0;0.0;0.1844639927148819;-0.14347200095653534;1.1370400190353394;0.0;0.0;0.0
1021;0.0;0.0;0.0;0.18055999279022217;-0.1512800008058548;1.1253279447555542;0.0;0.0;0.0
1023;0.0;0.0;0.0;0.21959999203681946;-0.15518400073051453;1.1702239513397217;0.0;0.0;0.0
1025;0.08661999553442001;-0.018543999642133713;0.9896639585494995;0.20398399233818054;-0.15518400073051453;1.1663199663162231;-0.0043750000186264515;0.4025000035762787;0.4637500047683716
1027;0.0;0.0;0.0;0.18348799645900726;-0.1424959897994995;1.1497279405593872;0.0;0.0;0.0
1029;0.0;0.0;0.0;0.17958399653434753;-0.13468798995018005;1.1497279405593872;0.0;0.0;0.0
1031;0.0;0.0;0.0;0.19129599630832672;-0.15811198949813843;1.1331360340118408;0.0;0.0;0.0
1033;0.08564399927854538;-0.01903199963271618;0.9913719892501831;0.18348799645900726;-0.1424959897994995;1.1458239555358887;0.06562499701976776;0.26249998807907104;0.4593750238418579
1036;0.0;0.0;0.0;0.187391996383667;-0.13859200477600098;1.1331360340118408;0.0;0.0;0.0
1038;0.0;0.0;0.0;0.2030079960823059;-0.1542080044746399;1.1497279405593872;0.0;0.0;0.0
1040;0.0;0.0;0.0;0.2030079960823059;-0.13859200477600098;1.1497279405593872;0.0;0.0;0.0
1042;0.08808399736881256;-0.018300000578165054;0.9882000088691711;0.19129599630832672;-0.16201600432395935;1.1458239555358887;0.2056250125169754;0.26249998807907104;0.4593750238418579
1044;0.0;0.0;0.0;0.18836799263954163;-0.1512800008058548;1.1419199705123901;0.0;0.0;0.0
1046;0.0;0.0;0.0;0.19617599248886108;-0.13176000118255615;1.1497279405593872;0.0;0.0;0.0
1048;0.0;0.0;0.0;0.17665599286556244;-0.1395680010318756;1.1419199705123901;0.0;0.0;0.0
1050;0.08759599924087524;-0.019519999623298645;0.9903959631919861;0.18836799263954163;-0.13176000118255615;1.1458239555358887;0.13562500476837158;0.328125;0.45500001311302185
1052;0.0;0.0;0.0;0.19227199256420135;-0.14347200095653534;1.1702239513397217;0.0;0.0;0.0
1055;0.0;0.0;0.0;0.21959999203681946;-0.14347200095653534;1.1575360298156738;0.0;0.0;0.0
1057;0.0;0.0;0.0;0.1844639927148819;-0.17080000042915344;1.1702239513397217;0.0;0.0;0.0
1059;0.08588799834251404;-0.020495999604463577;0.9903959631919861;0.19227199256420135;-0.15518400073051453;1.1253279447555542;0.13562500476837158;0.18812501430511475;0.45500001311302185
1061;0.0;0.0;0.0;0.20398399233818054;-0.12785600125789642;1.1497279405593872;0.0;0.0;0.0
1063;0.0;0.0;0.0;0.20398399233818054;-0.1668960005044937;1.1419199705123901;0.0;0.0;0.0
1065;0.0;0.0;0.0;0.2117919921875;-0.17470400035381317;1.1380159854888916;0.0;0.0;0.0
1067;0.0878399983048439;-0.01878799870610237;0.9879559874534607;0.18055999279022217;-0.1668960005044937;1.1087360382080078;0.06562499701976776;0.18812501430511475;0.4506250023841858
1070;0.0;0.0;0.0;0.2000799924135208;-0.1668960005044937;1.1419199705123901;0.0;0.0;0.0
1072;0.0;0.0;0.0;0.1844639927148819;-0.13176000118255615;1.1292319297790527;0.0;0.0;0.0
1074;0.0;0.0;0.0;0.18836799263954163;-0.15518400073051453;1.1536319255828857;0.0;0.0;0.0
1076;0.08637599647045135;-0.019519999623298645;0.98990797996521;0.16884799301624298;-0.14737600088119507;1.1458239555358887;0.061250001192092896;0.398125022649765;0.4506250023841858
1078;0.0;0.0;0.0;0.21569599211215973;-0.14737600088119507;1.1419199705123901;0.0;0.0;0.0
1080;0.0;0.0;0.0;0.18836799263954163;-0.16299200057983398;1.1663199663162231;0.0;0.0;0.0
1082;0.0;0.0;0.0;0.17665599286556244;-0.14737600088119507;1.1292319297790527;0.0;0.0;0.0
1084;0.08637599647045135;-0.019763998687267303;0.9911279678344727;0.2000799924135208;-0.14737600088119507;1.1497279405593872;0.20125000178813934;0.2537499964237213;0.3762500286102295
1087;0.0;0.0;0.0;0.1844639927148819;-0.15518400073051453;1.1575360298156738;0.0;0.0;0.0
1089;0.0;0.0;0.0;0.21569599211215973;-0.14347200095653534;1.1380159854888916;0.0;0.0;0.0
1091;0.0;0.0;0.0;0.18836799263954163;-0.1512800008058548;1.1419199705123901;0.0;0.0;0.0
1093;0.08808399736881256;-0.01903199963271618;0.9894199967384338;0.19617599248886108;-0.1512800008058548;1.1458239555358887;0.20125000178813934;0.1837500035762787;0.4462500214576721
1095;0.0;0.0;0.0;0.2117919921875;-0.15908800065517426;1.1458239555358887;0.0;0.0;0.0
1097;0.0;0.0;0.0;0.19617599248886108;-0.17470400035381317;1.1614400148391724;0.0;0.0;0.0
1099;0.0;0.0;0.0;0.19227199256420135;-0.1512800008058548;1.1331360340118408;0.0;0.0;0.0
1101;0.08759599924087524;-0.01903199963271618;0.9891759753227234;0.20788799226284027;-0.16299200057983398;1.1536319255828857;0.061250001192092896;0.32374998927116394;0.44187501072883606
1104;0.0;0.0;0.0;0.19617599248886108;-0.15518400073051453;1.1624159812927246;0.0;0.0;0.0
1106;0.0;0.0;0.0;0.20398399233818054;-0.14737600088119507;1.1575360298156738;0.0;0.0;0.0
1108;0.0;0.0;0.0;0.1844639927148819;-0.17080000042915344;1.1253279447555542;0.0;0.0;0.0
1110;0.08661999553442001;-0.01903199963271618;0.9891759753227234;0.18055999279022217;-0.15908800065517426;1.1575360298156738;0.13124999403953552;0.1837500035762787;0.44187501072883606
1112;0.0;0.0;0.0;0.19617599248886108;-0.1395680010318756;1.1370400190353394;0.0;0.0;0.0
1114;0.0;0.0;0.0;0.18836799263954163;-0.17470400035381317;1.140944004058838;0.0;0.0;0.0
1116;0.0;0.0;0.0;0.19617599248886108;-0.14737600088119507;1.140944004058838;0.0;0.0;0.0
1118;0.08710800111293793;-0.019276000559329987;0.9891759753227234;0.2117919921875;-0.1512800008058548;1.1448479890823364;0.13124999403953552;0.3193749785423279;0.4375
1121;0.0;0.0;0.0;0.19227199256420135;-0.1668960005044937;1.140944004058838;0.0;0.0;0.0
1123;0.0;0.0;0.0;0.2000799924135208;-0.13566400110721588;1.1604639291763306;0.0;0.0;0.0
1125;0.0;0.0;0.0;0.2117919921875;-0.15908800065517426;1.140944004058838;0.0;0.0;0.0
1127;0.08686399459838867;-0.02025200054049492;0.9901520013809204;0.18055999279022217;-0.1512800008058548;1.1448479890823364;0.061250001192092896;0.24937500059604645;0.4375
1129;0.0;0.0;0.0;0.16787199676036835;-0.1542080044746399;1.1575360298156738;0.0;0.0;0.0
1131;0.0;0.0;0.0;0.19129599630832672;-0.15030398964881897;1.1292319297790527;0.0;0.0;0.0
1133;0.0;0.0;0.0;0.19910399615764618;-0.13468798995018005;1.1419199705123901;0.0;0.0;0.0
1135;0.08735200017690659;-0.019276000559329987;0.98990797996521;0.19519999623298645;-0.16591998934745789;1.1331360340118408;0.12687499821186066;0.24937500059604645;0.43312501907348633
1138;0.0;0.0;0.0;0.187391996383667;-0.13859200477600098;1.1536319255828857;0.0;0.0;0.0
1140;0.0;0.0;0.0;0.18348799645900726;-0.1424959897994995;1.1497279405593872;0.0;0.0;0.0
1142;0.0;0.0;0.0;0.19129599630832672;-0.1542080044746399;1.1292319297790527;0.0;0.0;0.0
1144;0.08832799643278122;-0.01878799870610237;0.9894199967384338;0.2147199958562851;-0.13859200477600098;1.1419199705123901;0.12687499821186066;0.24500000476837158;0.43312501907348633
1146;0.0;0.0;0.0;0.20398399233818054;-0.1395680010318756;1.1419199705123901;0.0;0.0;0.0
1148;0.0;0.0;0.0;0.17665599286556244;-0.16299200057983398;1.1380159854888916;0.0;0.0;0.0
1150;0.0;0.0;0.0;0.20788799226284027;-0.14347200095653534;1.1614400148391724;0.0;0.0;0.0
1152;0.08735200017690659;-0.019276000559329987;0.9884439706802368;0.20788799226284027;-0.14737600088119507;1.1419199705123901;0.05687499791383743;0.24500000476837158;0.42875000834465027
1155;0.0;0.0;0.0;0.19617599248886108;-0.1395680010318756;1.1458239555358887;0.0;0.0;0.0
1157;0.0;0.0;0.0;0.21959999203681946;-0.13566400110721588;1.1253279447555542;0.0;0.0;0.0
1159;0.0;0.0;0.0;0.19617599248886108;-0.1512800008058548;1.1331360340118408;0.0;0.0;0.0
1161;0.08661999553442001;-0.01903199963271618;0.9891759753227234;0.1844639927148819;-0.1512800008058548;1.1331360340118408;0.12687499821186066;0.24500000476837158;0.42875000834465027
1163;0.0;0.0;0.0;0.18836799263954163;-0.15518400073051453;1.1497279405593872;0.0;0.0;0.0
1165;0.0;0.0;0.0;0.2235039919614792;-0.15908800065517426;1.1458239555358887;0.0;0.0;0.0
1167;0.0;0.0;0.0;0.1844639927148819;-0.17080000042915344;1.1331360340118408;0.0;0.0;0.0
1169;0.08661999553442001;-0.019519999623298645;0.9894199967384338;0.20788799226284027;-0.14737600088119507;1.1331360340118408;0.12687499821186066;0.24062499403953552;0.4243749976158142
1172;0.0;0.0;0.0;0.1844639927148819;-0.17080000042915344;1.1175199747085571;0.0;0.0;0.0
1174;0.0;0.0;0.0;0.20788799226284027;-0.1395680010318756;1.1331360340118408;0.0;0.0;0.0
1176;0.0;0.0;0.0;0.18836799263954163;-0.13176000118255615;1.1292319297790527;0.0;0.0;0.0
1178;0.08808399736881256;-0.01878799870610237;0.9886879920959473;0.18055999279022217;-0.1239520013332367;1.1419199705123901;0.12687499821186066;0.24062499403953552;0.4243749976158142
1180;0.0;0.0;0.0;0.20788799226284027;-0.15518400073051453;1.1458239555358887;0.0;0.0;0.0
1182;0.0;0.0;0.0;0.18836799263954163;-0.1512800008058548;1.1575360298156738;0.0;0.0;0.0
1184;0.0;0.0;0.0;0.18836799263954163;-0.1395680010318756;1.1497279405593872;0.0;0.0;0.0
1186;0.0878399983048439;-0.01903199963271618;0.9896639585494995;0.19227199256420135;-0.15518400073051453;1.1292319297790527;0.05687499791383743;0.38062500953674316;0.49000000953674316
1189;0.0;0.0;0.0;0.2000799924135208;-0.1668960005044937;1.1292319297790527;0.0;0.0;0.0
1191;0.0;0.0;0.0;0.20788799226284027;-0.17080000042915344;1.1331360340118408;0.0;0.0;0.0
1193;0.0;0.0;0.0;0.17665599286556244;-0.1395680010318756;1.1331360340118408;0.0;0.0;0.0
1195;0.08661999553442001;-0.019763998687267303;0.9913719892501831;0.2000799924135208;-0.1512800008058548;1.1331360340118408;0.12687499821186066;0.23624999821186066;0.49000000953674316
1197;0.0;0.0;0.0;0.17665599286556244;-0.1395680010318756;1.1458239555358887;0.0;0.0;0.0
1199;0.0;0.0;0.0;0.2235039919614792;-0.13176000118255615;1.1497279405593872;0.0;0.0;0.0
1201;0.0;0.0;0.0;0.21959999203681946;-0.12785600125789642;1.1136159896850586;0.0;0.0;0.0
1203;0.08686399459838867;-0.018543999642133713;0.9901520013809204;0.21569599211215973;-0.14347200095653534;1.1331360340118408;0.12250000238418579;0.16625000536441803;0.4156250059604645
1206;0.0;0.0;0.0;0.20788799226284027;-0.15908800065517426;1.1331360340118408;0.0;0.0;0.0
1208;0.0;0.0;0.0;0.2117919921875;-0.14737600088119507;1.1536319255828857;0.0;0.0;0.0
1210;0.0;0.0;0.0;0.18836799263954163;-0.15908800065517426;1.1458239555358887;0.0;0.0;0.0
1212;0.0878399983048439;-0.018543999642133713;0.9896639585494995;0.2235039919614792;-0.14737600088119507;1.1370400190353394;0.12250000238418579;0.23624999821186066;0.4156250059604645
1214;0.0;0.0;0.0;0.18836799263954163;-0.14737600088119507;1.1214239597320557;0.0;0.0;0.0
1216;0.0;0.0;0.0;0.2117919921875;-0.13566400110721588;1.1497279405593872;0.0;0.0;0.0
1218;0.0;0.0;0.0;0.1844639927148819;-0.1395680010318756;1.1575360298156738;0.0;0.0;0.0
1220;0.08661999553442001;-0.018543999642133713;0.9891759753227234;0.19617599248886108;-0.18641600012779236;1.1380159854888916;0.05250000208616257;0.16625000536441803;0.3412500023841858
1223;0.0;0.0;0.0;0.20398399233818054;-0.1395680010318756;1.1331360340118408;0.0;0.0;0.0
1225;0.0;0.0;0.0;0.19617599248886108;-0.17080000042915344;1.1214239597320557;0.0;0.0;0.0
1227;0.0;0.0;0.0;0.1727519929409027;-0.14347200095653534;1.1497279405593872;0.0;0.0;0.0
1229;0.0878399983048439;-0.019276000559329987;0.9884439706802368;0.19617599248886108;-0.15518400073051453;1.1575360298156738;0.12250000238418579;0.3018749952316284;0.4112499952316284
1231;0.0;0.0;0.0;0.1727519929409027;-0.14737600088119507;1.1331360340118408;0.0;0.0;0.0
1233;0.0;0.0;0.0;0.19617599248886108;-0.13566400110721588;1.1497279405593872;0.0;0.0;0.0
1235;0.0;0.0;0.0;0.19617599248886108;-0.17080000042915344;1.1497279405593872;0.0;0.0;0.0
1237;0.08564399927854538;-0.02025200054049492;0.98990797996521;0.19617599248886108;-0.14737600088119507;1.1380159854888916;0.12250000238418579;0.3018749952316284;0.40687501430511475
1240;0.0;0.0;0.0;0.19227199256420135;-0.1668960005044937;1.1380159854888916;0.0;0.0;0.0
1242;0.0;0.0;0.0;0.19617599248886108;-0.1512800008058548;1.1497279405593872;0.0;0.0;0.0
1244;0.0;0.0;0.0;0.20788799226284027;-0.15908800065517426;1.1497279405593872;0.0;0.0;0.0
1246;0.08735200017690659;-0.019519999623298645;0.9903959631919861;0.23131199181079865;-0.17080000042915344;1.1419199705123901;0.05250000208616257;0.16187500953674316;0.40687501430511475
1248;0.0;0.0;0.0;0.19617599248886108;-0.12785600125789642;1.1331360340118408;0.0;0.0;0.0
1250;0.0;0.0;0.0;0.18055999279022217;-0.1668960005044937;1.1292319297790527;0.0;0.0;0.0
1252;0.0;0.0;0.0;0.2000799924135208;-0.16299200057983398;1.1331360340118408;0.0;0.0;0.0
1254;0.08979199826717377;-0.018543999642133713;0.98990797996521;0.20788799226284027;-0.1668960005044937;1.134112000465393;-0.08749999850988388;0.6474999785423279;0.40687501430511475
1257;0.0;0.0;0.0;0.20788799226284027;-0.15518400073051453;1.1497279405593872;0.0;0.0;0.0
1259;0.0;0.0;0.0;0.1844639927148819;-0.16299200057983398;1.1497279405593872;0.0;0.0;0.0
1261;0.0;0.0;0.0;0.19227199256420135;-0.1786080002784729;1.1253279447555542;0.0;0.0;0.0
1263;0.08564399927854538;-0.020739998668432236;0.9903959631919861;0.1844639927148819;-0.13566400110721588;1.1624159812927246;-0.22750000655651093;0.9231250286102295;0.4724999964237213
1265;0.0;0.0;0.0;0.22740799188613892;-0.14737600088119507;1.1497279405593872;0.0;0.0;0.0
1267;0.0;0.0;0.0;0.1727519929409027;-0.15518400073051453;1.1419199705123901;0.0;0.0;0.0
1269;0.0;0.0;0.0;0.2117919921875;-0.13566400110721588;1.1292319297790527;0.0;0.0;0.0
1271;0.08564399927854538;-0.019276000559329987;0.9925919771194458;0.18836799263954163;-0.17080000042915344;1.1536319255828857;-0.017500000074505806;0.503125011920929;0.46812498569488525
1274;0.0;0.0;0.0;0.20788799226284027;-0.17080000042915344;1.1419199705123901;0.0;0.0;0.0
1276;0.0;0.0;0.0;0.1727519929409027;-0.18251200020313263;1.1575360298156738;0.0;0.0;0.0
1278;0.0;0.0;0.0;0.19227199256420135;-0.14737600088119507;1.1458239555358887;0.0;0.0;0.0
1280;0.08832799643278122;-0.01903199963271618;0.9891759753227234;0.17665599286556244;-0.1512800008058548;1.1292319297790527;-0.017500000074505806;0.2887499928474426;0.3981249928474426
1282;0.0;0.0;0.0;0.19227199256420135;-0.1512800008058548;1.1419199705123901;0.0;0.0;0.0
1284;0.0;0.0;0.0;0.23521599173545837;-0.13176000118255615;1.1419199705123901;0.0;0.0;0.0
1286;0.0;0.0;0.0;0.20788799226284027;-0.13566400110721588;1.1370400190353394;0.0;0.0;0.0
1288;0.08979199826717377;-0.01781199872493744;0.986735999584198;0.21569599211215973;-0.1668960005044937;1.1214239597320557;-0.08749999850988388;0.5687500238418579;0.4637500047683716
1291;0.0;0.0;0.0;0.20398399233818054;-0.15908800065517426;1.1214239597320557;0.0;0.0;0.0
1293;0.0;0.0;0.0;0.19617599248886108;-0.14347200095653534;1.1419199705123901;0.0;0.0;0.0
1295;0.0;0.0;0.0;0.20788799226284027;-0.11614400148391724;1.1380159854888916;0.0;0.0;0.0
1297;0.0907679945230484;-0.017079999670386314;0.9864919781684875;0.18836799263954163;-0.1512800008058548;1.1380159854888916;-0.2931250035762787;1.0499999523162842;0.39375001192092896
1299;0.0;0.0;0.0;0.18836799263954163;-0.14737600088119507;1.1292319297790527;0.0;0.0;0.0
1301;0.0;0.0;0.0;0.20788799226284027;-0.15908800065517426;1.1536319255828857;0.0;0.0;0.0
1303;0.0;0.0;0.0;0.1844639927148819;-0.14737600088119507;1.1370400190353394;0.0;0.0;0.0
1305;0.0907679945230484;-0.018055999651551247;0.9879559874534607;0.23131199181079865;-0.1512800008058548;1.1331360340118408;-0.43312501907348633;1.399999976158142;0.39375001192092896
1308;0.0;0.0;0.0;0.18836799263954163;-0.16299200057983398;1.1575360298156738;0.0;0.0;0.0
1310;0.0;0.0;0.0;0.2000799924135208;-0.1512800008058548;1.1331360340118408;0.0;0.0;0.0
1312;0.0;0.0;0.0;0.2000799924135208;-0.16299200057983398;1.1292319297790527;0.0;0.0;0.0
1314;0.09101200103759766;-0.018055999651551247;0.9877119660377502;0.18836799263954163;-0.1668960005044937;1.1292319297790527;-0.6431249976158142;1.8899999856948853;0.4637500047683716
1316;0.0;0.0;0.0;0.18055999279022217;-0.15908800065517426;1.1175199747085571;0.0;0.0;0.0
1318;0.0;0.0;0.0;0.19617599248886108;-0.1512800008058548;1.1458239555358887;0.0;0.0;0.0
1320;0.0;0.0;0.0;0.21959999203681946;-0.16299200057983398;1.1292319297790527;0.0;0.0;0.0
1322;0.08710800111293793;-0.019763998687267303;0.9894199967384338;0.19617599248886108;-0.15908800065517426;1.1380159854888916;-0.7831249833106995;2.380000114440918;0.4637500047683716
1325;0.0;0.0;0.0;0.17665599286556244;-0.16299200057983398;1.1497279405593872;0.0;0.0;0.0
1327;0.0;0.0;0.0;0.21959999203681946;-0.13566400110721588;1.1214239597320557;0.0;0.0;0.0
1329;0.0;0.0;0.0;0.1571359932422638;-0.15518400073051453;1.1419199705123901;0.0;0.0;0.0
1331;0.08051999658346176;-0.021715998649597168;0.9921039938926697;0.1844639927148819;-0.15518400073051453;1.1614400148391724;-0.6431249976158142;2.1000001430511475;0.4637500047683716
1333;0.0;0.0;0.0;0.21862399578094482;-0.1542080044746399;1.1575360298156738;0.0;0.0;0.0
1335;0.0;0.0;0.0;0.187391996383667;-0.14640000462532043;1.1331360340118408;0.0;0.0;0.0
1337;0.0;0.0;0.0;0.18348799645900726;-0.17372798919677734;1.1419199705123901;0.0;0.0;0.0
1339;0.0785679966211319;-0.021959999576210976;0.994055986404419;0.18348799645900726;-0.15811198949813843;1.1458239555358887;-0.22312501072883606;1.0499999523162842;0.4637500047683716
1342;0.0;0.0;0.0;0.1756799966096878;-0.1424959897994995;1.1614400148391724;0.0;0.0;0.0
1344;0.0;0.0;0.0;0.17958399653434753;-0.16201600432395935;1.1458239555358887;0.0;0.0;0.0
1346;0.0;0.0;0.0;0.18348799645900726;-0.1698240041732788;1.1780319213867188;0.0;0.0;0.0
1348;0.07930000126361847;-0.0226919986307621;0.9962520003318787;0.16396799683570862;-0.1542080044746399;1.1458239555358887;0.19687500596046448;-0.07000000029802322;0.39375001192092896
1350;0.0;0.0;0.0;0.20788799226284027;-0.17470400035381317;1.1419199705123901;0.0;0.0;0.0
1352;0.0;0.0;0.0;0.18836799263954163;-0.14347200095653534;1.1419199705123901;0.0;0.0;0.0
1354;0.0;0.0;0.0;0.19227199256420135;-0.1512800008058548;1.1575360298156738;0.0;0.0;0.0
1356;0.08173999935388565;-0.022204000502824783;0.9933239817619324;0.2000799924135208;-0.1512800008058548;1.1253279447555542;0.546875;-0.7699999809265137;0.39375001192092896
1359;0.0;0.0;0.0;0.2235039919614792;-0.1512800008058548;1.1497279405593872;0.0;0.0;0.0
1361;0.0;0.0;0.0;0.1844639927148819;-0.1668960005044937;1.1292319297790527;0.0;0.0;0.0
1363;0.0;0.0;0.0;0.1844639927148819;-0.15908800065517426;1.134112000465393;0.0;0.0;0.0
1365;0.08515600115060806;-0.02025200054049492;0.9918599724769592;0.2000799924135208;-0.1668960005044937;1.1497279405593872;0.6868749856948853;-1.190000057220459;0.32375001907348633
1367;0.0;0.0;0.0;0.19617599248886108;-0.12785600125789642;1.1380159854888916;0.0;0.0;0.0
1369;0.0;0.0;0.0;0.19617599248886108;-0.13566400110721588;1.1214239597320557;0.0;0.0;0.0
1371;0.0;0.0;0.0;0.20788799226284027;-0.13176000118255615;1.1575360298156738;0.0;0.0;0.0
1374;0.08808399736881256;-0.01756799966096878;0.9879559874534607;0.21569599211215973;-0.15518400073051453;1.1536319255828857;0.6868749856948853;-1.190000057220459;0.32375001907348633
1376;0.0;0.0;0.0;0.2117919921875;-0.15908800065517426;1.1419199705123901;0.0;0.0;0.0
1378;0.0;0.0;0.0;0.1844639927148819;-0.15518400073051453;1.1214239597320557;0.0;0.0;0.0
1380;0.0;0.0;0.0;0.19227199256420135;-0.15518400073051453;1.1458239555358887;0.0;0.0;0.0
1382;0.09027999639511108;-0.01756799966096878;0.9852719902992249;0.20398399233818054;-0.1668960005044937;1.1497279405593872;0.4768750071525574;-0.7699999809265137;0.39375001192092896
1384;0.0;0.0;0.0;0.2030079960823059;-0.16201600432395935;1.1419199705123901;0.0;0.0;0.0
1386;0.0;0.0;0.0;0.19519999623298645;-0.15811198949813843;1.1419199705123901;0.0;0.0;0.0
1388;0.0;0.0;0.0;0.19129599630832672;-0.16201600432395935;1.1214239597320557;0.0;0.0;0.0
1391;0.09125600010156631;-0.018055999651551247;0.9852719902992249;0.187391996383667;-0.15030398964881897;1.1292319297790527;0.33687499165534973;0.0;0.39375001192092896
1393;0.0;0.0;0.0;0.20691199600696564;-0.15030398964881897;1.1458239555358887;0.0;0.0;0.0
1395;0.0;0.0;0.0;0.19910399615764618;-0.16591998934745789;1.1331360340118408;0.0;0.0;0.0
1397;0.0;0.0;0.0;0.17958399653434753;-0.15030398964881897;1.1331360340118408;0.0;0.0;0.0
1399;0.09149999916553497;-0.018543999642133713;0.986735999584198;0.19519999623298645;-0.1424959897994995;1.1419199705123901;-0.15312500298023224;0.7700000405311584;0.4637500047683716
1401;0.0;0.0;0.0;0.2000799924135208;-0.1512800008058548;1.1458239555358887;0.0;0.0;0.0
1403;0.0;0.0;0.0;0.18055999279022217;-0.15908800065517426;1.1458239555358887;0.0;0.0;0.0
1405;0.0;0.0;0.0;0.18836799263954163;-0.16299200057983398;1.1614400148391724;0.0;0.0;0.0
1408;0.08954799920320511;-0.018055999651551247;0.9891759753227234;0.20788799226284027;-0.1395680010318756;1.1419199705123901;-0.43312501907348633;1.399999976158142;0.39375001192092896
1410;0.0;0.0;0.0;0.1844639927148819;-0.14737600088119507;1.1702239513397217;0.0;0.0;0.0
1412;0.0;0.0;0.0;0.17665599286556244;-0.13566400110721588;1.1614400148391724;0.0;0.0;0.0
1414;0.0;0.0;0.0;0.1727519929409027;-0.17470400035381317;1.1380159854888916;0.0;0.0;0.0
1416;0.0849120020866394;-0.019519999623298645;0.9913719892501831;0.2000799924135208;-0.13176000118255615;1.1419199705123901;-0.3631249964237213;1.6100000143051147;0.4637500047683716
1418;0.0;0.0;0.0;0.17958399653434753;-0.1268799901008606;1.1614400148391724;0.0;0.0;0.0
1420;0.0;0.0;0.0;0.187391996383667;-0.1542080044746399;1.1331360340118408;0.0;0.0;0.0
1422;0.0;0.0;0.0;0.18348799645900726;-0.1542080044746399;1.1536319255828857;0.0;0.0;0.0
1425;0.08173999935388565;-0.02122800052165985;0.9933239817619324;0.19910399615764618;-0.17372798919677734;1.1458239555358887;-0.2931250035762787;1.2599999904632568;0.4637500047683716
1427;0.0;0.0;0.0;0.2030079960823059;-0.13078400492668152;1.1497279405593872;0.0;0.0;0.0
1429;0.0;0.0;0.0;0.16787199676036835;-0.15811198949813843;1.1458239555358887;0.0;0.0;0.0
1431;0.0;0.0;0.0;0.16396799683570862;-0.13859200477600098;1.1536319255828857;0.0;0.0;0.0
1433;0.07930000126361847;-0.022204000502824783;0.9935680031776428;0.19129599630832672;-0.16591998934745789;1.1536319255828857;0.05687499791383743;0.42000001668930054;0.39375001192092896
1435;0.0;0.0;0.0;0.19129599630832672;-0.14640000462532043;1.1292319297790527;0.0;0.0;0.0
1437;0.0;0.0;0.0;0.187391996383667;-0.16201600432395935;1.1370400190353394;0.0;0.0;0.0
1439;0.0;0.0;0.0;0.19910399615764618;-0.1424959897994995;1.1458239555358887;0.0;0.0;0.0
1442;0.07954400032758713;-0.021959999576210976;0.9916160106658936;0.1756799966096878;-0.13859200477600098;1.1497279405593872;0.40687501430511475;-0.41999998688697815;0.39375001192092896
1444;0.0;0.0;0.0;0.19910399615764618;-0.15811198949813843;1.1536319255828857;0.0;0.0;0.0
1446;0.0;0.0;0.0;0.2147199958562851;-0.15811198949813843;1.1380159854888916;0.0;0.0;0.0
1448;0.0;0.0;0.0;0.2147199958562851;-0.17372798919677734;1.1419199705123901;0.0;0.0;0.0
1450;0.08295999467372894;-0.02000799961388111;0.9906399846076965;0.19910399615764618;-0.15030398964881897;1.1419199705123901;0.6868749856948853;-1.0500000715255737;0.32375001907348633
1452;0.0;0.0;0.0;0.1844639927148819;-0.15518400073051453;1.1614400148391724;0.0;0.0;0.0
1454;0.0;0.0;0.0;0.20398399233818054;-0.15518400073051453;1.1497279405593872;0.0;0.0;0.0
1456;0.0;0.0;0.0;0.20398399233818054;-0.16299200057983398;1.1136159896850586;0.0;0.0;0.0
1459;0.08808399736881256;-0.01878799870610237;0.9886879920959473;0.20788799226284027;-0.15518400073051453;1.1419199705123901;0.6868749856948853;-1.0500000715255737;0.39375001192092896
1461;0.0;0.0;0.0;0.1844639927148819;-0.15518400073051453;1.1497279405593872;0.0;0.0;0.0
1463;0.0;0.0;0.0;0.19227199256420135;-0.15518400073051453;1.1292319297790527;0.0;0.0;0.0
1465;0.0;0.0;0.0;0.20398399233818054;-0.15518400073051453;1.1663199663162231;0.0;0.0;0.0
1467;0.0907679945230484;-0.01756799966096878;0.9874680042266846;0.18836799263954163;-0.15518400073051453;1.1087360382080078;0.4768750071525574;-0.6299999952316284;0.39375001192092896
1469;0.0;0.0;0.0;0.18836799263954163;-0.12785600125789642;1.1575360298156738;0.0;0.0;0.0
1471;0.0;0.0;0.0;0.21569599211215973;-0.15518400073051453;1.1292319297790527;0.0;0.0;0.0
1473;0.0;0.0;0.0;0.20398399233818054;-0.16299200057983398;1.1380159854888916;0.0;0.0;0.0
1476;0.09198799729347229;-0.01756799966096878;0.986735999584198;0.20398399233818054;-0.1668960005044937;1.1331360340118408;0.19687500596046448;0.07000000029802322;0.39375001192092896
1478;0.0;0.0;0.0;0.20788799226284027;-0.16299200057983398;1.1214239597320557;0.0;0.0;0.0
1480;0.0;0.0;0.0;0.20788799226284027;-0.13176000118255615;1.1497279405593872;0.0;0.0;0.0
1482;0.0;0.0;0.0;0.2235039919614792;-0.15518400073051453;1.1663199663162231;0.0;0.0;0.0
1484;0.08881600201129913;-0.018300000578165054;0.986735999584198;0.17665599286556244;-0.15908800065517426;1.1458239555358887;-0.013125000521540642;0.5600000023841858;0.39375001192092896
1486;0.0;0.0;0.0;0.19227199256420135;-0.17080000042915344;1.1331360340118408;0.0;0.0;0.0
1488;0.0;0.0;0.0;0.20398399233818054;-0.14347200095653534;1.1458239555358887;0.0;0.0;0.0
1490;0.0;0.0;0.0;0.2000799924135208;-0.1668960005044937;1.1380159854888916;0.0;0.0;0.0
1493;0.08686399459838867;-0.019519999623298645;0.9877119660377502;0.20398399233818054;-0.14347200095653534;1.1253279447555542;-0.08312500268220901;0.8400000333786011;0.4637500047683716
1495;0.0;0.0;0.0;0.18836799263954163;-0.17080000042915344;1.1419199705123901;0.0;0.0;0.0
1497;0.0;0.0;0.0;0.20398399233818054;-0.1395680010318756;1.1175199747085571;0.0;0.0;0.0
1499;0.0;0.0;0.0;0.19617599248886108;-0.1512800008058548;1.1575360298156738;0.0;0.0;0.0
1501;0.08466799557209015;-0.02000799961388111;0.9894199967384338;0.18836799263954163;-0.14737600088119507;1.1536319255828857;-0.15312500298023224;0.8400000333786011;0.4637500047683716
1503;0.0;0.0;0.0;0.21081599593162537;-0.17372798919677734;1.1370400190353394;0.0;0.0;0.0
1505;0.0;0.0;0.0;0.2030079960823059;-0.1424959897994995;1.1253279447555542;0.0;0.0;0.0
1507;0.0;0.0;0.0;0.2030079960823059;-0.1542080044746399;1.1458239555358887;0.0;0.0;0.0
1510;0.0832040011882782;-0.020983999595046043;0.9901520013809204;0.17177599668502808;-0.15811198949813843;1.1458239555358887;-0.08312500268220901;0.7700000405311584;0.4637500047683716
1512;0.0;0.0;0.0;0.19519999623298645;-0.1542080044746399;1.1380159854888916;0.0;0.0;0.0
1514;0.0;0.0;0.0;0.19910399615764618;-0.18934398889541626;1.1419199705123901;0.0;0.0;0.0
1516;0.0;0.0;0.0;0.19129599630832672;-0.16591998934745789;1.1331360340118408;0.0;0.0;0.0
1518;0.08393599838018417;-0.020739998668432236;0.9913719892501831;0.19519999623298645;-0.13468798995018005;1.1419199705123901;0.05687499791383743;0.42000001668930054;0.39375001192092896
1520;0.0;0.0;0.0;0.18836799263954163;-0.16299200057983398;1.1575360298156738;0.0;0.0;0.0
1522;0.0;0.0;0.0;0.17665599286556244;-0.14737600088119507;1.1292319297790527;0.0;0.0;0.0
1524;0.0;0.0;0.0;0.2000799924135208;-0.17080000042915344;1.1497279405593872;0.0;0.0;0.0
1527;0.08295999467372894;-0.020739998668432236;0.9913719892501831;0.19617599248886108;-0.16299200057983398;1.1380159854888916;0.12687499821186066;0.14000001549720764;0.39375001192092896
1529;0.0;0.0;0.0;0.1844639927148819;-0.13566400110721588;1.1458239555358887;0.0;0.0;0.0
1531;0.0;0.0;0.0;0.21569599211215973;-0.15518400073051453;1.1331360340118408;0.0;0.0;0.0
1533;0.0;0.0;0.0;0.2235039919614792;-0.16299200057983398;1.1292319297790527;0.0;0.0;0.0
1535;0.0832040011882782;-0.020495999604463577;0.98990797996521;0.16494399309158325;-0.16299200057983398;1.1536319255828857;0.33687499165534973;-0.21000000834465027;0.39375001192092896
1537;0.0;0.0;0.0;0.19227199256420135;-0.1512800008058548;1.1292319297790527;0.0;0.0;0.0
1539;0.0;0.0;0.0;0.20398399233818054;-0.1512800008058548;1.1624159812927246;0.0;0.0;0.0
1542;0.0;0.0;0.0;0.19227199256420135;-0.17080000042915344;1.1536319255828857;0.0;0.0;0.0
1544;0.08564399927854538;-0.019519999623298645;0.9884439706802368;0.20398399233818054;-0.14737600088119507;1.1292319297790527;0.40687501430511475;-0.49000000953674316;0.39375001192092896
1546;0.0;0.0;0.0;0.17665599286556244;-0.14347200095653534;1.1536319255828857;0.0;0.0;0.0
1548;0.0;0.0;0.0;0.18836799263954163;-0.15908800065517426;1.1331360340118408;0.0;0.0;0.0
1550;0.0;0.0;0.0;0.17665599286556244;-0.1512800008058548;1.1292319297790527;0.0;0.0;0.0
1552;0.08686399459838867;-0.01878799870610237;0.9874680042266846;0.18055999279022217;-0.15518400073051453;1.1380159854888916;0.33687499165534973;-0.49000000953674316;0.39375001192092896
1554;0.0;0.0;0.0;0.2000799924135208;-0.16299200057983398;1.1497279405593872;0.0;0.0;0.0
1556;0.0;0.0;0.0;0.1844639927148819;-0.14347200095653534;1.1536319255828857;0.0;0.0;0.0
1559;0.0;0.0;0.0;0.18836799263954163;-0.1668960005044937;1.1614400148391724;0.0;0.0;0.0
1561;0.08906000107526779;-0.018055999651551247;0.9879559874534607;0.2000799924135208;-0.15518400073051453;1.1536319255828857;0.2668749988079071;-0.21000000834465027;0.4637500047683716
1563;0.0;0.0;0.0;0.2000799924135208;-0.15518400073051453;1.1419199705123901;0.0;0.0;0.0
1565;0.0;0.0;0.0;0.2117919921875;-0.15518400073051453;1.1458239555358887;0.0;0.0;0.0
1567;0.0;0.0;0.0;0.21569599211215973;-0.1512800008058548;1.1331360340118408;0.0;0.0;0.0
1569;0.08979199826717377;-0.018300000578165054;0.9877119660377502;0.20398399233818054;-0.1512800008058548;1.1458239555358887;0.12687499821186066;0.21000000834465027;0.4637500047683716
1571;0.0;0.0;0.0;0.16884799301624298;-0.15908800065517426;1.1536319255828857;0.0;0.0;0.0
1573;0.0;0.0;0.0;0.18836799263954163;-0.16299200057983398;1.1175199747085571;0.0;0.0;0.0
1576;0.0;0.0;0.0;0.18836799263954163;-0.14347200095653534;1.1497279405593872;0.0;0.0;0.0
1578;0.08881600201129913;-0.01878799870610237;0.9889319539070129;0.19227199256420135;-0.1512800008058548;1.1497279405593872;-0.08312500268220901;0.699999988079071;0.39375001192092896
1580;0.0;0.0;0.0;0.21959999203681946;-0.15908800065517426;1.1292319297790527;0.0;0.0;0.0
1582;0.0;0.0;0.0;0.20788799226284027;-0.17080000042915344;1.1380159854888916;0.0;0.0;0.0
1584;0.0;0.0;0.0;0.2000799924135208;-0.17470400035381317;1.1214239597320557;0.0;0.0;0.0
1586;0.08661999553442001;-0.019276000559329987;0.9894199967384338;0.19227199256420135;-0.15908800065517426;1.1331360340118408;-0.22312501072883606;0.8400000333786011;0.4637500047683716
1588;0.0;0.0;0.0;0.1727519929409027;-0.16299200057983398;1.1497279405593872;0.0;0.0;0.0
1590;0.0;0.0;0.0;0.18836799263954163;-0.15518400073051453;1.1419199705123901;0.0;0.0;0.0
1593;0.0;0.0;0.0;0.16884799301624298;-0.16299200057983398;1.1497279405593872;0.0;0.0;0.0
1595;0.08515600115060806;-0.02000799961388111;0.9903959631919861;0.19617599248886108;-0.15908800065517426;1.1497279405593872;-0.15312500298023224;0.7700000405311584;0.39375001192092896
1597;0.0;0.0;0.0;0.1844639927148819;-0.16299200057983398;1.1497279405593872;0.0;0.0;0.0
1599;0.0;0.0;0.0;0.2000799924135208;-0.13176000118255615;1.1292319297790527;0.0;0.0;0.0
1601;0.0;0.0;0.0;0.2000799924135208;-0.14347200095653534;1.1380159854888916;0.0;0.0;0.0
1603;0.08344800025224686;-0.019763998687267303;0.9916160106658936;0.1844639927148819;-0.14347200095653534;1.1370400190353394;-0.08312500268220901;0.5600000023841858;0.39375001192092896
1605;0.0;0.0;0.0;0.17665599286556244;-0.13176000118255615;1.1536319255828857;0.0;0.0;0.0
1607;0.0;0.0;0.0;0.20788799226284027;-0.12785600125789642;1.1497279405593872;0.0;0.0;0.0
1610;0.0;0.0;0.0;0.1844639927148819;-0.1786080002784729;1.1458239555358887;0.0;0.0;0.0
1612;0.08369199931621552;-0.02025200054049492;0.9906399846076965;0.1844639927148819;-0.14737600088119507;1.1536319255828857;0.05687499791383743;0.21000000834465027;0.39375001192092896
1614;0.0;0.0;0.0;0.20788799226284027;-0.15908800065517426;1.1663199663162231;0.0;0.0;0.0
1616;0.0;0.0;0.0;0.2000799924135208;-0.1512800008058548;1.1214239597320557;0.0;0.0;0.0
1618;0.0;0.0;0.0;0.18836799263954163;-0.14737600088119507;1.1497279405593872;0.0;0.0;0.0
1620;0.08442399650812149;-0.02025200054049492;0.9911279678344727;0.2000799924135208;-0.1786080002784729;1.1458239555358887;0.19687500596046448;-0.07000000029802322;0.39375001192092896
1622;0.0;0.0;0.0;0.19227199256420135;-0.13566400110721588;1.1370400190353394;0.0;0.0;0.0
1624;0.0;0.0;0.0;0.2000799924135208;-0.15908800065517426;1.1419199705123901;0.0;0.0;0.0
1627;0.0;0.0;0.0;0.21959999203681946;-0.15518400073051453;1.1419199705123901;0.0;0.0;0.0
1629;0.08564399927854538;-0.02000799961388111;0.9911279678344727;0.19617599248886108;-0.14347200095653534;1.1536319255828857;0.2668749988079071;-0.21000000834465027;0.39375001192092896
1631;0.0;0.0;0.0;0.20398399233818054;-0.1668960005044937;1.1624159812927246;0.0;0.0;0.0
1633;0.0;0.0;0.0;0.2000799924135208;-0.15908800065517426;1.1380159854888916;0.0;0.0;0.0
1635;0.0;0.0;0.0;0.20398399233818054;-0.1512800008058548;1.1292319297790527;0.0;0.0;0.0
1637;0.08686399459838867;-0.019519999623298645;0.9889319539070129;0.18836799263954163;-0.1786080002784729;1.1253279447555542;0.2668749988079071;-0.21000000834465027;0.39375001192092896
1639;0.0;0.0;0.0;0.18055999279022217;-0.17470400035381317;1.1497279405593872;0.0;0.0;0.0
1641;0.0;0.0;0.0;0.18055999279022217;-0.1512800008058548;1.1292319297790527;0.0;0.0;0.0
1644;0.0;0.0;0.0;0.20788799226284027;-0.1239520013332367;1.1419199705123901;0.0;0.0;0.0
1646;0.08686399459838867;-0.019519999623298645;0.9882000088691711;0.1844639927148819;-0.17470400035381317;1.1331360340118408;0.19687500596046448;0.0;0.32375001907348633
1648;0.0;0.0;0.0;0.20398399233818054;-0.13566400110721588;1.1497279405593872;0.0;0.0;0.0
1650;0.0;0.0;0.0;0.20398399233818054;-0.14737600088119507;1.1292319297790527;0.0;0.0;0.0
1652;0.0;0.0;0.0;0.17665599286556244;-0.1512800008058548;1.1331360340118408;0.0;0.0;0.0
1654;0.08735200017690659;-0.01903199963271618;0.9884439706802368;0.18836799263954163;-0.15518400073051453;1.1458239555358887;0.05687499791383743;0.07000000029802322;0.39375001192092896
1656;0.0;0.0;0.0;0.21081599593162537;-0.1424959897994995;1.1419199705123901;0.0;0.0;0.0
1658;0.0;0.0;0.0;0.2030079960823059;-0.17763200402259827;1.1292319297790527;0.0;0.0;0.0
1661;0.0;0.0;0.0;0.17958399653434753;-0.16201600432395935;1.1253279447555542;0.0;0.0;0.0
1663;0.08735200017690659;-0.01878799870610237;0.9889319539070129;0.18348799645900726;-0.1542080044746399;1.1292319297790527;0.05687499791383743;0.3500000238418579;0.39375001192092896
1665;0.0;0.0;0.0;0.2030079960823059;-0.15811198949813843;1.1575360298156738;0.0;0.0;0.0
1667;0.0;0.0;0.0;0.19519999623298645;-0.15811198949813843;1.1575360298156738;0.0;0.0;0.0
1669;0.0;0.0;0.0;0.19519999623298645;-0.13859200477600098;1.1458239555358887;0.0;0.0;0.0
1671;0.08735200017690659;-0.02000799961388111;0.9896639585494995;0.187391996383667;-0.1542080044746399;1.1497279405593872;-0.013125000521540642;0.5600000023841858;0.4637500047683716
1674;0.0;0.0;0.0;0.187391996383667;-0.13859200477600098;1.1292319297790527;0.0;0.0;0.0
1675;0.0;0.0;0.0;0.19519999623298645;-0.1698240041732788;1.1458239555358887;0.0;0.0;0.0
1678;0.0;0.0;0.0;0.20691199600696564;-0.1698240041732788;1.1536319255828857;0.0;0.0;0.0
1680;0.08637599647045135;-0.019276000559329987;0.9896639585494995;0.20691199600696564;-0.1542080044746399;1.1575360298156738;-0.08312500268220901;0.5600000023841858;0.39375001192092896
1682;0.0;0.0;0.0;0.17177599668502808;-0.1542080044746399;1.1497279405593872;0.0;0.0;0.0
1684;0.0;0.0;0.0;0.20691199600696564;-0.1424959897994995;1.1497279405593872;0.0;0.0;0.0
1686;0.0;0.0;0.0;0.187391996383667;-0.14640000462532043;1.1458239555358887;0.0;0.0;0.0
1688;0.0849120020866394;-0.019276000559329987;0.9911279678344727;0.1756799966096878;-0.16591998934745789;1.1663199663162231;-0.08312500268220901;0.49000000953674316;0.39375001192092896
1690;0.0;0.0;0.0;0.19227199256420135;-0.18641600012779236;1.1497279405593872;0.0;0.0;0.0
1692;0.0;0.0;0.0;0.1844639927148819;-0.1512800008058548;1.1292319297790527;0.0;0.0;0.0
1695;0.0;0.0;0.0;0.17665599286556244;-0.17470400035381317;1.1536319255828857;0.0;0.0;0.0
1697;0.08417999744415283;-0.019519999623298645;0.990884006023407;0.17665599286556244;-0.1668960005044937;1.1292319297790527;-0.013125000521540642;0.2800000011920929;0.39375001192092896
1699;0.0;0.0;0.0;0.18055999279022217;-0.1512800008058548;1.1575360298156738;0.0;0.0;0.0
1701;0.0;0.0;0.0;0.21959999203681946;-0.1512800008058548;1.1419199705123901;0.0;0.0;0.0
1703;0.0;0.0;0.0;0.19617599248886108;-0.16299200057983398;1.1536319255828857;0.0;0.0;0.0
1705;0.08417999744415283;-0.019763998687267303;0.9901520013809204;0.20398399233818054;-0.15908800065517426;1.1497279405593872;0.12687499821186066;0.0;0.39375001192092896
1708;0.0;0.0;0.0;0.18836799263954163;-0.1668960005044937;1.1292319297790527;0.0;0.0;0.0
1710;0.0;0.0;0.0;0.17665599286556244;-0.17080000042915344;1.1458239555358887;0.0;0.0;0.0
1712;0.0;0.0;0.0;0.1571359932422638;-0.16299200057983398;1.1331360340118408;0.0;0.0;0.0
1714;0.08588799834251404;-0.02000799961388111;0.9896639585494995;0.18836799263954163;-0.13566400110721588;1.1497279405593872;0.19687500596046448;-0.14000000059604645;0.39375001192092896
1716;0.0;0.0;0.0;0.19227199256420135;-0.18251200020313263;1.1331360340118408;0.0;0.0;0.0
1718;0.0;0.0;0.0;0.19617599248886108;-0.16299200057983398;1.1536319255828857;0.0;0.0;0.0
1720;0.0;0.0;0.0;0.2117919921875;-0.17080000042915344;1.1380159854888916;0.0;0.0;0.0
1722;0.08637599647045135;-0.01903199963271618;0.9896639585494995;0.19617599248886108;-0.16299200057983398;1.1292319297790527;0.19687500596046448;-0.14000000059604645;0.32375001907348633
1724;0.0;0.0;0.0;0.2147199958562851;-0.1424959897994995;1.1419199705123901;0.0;0.0;0.0
1727;0.0;0.0;0.0;0.19910399615764618;-0.16591998934745789;1.1292319297790527;0.0;0.0;0.0
1729;0.0;0.0;0.0;0.17958399653434753;-0.13859200477600098;1.1331360340118408;0.0;0.0;0.0
1731;0.0878399983048439;-0.019276000559329987;0.9894199967384338;0.19910399615764618;-0.16201600432395935;1.1380159854888916;0.19687500596046448;0.0;0.39375001192092896
1733;0.0;0.0;0.0;0.19910399615764618;-0.15811198949813843;1.1370400190353394;0.0;0.0;0.0
1735;0.0;0.0;0.0;0.19129599630832672;-0.13859200477600098;1.1497279405593872;0.0;0.0;0.0
1737;0.0;0.0;0.0;0.187391996383667;-0.13859200477600098;1.1253279447555542;0.0;0.0;0.0
1739;0.08710800111293793;-0.018543999642133713;0.9886879920959473;0.2030079960823059;-0.1424959897994995;1.1780319213867188;0.05687499791383743;0.2800000011920929;0.39375001192092896
1742;0.0;0.0;0.0;0.18836799263954163;-0.15908800065517426;1.1331360340118408;0.0;0.0;0.0
1744;0.0;0.0;0.0;0.18055999279022217;-0.14737600088119507;1.1419199705123901;0.0;0.0;0.0
1746;0.0;0.0;0.0;0.16494399309158325;-0.14737600088119507;1.1331360340118408;0.0;0.0;0.0
1748;0.08710800111293793;-0.018300000578165054;0.9891759753227234;0.2117919921875;-0.1512800008058548;1.1458239555358887;-0.013125000521540642;0.49000000953674316;0.39375001192092896
1750;0.0;0.0;0.0;0.2117919921875;-0.13176000118255615;1.1292319297790527;0.0;0.0;0.0
1752;0.0;0.0;0.0;0.20398399233818054;-0.15908800065517426;1.1497279405593872;0.0;0.0;0.0
1754;0.0;0.0;0.0;0.20788799226284027;-0.16299200057983398;1.1214239597320557;0.0;0.0;0.0
1756;0.08564399927854538;-0.02000799961388111;0.9891759753227234;0.2235039919614792;-0.20983999967575073;1.1419199705123901;-0.013125000521540642;0.49000000953674316;0.39375001192092896
1759;0.0;0.0;0.0;0.1844639927148819;-0.13566400110721588;1.1419199705123901;0.0;0.0;0.0
1761;0.0;0.0;0.0;0.2000799924135208;-0.17080000042915344;1.1575360298156738;0.0;0.0;0.0
1763;0.0;0.0;0.0;0.20398399233818054;-0.16299200057983398;1.1458239555358887;0.0;0.0;0.0
1765;0.08588799834251404;-0.020739998668432236;0.9901520013809204;0.2117919921875;-0.15908800065517426;1.1380159854888916;0.05687499791383743;0.42000001668930054;0.39375001192092896
1767;0.0;0.0;0.0;0.1844639927148819;-0.15518400073051453;1.1614400148391724;0.0;0.0;0.0
1769;0.0;0.0;0.0;0.17665599286556244;-0.1512800008058548;1.1536319255828857;0.0;0.0;0.0
1771;0.0;0.0;0.0;0.20398399233818054;-0.1512800008058548;1.1292319297790527;0.0;0.0;0.0
1773;0.08515600115060806;-0.019763998687267303;0.9906399846076965;0.1727519929409027;-0.14347200095653534;1.1253279447555542;0.12687499821186066;0.2800000011920929;0.39375001192092896
1776;0.0;0.0;0.0;0.2000799924135208;-0.14737600088119507;1.1331360340118408;0.0;0.0;0.0
1778;0.0;0.0;0.0;0.18055999279022217;-0.1512800008058548;1.1497279405593872;0.0;0.0;0.0
1780;0.0;0.0;0.0;0.21569599211215973;-0.1512800008058548;1.1497279405593872;0.0;0.0;0.0
1782;0.0849120020866394;-0.02000799961388111;0.9901520013809204;0.19617599248886108;-0.15908800065517426;1.1419199705123901;0.12687499821186066;0.14000001549720764;0.39375001192092896
1784;0.0;0.0;0.0;0.20398399233818054;-0.13566400110721588;1.1458239555358887;0.0;0.0;0.0
1786;0.0;0.0;0.0;0.19617599248886108;-0.17080000042915344;1.1497279405593872;0.0;0.0;0.0
1788;0.0;0.0;0.0;0.21569599211215973;-0.15518400073051453;1.1624159812927246;0.0;0.0;0.0
1790;0.08588799834251404;-0.02025200054049492;0.9903959631919861;0.20788799226284027;-0.1512800008058548;1.1214239597320557;0.12687499821186066;0.07000000029802322;0.39375001192092896
1793;0.0;0.0;0.0;0.21862399578094482;-0.1542080044746399;1.1419199705123901;0.0;0.0;0.0
1795;0.0;0.0;0.0;0.20691199600696564;-0.1424959897994995;1.1458239555358887;0.0;0.0;0.0
1797;0.0;0.0;0.0;0.1756799966096878;-0.1542080044746399;1.1419199705123901;0.0;0.0;0.0
1799;0.08588799834251404;-0.019519999623298645;0.9901520013809204;0.19129599630832672;-0.15030398964881897;1.1536319255828857;0.19687500596046448;-0.07000000029802322;0.39375001192092896
1801;0.0;0.0;0.0;0.22252799570560455;-0.15811198949813843;1.1419199705123901;0.0;0.0;0.0
1803;0.0;0.0;0.0;0.2147199958562851;-0.1424959897994995;1.1419199705123901;0.0;0.0;0.0
1805;0.0;0.0;0.0;0.187391996383667;-0.16591998934745789;1.1575360298156738;0.0;0.0;0.0
1807;0.08588799834251404;-0.019519999623298645;0.9906399846076965;0.19129599630832672;-0.15811198949813843;1.1497279405593872;0.19687500596046448;0.07000000029802322;0.4637500047683716
1810;0.0;0.0;0.0;0.1727519929409027;-0.17080000042915344;1.1419199705123901;0.0;0.0;0.0
1812;0.0;0.0;0.0;0.1844639927148819;-0.13176000118255615;1.1458239555358887;0.0;0.0;0.0
1814;0.0;0.0;0.0;0.19227199256420135;-0.1668960005044937;1.1253279447555542;0.0;0.0;0.0
1816;0.08637599647045135;-0.019763998687267303;0.9894199967384338;0.19227199256420135;-0.15908800065517426;1.1214239597320557;0.12687499821186066;0.21000000834465027;0.39375001192092896
1818;0.0;0.0;0.0;0.2000799924135208;-0.15518400073051453;1.1253279447555542;0.0;0.0;0.0
1820;0.0;0.0;0.0;0.20788799226284027;-0.15518400073051453;1.1575360298156738;0.0;0.0;0.0
1822;0.0;0.0;0.0;0.1844639927148819;-0.14347200095653534;1.1292319297790527;0.0;0.0;0.0
1824;0.08686399459838867;-0.01903199963271618;0.9896639585494995;0.18055999279022217;-0.15908800065517426;1.1331360340118408;0.05687499791383743;0.21000000834465027;0.39375001192092896
1827;0.0;0.0;0.0;0.1756799966096878;-0.17372798919677734;1.1419199705123901;0.0;0.0;0.0
1829;0.0;0.0;0.0;0.2147199958562851;-0.15811198949813843;1.1331360340118408;0.0;0.0;0.0
1831;0.0;0.0;0.0;0.19519999623298645;-0.14640000462532043;1.1419199705123901;0.0;0.0;0.0
1833;0.08661999553442001;-0.019519999623298645;0.9901520013809204;0.19910399615764618;-0.1542080044746399;1.1253279447555542;0.05687499791383743;0.2800000011920929;0.39375001192092896
1835;0.0;0.0;0.0;0.2030079960823059;-0.13078400492668152;1.1292319297790527;0.0;0.0;0.0
1837;0.0;0.0;0.0;0.19129599630832672;-0.16201600432395935;1.1458239555358887;0.0;0.0;0.0
1839;0.0;0.0;0.0;0.187391996383667;-0.13859200477600098;1.1331360340118408;0.0;0.0;0.0
1841;0.0861319974064827;-0.019519999623298645;0.9901520013809204;0.19910399615764618;-0.1542080044746399;1.1575360298156738;0.05687499791383743;0.42000001668930054;0.39375001192092896
1844;0.0;0.0;0.0;0.2000799924135208;-0.16299200057983398;1.1497279405593872;0.0;0.0;0.0
1846;0.0;0.0;0.0;0.19227199256420135;-0.1668960005044937;1.1536319255828857;0.0;0.0;0.0
1848;0.0;0.0;0.0;0.18836799263954163;-0.1668960005044937;1.1214239597320557;0.0;0.0;0.0
1850;0.08637599647045135;-0.01903199963271618;0.9896639585494995;0.17665599286556244;-0.15908800065517426;1.1614400148391724;-0.013125000521540642;0.3500000238418579;0.39375001192092896
1852;0.0;0.0;0.0;0.17665599286556244;-0.1395680010318756;1.1497279405593872;0.0;0.0;0.0
1854;0.0;0.0;0.0;0.1844639927148819;-0.15908800065517426;1.1380159854888916;0.0;0.0;0.0
1856;0.0;0.0;0.0;0.21569599211215973;-0.15518400073051453;1.1497279405593872;0.0;0.0;0.0
1858;0.0861319974064827;-0.02025200054049492;0.9901520013809204;0.18055999279022217;-0.15518400073051453;1.1497279405593872;-0.013125000521540642;0.21000000834465027;0.39375001192092896
1861;0.0;0.0;0.0;0.2000799924135208;-0.15518400073051453;1.1497279405593872;0.0;0.0;0.0
1863;0.0;0.0;0.0;0.20398399233818054;-0.14737600088119507;1.1292319297790527;0.0;0.0;0.0
1865;0.0;0.0;0.0;0.20398399233818054;-0.1395680010318756;1.1380159854888916;0.0;0.0;0.0
1867;0.08540000021457672;-0.02000799961388111;0.9906399846076965;0.2000799924135208;-0.15908800065517426;1.1614400148391724;0.12687499821186066;0.14000001549720764;0.39375001192092896
1869;0.0;0.0;0.0;0.18836799263954163;-0.14737600088119507;1.1419199705123901;0.0;0.0;0.0
1871;0.0;0.0;0.0;0.19227199256420135;-0.15518400073051453;1.1380159854888916;0.0;0.0;0.0
1873;0.0;0.0;0.0;0.2000799924135208;-0.1395680010318756;1.1380159854888916;0.0;0.0;0.0
1875;0.08564399927854538;-0.019763998687267303;0.9896639585494995;0.16884799301624298;-0.15908800065517426;1.1419199705123901;0.12687499821186066;0.14000001549720764;0.39375001192092896
1878;0.0;0.0;0.0;0.2000799924135208;-0.15908800065517426;1.1331360340118408;0.0;0.0;0.0
1880;0.0;0.0;0.0;0.17665599286556244;-0.13566400110721588;1.1536319255828857;0.0;0.0;0.0
1882;0.0;0.0;0.0;0.1844639927148819;-0.17080000042915344;1.1419199705123901;0.0;0.0;0.0
1884;0.0861319974064827;-0.019763998687267303;0.9886879920959473;0.2235039919614792;-0.13566400110721588;1.1419199705123901;0.05687499791383743;0.14000001549720764;0.4593749940395355
1886;0.0;0.0;0.0;0.19617599248886108;-0.15908800065517426;1.1458239555358887;0.0;0.0;0.0
1888;0.0;0.0;0.0;0.18055999279022217;-0.12004800140857697;1.1458239555358887;0.0;0.0;0.0
1890;0.0;0.0;0.0;0.18055999279022217;-0.1668960005044937;1.1419199705123901;0.0;0.0;0.0
1892;0.0861319974064827;-0.019763998687267303;0.9894199967384338;0.20398399233818054;-0.1395680010318756;1.1497279405593872;0.1925000101327896;0.14000001549720764;0.3893750011920929
1895;0.0;0.0;0.0;0.16884799301624298;-0.15908800065517426;1.1497279405593872;0.0;0.0;0.0
1897;0.0;0.0;0.0;0.1844639927148819;-0.1512800008058548;1.1458239555358887;0.0;0.0;0.0
1899;0.0;0.0;0.0;0.2000799924135208;-0.15518400073051453;1.1370400190353394;0.0;0.0;0.0
1901;0.08686399459838867;-0.019519999623298645;0.9896639585494995;0.2000799924135208;-0.16299200057983398;1.1663199663162231;0.1925000101327896;0.21000000834465027;0.38499999046325684
1903;0.0;0.0;0.0;0.20398399233818054;-0.12785600125789642;1.1331360340118408;0.0;0.0;0.0
1905;0.0;0.0;0.0;0.20398399233818054;-0.1395680010318756;1.1497279405593872;0.0;0.0;0.0
1907;0.0;0.0;0.0;0.20398399233818054;-0.15518400073051453;1.1419199705123901;0.0;0.0;0.0
1909;0.08637599647045135;-0.01903199963271618;0.9886879920959473;0.19227199256420135;-0.15518400073051453;1.1380159854888916;0.05250000208616257;0.27562499046325684;0.38499999046325684
1912;0.0;0.0;0.0;0.19617599248886108;-0.1668960005044937;1.1380159854888916;0.0;0.0;0.0
1914;0.0;0.0;0.0;0.20788799226284027;-0.16299200057983398;1.1331360340118408;0.0;0.0;0.0
1916;0.0;0.0;0.0;0.2000799924135208;-0.15518400073051453;1.1331360340118408;0.0;0.0;0.0
1918;0.08564399927854538;-0.019276000559329987;0.9896639585494995;0.19227199256420135;-0.16299200057983398;1.1253279447555542;0.05250000208616257;0.27562499046325684;0.38062500953674316
1920;0.0;0.0;0.0;0.19617599248886108;-0.15518400073051453;1.1380159854888916;0.0;0.0;0.0
1922;0.0;0.0;0.0;0.19227199256420135;-0.1512800008058548;1.1331360340118408;0.0;0.0;0.0
1924;0.0;0.0;0.0;0.18836799263954163;-0.15908800065517426;1.1370400190353394;0.0;0.0;0.0
1926;0.0849120020866394;-0.019763998687267303;0.9894199967384338;0.20788799226284027;-0.16299200057983398;1.1419199705123901;0.12250000238418579;0.34562501311302185;0.38062500953674316
1929;0.0;0.0;0.0;0.19910399615764618;-0.17372798919677734;1.1497279405593872;0.0;0.0;0.0
1931;0.0;0.0;0.0;0.18348799645900726;-0.15811198949813843;1.1370400190353394;0.0;0.0;0.0
1933;0.0;0.0;0.0;0.19519999623298645;-0.1424959897994995;1.1575360298156738;0.0;0.0;0.0
1935;0.08588799834251404;-0.019519999623298645;0.9903959631919861;0.17958399653434753;-0.14640000462532043;1.1458239555358887;0.05250000208616257;0.27125000953674316;0.3762499988079071
1937;0.0;0.0;0.0;0.20691199600696564;-0.15030398964881897;1.1370400190353394;0.0;0.0;0.0
1939;0.0;0.0;0.0;0.17958399653434753;-0.16591998934745789;1.1292319297790527;0.0;0.0;0.0
1941;0.0;0.0;0.0;0.19129599630832672;-0.15030398964881897;1.1331360340118408;0.0;0.0;0.0
1943;0.08515600115060806;-0.02025200054049492;0.98990797996521;0.19519999623298645;-0.16591998934745789;1.1614400148391724;0.05250000208616257;0.20125000178813934;0.3762499988079071
1946;0.0;0.0;0.0;0.19519999623298645;-0.17763200402259827;1.1614400148391724;0.0;0.0;0.0
1948;0.0;0.0;0.0;0.19910399615764618;-0.15030398964881897;1.1292319297790527;0.0;0.0;0.0
1950;0.0;0.0;0.0;0.19519999623298645;-0.15030398964881897;1.1419199705123901;0.0;0.0;0.0
1952;0.08588799834251404;-0.019276000559329987;0.9896639585494995;0.187391996383667;-0.15811198949813843;1.1614400148391724;-0.017500000074505806;0.13125000894069672;0.3762499988079071
1954;0.0;0.0;0.0;0.19910399615764618;-0.16201600432395935;1.1741279363632202;0.0;0.0;0.0
1956;0.0;0.0;0.0;0.19910399615764618;-0.1542080044746399;1.1575360298156738;0.0;0.0;0.0
1958;0.0;0.0;0.0;0.20691199600696564;-0.16201600432395935;1.1419199705123901;0.0;0.0;0.0
1960;0.08564399927854538;-0.019519999623298645;0.9903959631919861;0.2147199958562851;-0.16591998934745789;1.1370400190353394;0.12250000238418579;0.061250001192092896;0.37187501788139343
1963;0.0;0.0;0.0;0.20398399233818054;-0.13566400110721588;1.1292319297790527;0.0;0.0;0.0
1965;0.0;0.0;0.0;0.20788799226284027;-0.1395680010318756;1.1292319297790527;0.0;0.0;0.0
1967;0.0;0.0;0.0;0.19227199256420135;-0.15908800065517426;1.1380159854888916;0.0;0.0;0.0
1969;0.0861319974064827;-0.01903199963271618;0.9891759753227234;0.20398399233818054;-0.13566400110721588;1.1331360340118408;0.18812501430511475;-0.008749999105930328;0.37187501788139343
1971;0.0;0.0;0.0;0.2000799924135208;-0.15908800065517426;1.1380159854888916;0.0;0.0;0.0
1973;0.0;0.0;0.0;0.19617599248886108;-0.1786080002784729;1.1292319297790527;0.0;0.0;0.0
1975;0.0;0.0;0.0;0.1844639927148819;-0.15518400073051453;1.1331360340118408;0.0;0.0;0.0
1977;0.08588799834251404;-0.019763998687267303;0.9886879920959473;0.20398399233818054;-0.1668960005044937;1.1575360298156738;0.11812499910593033;-0.008749999105930328;0.3675000071525574
1980;0.0;0.0;0.0;0.19617599248886108;-0.1512800008058548;1.1497279405593872;0.0;0.0;0.0
1982;0.0;0.0;0.0;0.19617599248886108;-0.1395680010318756;1.1458239555358887;0.0;0.0;0.0
1984;0.0;0.0;0.0;0.1844639927148819;-0.15908800065517426;1.1380159854888916;0.0;0.0;0.0
1986;0.08540000021457672;-0.019519999623298645;0.9882000088691711;0.19227199256420135;-0.14737600088119507;1.1458239555358887;0.048124998807907104;-0.008749999105930328;0.3675000071525574
1988;0.0;0.0;0.0;0.2000799924135208;-0.15518400073051453;1.1292319297790527;0.0;0.0;0.0
1990;0.0;0.0;0.0;0.1844639927148819;-0.15518400073051453;1.1458239555358887;0.0;0.0;0.0
1992;0.0;0.0;0.0;0.19227199256420135;-0.12785600125789642;1.1253279447555542;0.0;0.0;0.0
1994;0.08515600115060806;-0.018543999642133713;0.9872239828109741;0.18836799263954163;-0.15518400073051453;1.1331360340118408;0.11812499910593033;0.061250001192092896;0.3631250262260437
1997;0.0;0.0;0.0;0.21081599593162537;-0.1815359890460968;1.1175199747085571;0.0;0.0;0.0
1999;0.0;0.0;0.0;0.18348799645900726;-0.15811198949813843;1.1214239597320557;0.0;0.0;0.0
2001;0.0;0.0;0.0;0.19519999623298645;-0.1424959897994995;1.1497279405593872;0.0;0.0;0.0
2003;0.0849120020866394;-0.018300000578165054;0.9872239828109741;0.187391996383667;-0.14640000462532043;1.1292319297790527;0.048124998807907104;0.13125000894069672;0.3631250262260437
2005;0.0;0.0;0.0;0.2030079960823059;-0.15811198949813843;1.1331360340118408;0.0;0.0;0.0
2007;0.0;0.0;0.0;0.187391996383667;-0.12297599762678146;1.1458239555358887;0.0;0.0;0.0
2009;0.0;0.0;0.0;0.17958399653434753;-0.16591998934745789;1.1536319255828857;0.0;0.0;0.0
2011;0.0849120020866394;-0.018543999642133713;0.9852719902992249;0.17177599668502808;-0.17763200402259827;1.1331360340118408;0.11812499910593033;0.13125000894069672;0.3631250262260437
2014;0.0;0.0;0.0;0.19617599248886108;-0.1395680010318756;1.1331360340118408;0.0;0.0;0.0
2016;0.0;0.0;0.0;0.2117919921875;-0.1512800008058548;1.1497279405593872;0.0;0.0;0.0
2018;0.0;0.0;0.0;0.18836799263954163;-0.1668960005044937;1.1331360340118408;0.0;0.0;0.0
2020;0.08515600115060806;-0.018300000578165054;0.9852719902992249;0.19227199256420135;-0.1512800008058548;1.1331360340118408;0.048124998807907104;-0.008749999105930328;0.35875001549720764
2022;0.0;0.0;0.0;0.19227199256420135;-0.14347200095653534;1.1663199663162231;0.0;0.0;0.0
2024;0.0;0.0;0.0;0.19617599248886108;-0.15518400073051453;1.1292319297790527;0.0;0.0;0.0
2026;0.0;0.0;0.0;0.2000799924135208;-0.14737600088119507;1.1331360340118408;0.0;0.0;0.0
2028;0.08832799643278122;-0.01878799870610237;0.9860039949417114;0.1844639927148819;-0.14737600088119507;1.1624159812927246;-0.02187499962747097;0.19687500596046448;0.35875001549720764
2031;0.0;0.0;0.0;0.2030079960823059;-0.15030398964881897;1.1458239555358887;0.0;0.0;0.0
2033;0.0;0.0;0.0;0.2030079960823059;-0.1424959897994995;1.1536319255828857;0.0;0.0;0.0
2035;0.0;0.0;0.0;0.19129599630832672;-0.16591998934745789;1.1536319255828857;0.0;0.0;0.0
2037;0.09149999916553497;-0.018300000578165054;0.9896639585494995;0.187391996383667;-0.17372798919677734;1.1497279405593872;-0.2318750023841858;0.8225000500679016;0.3543750047683716
2039;0.0;0.0;0.0;0.21081599593162537;-0.14640000462532043;1.1419199705123901;0.0;0.0;0.0
2041;0.0;0.0;0.0;0.2030079960823059;-0.17763200402259827;1.1497279405593872;0.0;0.0;0.0
2043;0.0;0.0;0.0;0.22643199563026428;-0.15030398964881897;1.1497279405593872;0.0;0.0;0.0
2046;0.09223199635744095;-0.019519999623298645;0.9952759742736816;0.1756799966096878;-0.16201600432395935;1.1624159812927246;-0.5818750262260437;1.662500023841858;0.3543750047683716
2048;0.0;0.0;0.0;0.21569599211215973;-0.15908800065517426;1.1536319255828857;0.0;0.0;0.0
2050;0.0;0.0;0.0;0.1844639927148819;-0.1668960005044937;1.1497279405593872;0.0;0.0;0.0
2052;0.0;0.0;0.0;0.20788799226284027;-0.15908800065517426;1.1614400148391724;0.0;0.0;0.0
2054;0.08906000107526779;-0.020495999604463577;0.9989359974861145;0.19617599248886108;-0.17080000042915344;1.1458239555358887;-0.721875011920929;2.1524999141693115;0.4243749976158142
2056;0.0;0.0;0.0;0.20398399233818054;-0.1668960005044937;1.1536319255828857;0.0;0.0;0.0
2058;0.0;0.0;0.0;0.19227199256420135;-0.15908800065517426;1.1458239555358887;0.0;0.0;0.0
2060;0.0;0.0;0.0;0.2000799924135208;-0.16299200057983398;1.1419199705123901;0.0;0.0;0.0
2063;0.08344800025224686;-0.022204000502824783;1.0003999471664429;0.1844639927148819;-0.15908800065517426;1.1575360298156738;-0.5818750262260437;1.8025000095367432;0.49437499046325684
2065;0.0;0.0;0.0;0.20788799226284027;-0.17470400035381317;1.1614400148391724;0.0;0.0;0.0
2067;0.0;0.0;0.0;0.19617599248886108;-0.17470400035381317;1.1741279363632202;0.0;0.0;0.0
2069;0.0;0.0;0.0;0.16494399309158325;-0.15908800065517426;1.1536319255828857;0.0;0.0;0.0
2071;0.07832399755716324;-0.022935999557375908;0.9969840049743652;0.1844639927148819;-0.14347200095653534;1.1497279405593872;-0.02187499962747097;0.4724999964237213;0.28437501192092896
2073;0.0;0.0;0.0;0.19227199256420135;-0.17080000042915344;1.1458239555358887;0.0;0.0;0.0
2075;0.0;0.0;0.0;0.18836799263954163;-0.17080000042915344;1.1331360340118408;0.0;0.0;0.0
2077;0.0;0.0;0.0;0.19617599248886108;-0.1786080002784729;1.1497279405593872;0.0;0.0;0.0
2080;0.07710400223731995;-0.023180000483989716;0.9928359985351562;0.19227199256420135;-0.17470400035381317;1.1370400190353394;0.7481249570846558;-1.4175000190734863;0.3543750047683716
2082;0.0;0.0;0.0;0.19617599248886108;-0.14737600088119507;1.1536319255828857;0.0;0.0;0.0
2084;0.0;0.0;0.0;0.2117919921875;-0.14347200095653534;1.1331360340118408;0.0;0.0;0.0
2086;0.0;0.0;0.0;0.2000799924135208;-0.1395680010318756;1.1380159854888916;0.0;0.0;0.0
2088;0.08149600028991699;-0.022204000502824783;0.9874680042266846;0.20788799226284027;-0.15518400073051453;1.1458239555358887;1.3081250190734863;-2.817500114440918;0.28437501192092896
2090;0.0;0.0;0.0;0.16884799301624298;-0.13566400110721588;1.1419199705123901;0.0;0.0;0.0
2092;0.0;0.0;0.0;0.21959999203681946;-0.14737600088119507;1.1331360340118408;0.0;0.0;0.0
2094;0.0;0.0;0.0;0.20788799226284027;-0.16299200057983398;1.1380159854888916;0.0;0.0;0.0
2097;0.0907679945230484;-0.019276000559329987;0.9828319549560547;0.21569599211215973;-0.15518400073051453;1.1253279447555542;1.4481250047683716;-3.1675000190734863;0.28437501192092896
2099;0.0;0.0;0.0;0.22740799188613892;-0.12004800140857697;1.1380159854888916;0.0;0.0;0.0
2101;0.0;0.0;0.0;0.20788799226284027;-0.1668960005044937;1.1292319297790527;0.0;0.0;0.0
2103;0.0;0.0;0.0;0.2117919921875;-0.13176000118255615;1.1458239555358887;0.0;0.0;0.0
2105;0.09637999534606934;-0.015615999698638916;0.9801479578018188;0.21569599211215973;-0.17080000042915344;1.1380159854888916;1.0281249284744263;-2.117500066757202;0.28437501192092896
2107;0.0;0.0;0.0;0.21569599211215973;-0.1512800008058548;1.1419199705123901;0.0;0.0;0.0
2109;0.0;0.0;0.0;0.2117919921875;-0.11614400148391724;1.1458239555358887;0.0;0.0;0.0
2111;0.0;0.0;0.0;0.21569599211215973;-0.1395680010318756;1.1175199747085571;0.0;0.0;0.0
2114;0.09759999811649323;-0.014151999726891518;0.9811239838600159;0.19227199256420135;-0.1512800008058548;1.1419199705123901;0.328125;-0.3675000071525574;0.28437501192092896
2116;0.0;0.0;0.0;0.2000799924135208;-0.15518400073051453;1.1175199747085571;0.0;0.0;0.0
2118;0.0;0.0;0.0;0.20398399233818054;-0.1239520013332367;1.1497279405593872;0.0;0.0;0.0
2120;0.0;0.0;0.0;0.19617599248886108;-0.16299200057983398;1.1175199747085571;0.0;0.0;0.0
2122;0.09516000002622604;-0.014151999726891518;0.9823439717292786;0.20788799226284027;-0.15908800065517426;1.1292319297790527;-0.5118750333786011;1.4524999856948853;0.3543750047683716
2124;0.0;0.0;0.0;0.18055999279022217;-0.15518400073051453;1.1380159854888916;0.0;0.0;0.0
2126;0.0;0.0;0.0;0.1844639927148819;-0.15518400073051453;1.1292319297790527;0.0;0.0;0.0
2128;0.0;0.0;0.0;0.18836799263954163;-0.14737600088119507;1.1136159896850586;0.0;0.0;0.0
2131;0.09027999639511108;-0.01634800061583519;0.9838079810142517;0.2000799924135208;-0.17080000042915344;1.1458239555358887;-1.1418750286102295;3.0625;0.4243749976158142
2133;0.0;0.0;0.0;0.17958399653434753;-0.13859200477600098;1.1331360340118408;0.0;0.0;0.0
2135;0.0;0.0;0.0;0.19519999623298645;-0.16591998934745789;1.1536319255828857;0.0;0.0;0.0
2137;0.0;0.0;0.0;0.19910399615764618;-0.16591998934745789;1.1292319297790527;0.0;0.0;0.0
2139;0.08173999935388565;-0.019519999623298645;0.9901520013809204;0.1756799966096878;-0.15811198949813843;1.1497279405593872;-1.3518750667572021;3.692499876022339;0.49437499046325684
2141;0.0;0.0;0.0;0.21081599593162537;-0.15811198949813843;1.1741279363632202;0.0;0.0;0.0
2143;0.0;0.0;0.0;0.18348799645900726;-0.15811198949813843;1.1419199705123901;0.0;0.0;0.0
2145;0.0;0.0;0.0;0.2030079960823059;-0.15811198949813843;1.1575360298156738;0.0;0.0;0.0
2148;0.07612799853086472;-0.021715998649597168;0.9967399835586548;0.20691199600696564;-0.15811198949813843;1.1702239513397217;-1.1418750286102295;3.0625;0.49437499046325684
2150;0.0;0.0;0.0;0.19227199256420135;-0.1512800008058548;1.1458239555358887;0.0;0.0;0.0
2152;0.0;0.0;0.0;0.17665599286556244;-0.1668960005044937;1.1702239513397217;0.0;0.0;0.0
2154;0.0;0.0;0.0;0.17665599286556244;-0.16299200057983398;1.1575360298156738;0.0;0.0;0.0
2156;0.07441999763250351;-0.024643998593091965;0.9989359974861145;0.16884799301624298;-0.13176000118255615;1.1497279405593872;-0.5118750333786011;1.8725000619888306;0.4243749976158142
2158;0.0;0.0;0.0;0.18836799263954163;-0.1786080002784729;1.1331360340118408;0.0;0.0;0.0
2160;0.0;0.0;0.0;0.17665599286556244;-0.16299200057983398;1.1780319213867188;0.0;0.0;0.0
2162;0.0;0.0;0.0;0.1727519929409027;-0.18251200020313263;1.1458239555358887;0.0;0.0;0.0
2165;0.07149200141429901;-0.024643998593091965;1.0035719871520996;0.18836799263954163;-0.17080000042915344;1.1419199705123901;0.18812501430511475;-0.22749999165534973;0.3543750047683716
2167;0.0;0.0;0.0;0.1844639927148819;-0.17470400035381317;1.1536319255828857;0.0;0.0;0.0
2169;0.0;0.0;0.0;0.1727519929409027;-0.14347200095653534;1.1419199705123901;0.0;0.0;0.0
2171;0.0;0.0;0.0;0.19227199256420135;-0.1668960005044937;1.1536319255828857;0.0;0.0;0.0
2173;0.07930000126361847;-0.024156000465154648;0.9935680031776428;0.20398399233818054;-0.15518400073051453;1.1175199747085571;0.8881250023841858;-2.0475001335144043;0.28437501192092896
2175;0.0;0.0;0.0;0.20788799226284027;-0.14737600088119507;1.1458239555358887;0.0;0.0;0.0
2177;0.0;0.0;0.0;0.2235039919614792;-0.15908800065517426;1.1419199705123901;0.0;0.0;0.0
2179;0.0;0.0;0.0;0.16884799301624298;-0.16299200057983398;1.1458239555358887;0.0;0.0;0.0
2182;0.08540000021457672;-0.020739998668432236;0.9891759753227234;0.20398399233818054;-0.1512800008058548;1.1380159854888916;1.3781249523162842;-3.0275001525878906;0.21437498927116394
2184;0.0;0.0;0.0;0.22252799570560455;-0.16591998934745789;1.1419199705123901;0.0;0.0;0.0
2186;0.0;0.0;0.0;0.2030079960823059;-0.13859200477600098;1.1331360340118408;0.0;0.0;0.0
2188;0.0;0.0;0.0;0.20691199600696564;-0.1424959897994995;1.1253279447555542;0.0;0.0;0.0
2190;0.09393999725580215;-0.018055999651551247;0.9842959642410278;0.19910399615764618;-0.16591998934745789;1.1253279447555542;1.3081250190734863;-2.9575002193450928;0.28437501192092896
2192;0.0;0.0;0.0;0.19910399615764618;-0.15811198949813843;1.1331360340118408;0.0;0.0;0.0
2194;0.0;0.0;0.0;0.21081599593162537;-0.14640000462532043;1.134112000465393;0.0;0.0;0.0
2197;0.0;0.0;0.0;0.19129599630832672;-0.15030398964881897;1.1331360340118408;0.0;0.0;0.0
2199;0.09882000088691711;-0.015371999703347683;0.982587993144989;0.2420479953289032;-0.13468798995018005;1.1380159854888916;0.8181250095367432;-1.6274999380111694;0.28437501192092896
2201;0.0;0.0;0.0;0.19129599630832672;-0.1542080044746399;1.1380159854888916;0.0;0.0;0.0
2203;0.0;0.0;0.0;0.21862399578094482;-0.1542080044746399;1.1497279405593872;0.0;0.0;0.0
2205;0.0;0.0;0.0;0.19910399615764618;-0.15811198949813843;1.1380159854888916;0.0;0.0;0.0
2207;0.10028399527072906;-0.014639999717473984;0.9842959642410278;0.22252799570560455;-0.13859200477600098;1.1331360340118408;0.048124998807907104;0.26249998807907104;0.3543750047683716
2209;0.0;0.0;0.0;0.21081599593162537;-0.13859200477600098;1.1458239555358887;0.0;0.0;0.0
2211;0.0;0.0;0.0;0.187391996383667;-0.1698240041732788;1.1419199705123901;0.0;0.0;0.0
2214;0.0;0.0;0.0;0.19129599630832672;-0.1268799901008606;1.1497279405593872;0.0;0.0;0.0
2216;0.09613599628210068;-0.015615999698638916;0.9842959642410278;0.2147199958562851;-0.14640000462532043;1.1253279447555542;-0.721875011920929;2.0124998092651367;0.4243749976158142
2218;0.0;0.0;0.0;0.19129599630832672;-0.1424959897994995;1.1575360298156738;0.0;0.0;0.0
2220;0.0;0.0;0.0;0.20691199600696564;-0.16201600432395935;1.1214239597320557;0.0;0.0;0.0
2222;0.0;0.0;0.0;0.2030079960823059;-0.17763200402259827;1.1575360298156738;0.0;0.0;0.0
2224;0.08735200017690659;-0.018543999642133713;0.9879559874534607;0.19519999623298645;-0.1424959897994995;1.1497279405593872;-1.1418750286102295;3.132499933242798;0.4243749976158142
2226;0.0;0.0;0.0;0.19129599630832672;-0.1424959897994995;1.1458239555358887;0.0;0.0;0.0
2228;0.0;0.0;0.0;0.17958399653434753;-0.1698240041732788;1.1380159854888916;0.0;0.0;0.0
2231;0.0;0.0;0.0;0.1600639969110489;-0.14640000462532043;1.1497279405593872;0.0;0.0;0.0
2233;0.07759200036525726;-0.02122800052165985;0.9918599724769592;0.2030079960823059;-0.16591998934745789;1.1292319297790527;-1.1418750286102295;3.0625;0.49437499046325684
2235;0.0;0.0;0.0;0.18836799263954163;-0.15518400073051453;1.1419199705123901;0.0;0.0;0.0
2237;0.0;0.0;0.0;0.19227199256420135;-0.14737600088119507;1.1458239555358887;0.0;0.0;0.0
2239;0.0;0.0;0.0;0.1727519929409027;-0.17470400035381317;1.1663199663162231;0.0;0.0;0.0
2241;0.07344400137662888;-0.023667998611927032;0.9947879910469055;0.1727519929409027;-0.14347200095653534;1.1575360298156738;-0.6518750190734863;1.8725000619888306;0.4243749976158142
2243;0.0;0.0;0.0;0.16884799301624298;-0.18251200020313263;1.1458239555358887;0.0;0.0;0.0
2245;0.0;0.0;0.0;0.17665599286556244;-0.17470400035381317;1.1458239555358887;0.0;0.0;0.0
2248;0.0;0.0;0.0;0.18836799263954163;-0.15518400073051453;1.1419199705123901;0.0;0.0;0.0
2250;0.07344400137662888;-0.023180000483989716;0.9967399835586548;0.19227199256420135;-0.14737600088119507;1.1702239513397217;-0.02187499962747097;0.4025000035762787;0.3543750047683716
2252;0.0;0.0;0.0;0.1756799966096878;-0.15811198949813843;1.1497279405593872;0.0;0.0;0.0
2254;0.0;0.0;0.0;0.19910399615764618;-0.15030398964881897;1.1614400148391724;0.0;0.0;0.0
2256;0.0;0.0;0.0;0.1756799966096878;-0.15030398964881897;1.1497279405593872;0.0;0.0;0.0
2258;0.07661599665880203;-0.022204000502824783;0.9950319528579712;0.17177599668502808;-0.15811198949813843;1.1497279405593872;0.5381249785423279;-0.9275000095367432;0.28437501192092896
2260;0.0;0.0;0.0;0.17177599668502808;-0.15811198949813843;1.1614400148391724;0.0;0.0;0.0
2262;0.0;0.0;0.0;0.19910399615764618;-0.16201600432395935;1.1419199705123901;0.0;0.0;0.0
2265;0.0;0.0;0.0;0.2030079960823059;-0.16591998934745789;1.1536319255828857;0.0;0.0;0.0
2267;0.08271599560976028;-0.02147199958562851;0.9925919771194458;0.20691199600696564;-0.15811198949813843;1.1614400148391724;0.8881250023841858;-1.837499976158142;0.28437501192092896
2269;0.0;0.0;0.0;0.19227199256420135;-0.17470400035381317;1.1536319255828857;0.0;0.0;0.0
2271;0.0;0.0;0.0;0.18836799263954163;-0.15908800065517426;1.1331360340118408;0.0;0.0;0.0
2273;0.0;0.0;0.0;0.19227199256420135;-0.13566400110721588;1.1380159854888916;0.0;0.0;0.0
2275;0.08710800111293793;-0.019276000559329987;0.9874680042266846;0.2235039919614792;-0.14737600088119507;1.1458239555358887;0.9581249952316284;-1.9774999618530273;0.28437501192092896
2277;0.0;0.0;0.0;0.1844639927148819;-0.14737600088119507;1.1380159854888916;0.0;0.0;0.0
2279;0.0;0.0;0.0;0.18836799263954163;-0.13176000118255615;1.1253279447555542;0.0;0.0;0.0
2282;0.0;0.0;0.0;0.20788799226284027;-0.15908800065517426;1.1497279405593872;0.0;0.0;0.0
2284;0.09223199635744095;-0.017079999670386314;0.9840520024299622;0.19617599248886108;-0.1668960005044937;1.1380159854888916;0.6781249642372131;-1.4175000190734863;0.3543750047683716
2286;0.0;0.0;0.0;0.22252799570560455;-0.1424959897994995;1.1292319297790527;0.0;0.0;0.0
2288;0.0;0.0;0.0;0.18348799645900726;-0.13859200477600098;1.1292319297790527;0.0;0.0;0.0
2290;0.0;0.0;0.0;0.21081599593162537;-0.13859200477600098;1.1497279405593872;0.0;0.0;0.0
2292;0.09442799538373947;-0.01634800061583519;0.982587993144989;0.187391996383667;-0.1542080044746399;1.1536319255828857;0.328125;-0.3675000071525574;0.28437501192092896
2294;0.0;0.0;0.0;0.21081599593162537;-0.1542080044746399;1.1419199705123901;0.0;0.0;0.0
2296;0.0;0.0;0.0;0.19910399615764618;-0.15030398964881897;1.1458239555358887;0.0;0.0;0.0
2299;0.0;0.0;0.0;0.19519999623298645;-0.13859200477600098;1.1292319297790527;0.0;0.0;0.0
2301;0.09491600096225739;-0.016103999689221382;0.9840520024299622;0.21081599593162537;-0.1424959897994995;1.1331360340118408;-0.2318750023841858;0.9624999761581421;0.4243749976158142
2303;0.0;0.0;0.0;0.2000799924135208;-0.16299200057983398;1.1292319297790527;0.0;0.0;0.0
2305;0.0;0.0;0.0;0.18055999279022217;-0.14737600088119507;1.1419199705123901;0.0;0.0;0.0
2307;0.0;0.0;0.0;0.2235039919614792;-0.1512800008058548;1.1419199705123901;0.0;0.0;0.0
2309;0.0924759954214096;-0.01756799966096878;0.9874680042266846;0.1844639927148819;-0.15518400073051453;1.1458239555358887;-0.7918750047683716;2.0824999809265137;0.4243749976158142
2311;0.0;0.0;0.0;0.1844639927148819;-0.1512800008058548;1.1497279405593872;0.0;0.0;0.0
2313;0.0;0.0;0.0;0.19227199256420135;-0.1395680010318756;1.1380159854888916;0.0;0.0;0.0
2316;0.0;0.0;0.0;0.19617599248886108;-0.15518400073051453;1.1741279363632202;0.0;0.0;0.0
2318;0.08808399736881256;-0.019276000559329987;0.9928359985351562;0.18836799263954163;-0.15908800065517426;1.1292319297790527;-0.861875057220459;2.362499952316284;0.4243749976158142
2320;0.0;0.0;0.0;0.19227199256420135;-0.14737600088119507;1.1419199705123901;0.0;0.0;0.0
2322;0.0;0.0;0.0;0.18836799263954163;-0.1512800008058548;1.1214239597320557;0.0;0.0;0.0
2324;0.0;0.0;0.0;0.16884799301624298;-0.14347200095653534;1.1380159854888916;0.0;0.0;0.0
2326;0.08417999744415283;-0.021715998649597168;0.9947879910469055;0.2117919921875;-0.14737600088119507;1.1536319255828857;-0.721875011920929;2.0124998092651367;0.4243749976158142
2328;0.0;0.0;0.0;0.1727519929409027;-0.1786080002784729;1.1536319255828857;0.0;0.0;0.0
2331;0.0;0.0;0.0;0.19227199256420135;-0.15518400073051453;1.1575360298156738;0.0;0.0;0.0
2333;0.0;0.0;0.0;0.20788799226284027;-0.1512800008058548;1.1458239555358887;0.0;0.0;0.0
2335;0.07881199568510056;-0.024887999519705772;0.9957639575004578;0.19617599248886108;-0.14737600088119507;1.1458239555358887;-0.37187498807907104;1.102500081062317;0.3543750047683716
2337;0.0;0.0;0.0;0.18836799263954163;-0.18251200020313263;1.1458239555358887;0.0;0.0;0.0
2339;0.0;0.0;0.0;0.20398399233818054;-0.18641600012779236;1.1458239555358887;0.0;0.0;0.0
2341;0.0;0.0;0.0;0.19227199256420135;-0.1512800008058548;1.1419199705123901;0.0;0.0;0.0
2343;0.0785679966211319;-0.024399999529123306;0.9955199956893921;0.18055999279022217;-0.14347200095653534;1.1497279405593872;0.2581250071525574;-0.22749999165534973;0.28437501192092896
2346;0.0;0.0;0.0;0.15323199331760406;-0.1395680010318756;1.1497279405593872;0.0;0.0;0.0
2347;0.0;0.0;0.0;0.2117919921875;-0.1668960005044937;1.1536319255828857;0.0;0.0;0.0
2350;0.0;0.0;0.0;0.2117919921875;-0.15908800065517426;1.1331360340118408;0.0;0.0;0.0
2352;0.08076399564743042;-0.021959999576210976;0.9938119649887085;0.20398399233818054;-0.1512800008058548;1.1458239555358887;0.6081249713897705;-1.2074999809265137;0.28437501192092896
2354;0.0;0.0;0.0;0.17665599286556244;-0.12004800140857697;1.1380159854888916;0.0;0.0;0.0
2356;0.0;0.0;0.0;0.2000799924135208;-0.14347200095653534;1.1253279447555542;0.0;0.0;0.0
2358;0.0;0.0;0.0;0.19617599248886108;-0.17470400035381317;1.1253279447555542;0.0;0.0;0.0
2360;0.08295999467372894;-0.019763998687267303;0.9896639585494995;0.2000799924135208;-0.18251200020313263;1.1331360340118408;0.8881250023841858;-1.7675000429153442;0.3543750047683716
2362;0.0;0.0;0.0;0.20788799226284027;-0.17080000042915344;1.1253279447555542;0.0;0.0;0.0
2364;0.0;0.0;0.0;0.2000799924135208;-0.14737600088119507;1.1331360340118408;0.0;0.0;0.0
2367;0.0;0.0;0.0;0.2000799924135208;-0.14347200095653534;1.1458239555358887;0.0;0.0;0.0
2369;0.08759599924087524;-0.018300000578165054;0.9862479567527771;0.21959999203681946;-0.16299200057983398;1.1370400190353394;0.8181250095367432;-1.6274999380111694;0.3543750047683716
2371;0.0;0.0;0.0;0.21959999203681946;-0.15518400073051453;1.1458239555358887;0.0;0.0;0.0
