Timestamp(ms);LG-Accel x(g);LG-Accel y(g);LG-Accel z(g);HG-Accel x(g);HG-Accel y(g);HG-Accel z(g);Gyro x(dps);Gyro y(dps);Gyro z(dps)
60;0.0;0.0;0.0;0.19812799990177155;-0.13859200477600098;1.150704026222229;0.0;0.0;0.0
62;0.0;0.0;0.0;0.20203199982643127;-0.1268799901008606;1.134112000465393;0.0;0.0;0.0
64;0.0;0.0;0.0;0.20203199982643127;-0.14640000462532043;1.1428959369659424;0.0;0.0;0.0
66;0.0;0.0;0.0;0.18641600012779236;-0.15811198949813843;1.1672959327697754;0.0;0.0;0.0
68;0.0;0.0;0.0;0.21374399960041046;-0.1698240041732788;1.1624159812927246;0.0;0.0;0.0
71;0.0;0.0;0.0;0.20495998859405518;-0.14737600088119507;1.1360639333724976;0.0;0.0;0.0
73;0.0;0.0;0.0;0.17763200402259827;-0.12785600125789642;1.1370400190353394;0.0;0.0;0.0
75;0.0;0.0;0.0;0.1815359890460968;-0.16299200057983398;1.1370400190353394;0.0;0.0;0.0
77;0.08564399927854538;-0.019763998687267303;0.9894199967384338;0.21667200326919556;-0.17470400035381317;1.156559944152832;0.0;0.0;0.0
79;0.0;0.0;0.0;0.20495998859405518;-0.15518400073051453;1.132159948348999;0.0;0.0;0.0
81;0.0;0.0;0.0;0.18544000387191772;-0.1512800008058548;1.156559944152832;0.0;0.0;0.0
83;0.0;0.0;0.0;0.21276798844337463;-0.14737600088119507;1.148751974105835;0.0;0.0;0.0
85;0.08442399650812149;-0.020495999604463577;0.98990797996521;0.20105600357055664;-0.13176000118255615;1.1526559591293335;0.0;0.0;0.0
88;0.0;0.0;0.0;0.19324800372123718;-0.14347200095653534;1.1448479890823364;0.0;0.0;0.0
90;0.0;0.0;0.0;0.21276798844337463;-0.13566400110721588;1.148751974105835;0.0;0.0;0.0
92;0.0;0.0;0.0;0.21276798844337463;-0.17470400035381317;1.1282559633255005;0.0;0.0;0.0
94;0.0849120020866394;-0.020739998668432236;0.9901520013809204;0.20105600357055664;-0.14347200095653534;1.1370400190353394;0.0;0.0;0.0
96;0.0;0.0;0.0;0.19715198874473572;-0.17470400035381317;1.1282559633255005;0.0;0.0;0.0
98;0.0;0.0;0.0;0.19324800372123718;-0.16299200057983398;1.148751974105835;0.0;0.0;0.0
100;0.0;0.0;0.0;0.19324800372123718;-0.1395680010318756;1.1526559591293335;0.0;0.0;0.0
102;0.08442399650812149;-0.02000799961388111;0.9903959631919861;0.1815359890460968;-0.1512800008058548;1.1604639291763306;0.0;0.0;0.0
105;0.0;0.0;0.0;0.2117919921875;-0.15518400073051453;1.1360639333724976;0.0;0.0;0.0
107;0.0;0.0;0.0;0.2000799924135208;-0.15908800065517426;1.148751974105835;0.0;0.0;0.0
109;0.0;0.0;0.0;0.18836799263954163;-0.15908800065517426;1.1448479890823364;0.0;0.0;0.0
111;0.08466799557209015;-0.02000799961388111;0.98990797996521;0.1844639927148819;-0.15518400073051453;1.1526559591293335;0.0;0.0;0.0
113;0.0;0.0;0.0;0.1844639927148819;-0.13176000118255615;1.140944004058838;0.0;0.0;0.0
115;0.0;0.0;0.0;0.17665599286556244;-0.1395680010318756;1.148751974105835;0.0;0.0;0.0
117;0.0;0.0;0.0;0.16884799301624298;-0.14347200095653534;1.124351978302002;0.0;0.0;0.0
119;0.08442399650812149;-0.019763998687267303;0.9882000088691711;0.19227199256420135;-0.1512800008058548;1.132159948348999;0.07000000029802322;0.21000000834465027;0.49000000953674316
122;0.0;0.0;0.0;0.2000799924135208;-0.1512800008058548;1.132159948348999;0.0;0.0;0.0
124;0.0;0.0;0.0;0.18055999279022217;-0.16299200057983398;1.1370400190353394;0.0;0.0;0.0
126;0.0;0.0;0.0;0.19227199256420135;-0.1668960005044937;1.132159948348999;0.0;0.0;0.0
128;0.0849120020866394;-0.020495999604463577;0.9879559874534607;0.20398399233818054;-0.16299200057983398;1.148751974105835;0.07000000029802322;0.2800000011920929;0.49000000953674316
130;0.0;0.0;0.0;0.16884799301624298;-0.1512800008058548;1.1370400190353394;0.0;0.0;0.0
132;0.0;0.0;0.0;0.19227199256420135;-0.15518400073051453;1.140944004058838;0.0;0.0;0.0
134;0.0;0.0;0.0;0.1844639927148819;-0.15908800065517426;1.148751974105835;0.0;0.0;0.0
136;0.08564399927854538;-0.020739998668432236;0.9901520013809204;0.21569599211215973;-0.1668960005044937;1.140944004058838;0.07000000029802322;0.42000001668930054;0.49000000953674316
139;0.0;0.0;0.0;0.18836799263954163;-0.14347200095653534;1.1448479890823364;0.0;0.0;0.0
141;0.0;0.0;0.0;0.17665599286556244;-0.13566400110721588;1.1448479890823364;0.0;0.0;0.0
143;0.0;0.0;0.0;0.1844639927148819;-0.1668960005044937;1.148751974105835;0.0;0.0;0.0
145;0.08222799748182297;-0.020739998668432236;0.9918599724769592;0.18055999279022217;-0.14347200095653534;1.156559944152832;0.14000000059604645;0.2800000011920929;0.5600000023841858
147;0.0;0.0;0.0;0.19617599248886108;-0.13176000118255615;1.1360639333724976;0.0;0.0;0.0
149;0.0;0.0;0.0;0.18836799263954163;-0.1512800008058548;1.1370400190353394;0.0;0.0;0.0
151;0.0;0.0;0.0;0.19617599248886108;-0.14737600088119507;1.1448479890823364;0.0;0.0;0.0
154;0.08515600115060806;-0.019763998687267303;0.9894199967384338;0.18836799263954163;-0.14737600088119507;1.1370400190353394;0.14000000059604645;0.07000000029802322;0.5600000023841858
156;0.0;0.0;0.0;0.20398399233818054;-0.13176000118255615;1.1370400190353394;0.0;0.0;0.0
158;0.0;0.0;0.0;0.18836799263954163;-0.14737600088119507;1.1282559633255005;0.0;0.0;0.0
160;0.0;0.0;0.0;0.18836799263954163;-0.14347200095653534;1.156559944152832;0.0;0.0;0.0
162;0.08686399459838867;-0.019519999623298645;0.9882000088691711;0.19617599248886108;-0.1512800008058548;1.1370400190353394;0.07000000029802322;0.42000001668930054;0.49000000953674316
164;0.0;0.0;0.0;0.19617599248886108;-0.15908800065517426;1.1448479890823364;0.0;0.0;0.0
166;0.0;0.0;0.0;0.18836799263954163;-0.14737600088119507;1.1448479890823364;0.0;0.0;0.0
168;0.0;0.0;0.0;0.2000799924135208;-0.17080000042915344;1.1526559591293335;0.0;0.0;0.0
171;0.08417999744415283;-0.02000799961388111;0.98990797996521;0.19617599248886108;-0.15908800065517426;1.1526559591293335;0.07000000029802322;0.3499999940395355;0.49000000953674316
173;0.0;0.0;0.0;0.1844639927148819;-0.13176000118255615;1.1448479890823364;0.0;0.0;0.0
175;0.0;0.0;0.0;0.1727519929409027;-0.14347200095653534;1.148751974105835;0.0;0.0;0.0
177;0.0;0.0;0.0;0.19227199256420135;-0.11614400148391724;1.1448479890823364;0.0;0.0;0.0
179;0.08515600115060806;-0.02122800052165985;0.9901520013809204;0.1844639927148819;-0.14347200095653534;1.1126400232315063;0.07000000029802322;0.21000000834465027;0.49000000953674316
181;0.0;0.0;0.0;0.16494399309158325;-0.15518400073051453;1.1370400190353394;0.0;0.0;0.0
183;0.0;0.0;0.0;0.19617599248886108;-0.17080000042915344;1.148751974105835;0.0;0.0;0.0
185;0.0;0.0;0.0;0.20788799226284027;-0.14737600088119507;1.1526559591293335;0.0;0.0;0.0
188;0.08637599647045135;-0.019519999623298645;0.9874680042266846;0.2000799924135208;-0.14737600088119507;1.1370400190353394;0.07000000029802322;0.2800000011920929;0.49000000953674316
190;0.0;0.0;0.0;0.19617599248886108;-0.1395680010318756;1.148751974105835;0.0;0.0;0.0
192;0.0;0.0;0.0;0.18836799263954163;-0.15518400073051453;1.140944004058838;0.0;0.0;0.0
194;0.0;0.0;0.0;0.2117919921875;-0.15518400073051453;1.132159948348999;0.0;0.0;0.0
196;0.08417999744415283;-0.02000799961388111;0.9901520013809204;0.18836799263954163;-0.17470400035381317;1.1448479890823364;0.07000000029802322;0.42000001668930054;0.49000000953674316
198;0.0;0.0;0.0;0.20398399233818054;-0.15518400073051453;1.1370400190353394;0.0;0.0;0.0
200;0.0;0.0;0.0;0.19227199256420135;-0.1668960005044937;1.165343999862671;0.0;0.0;0.0
202;0.0;0.0;0.0;0.20398399233818054;-0.14737600088119507;1.1204479932785034;0.0;0.0;0.0
205;0.08466799557209015;-0.019763998687267303;0.9903959631919861;0.19227199256420135;-0.15518400073051453;1.140944004058838;0.14000000059604645;0.2800000011920929;0.49000000953674316
207;0.0;0.0;0.0;0.2117919921875;-0.16299200057983398;1.1204479932785034;0.0;0.0;0.0
209;0.0;0.0;0.0;0.18055999279022217;-0.14347200095653534;1.1282559633255005;0.0;0.0;0.0
211;0.0;0.0;0.0;0.1844639927148819;-0.17080000042915344;1.1282559633255005;0.0;0.0;0.0
213;0.08515600115060806;-0.02000799961388111;0.9896639585494995;0.19617599248886108;-0.18251200020313263;1.1282559633255005;0.07000000029802322;0.2800000011920929;0.49000000953674316
215;0.0;0.0;0.0;0.20398399233818054;-0.1668960005044937;1.1448479890823364;0.0;0.0;0.0
217;0.0;0.0;0.0;0.19227199256420135;-0.15908800065517426;1.1526559591293335;0.0;0.0;0.0
219;0.0;0.0;0.0;0.1727519929409027;-0.1668960005044937;1.1370400190353394;0.0;0.0;0.0
222;0.08442399650812149;-0.02122800052165985;0.9894199967384338;0.17665599286556244;-0.16299200057983398;1.1448479890823364;0.14000000059604645;0.2800000011920929;0.49000000953674316
224;0.0;0.0;0.0;0.17665599286556244;-0.15908800065517426;1.156559944152832;0.0;0.0;0.0
226;0.0;0.0;0.0;0.19617599248886108;-0.14737600088119507;1.132159948348999;0.0;0.0;0.0
228;0.0;0.0;0.0;0.20398399233818054;-0.17080000042915344;1.1282559633255005;0.0;0.0;0.0
230;0.08417999744415283;-0.02000799961388111;0.9896639585494995;0.18055999279022217;-0.17080000042915344;1.1526559591293335;0.21000000834465027;0.2800000011920929;0.49000000953674316
232;0.0;0.0;0.0;0.1844639927148819;-0.11614400148391724;1.148751974105835;0.0;0.0;0.0
234;0.0;0.0;0.0;0.2000799924135208;-0.1512800008058548;1.140944004058838;0.0;0.0;0.0
236;0.0;0.0;0.0;0.18055999279022217;-0.1395680010318756;1.148751974105835;0.0;0.0;0.0
239;0.08417999744415283;-0.02025200054049492;0.9886879920959473;0.19617599248886108;-0.15908800065517426;1.1526559591293335;0.07000000029802322;0.2800000011920929;0.49000000953674316
241;0.0;0.0;0.0;0.19617599248886108;-0.1395680010318756;1.156559944152832;0.0;0.0;0.0
243;0.0;0.0;0.0;0.19227199256420135;-0.15908800065517426;1.140944004058838;0.0;0.0;0.0
245;0.0;0.0;0.0;0.18055999279022217;-0.15518400073051453;1.124351978302002;0.0;0.0;0.0
247;0.08466799557209015;-0.019763998687267303;0.9884439706802368;0.20788799226284027;-0.17080000042915344;1.1360639333724976;0.14000000059604645;0.3499999940395355;0.49000000953674316
249;0.0;0.0;0.0;0.18836799263954163;-0.15518400073051453;1.148751974105835;0.0;0.0;0.0
251;0.0;0.0;0.0;0.19227199256420135;-0.18641600012779236;1.1360639333724976;0.0;0.0;0.0
253;0.0;0.0;0.0;0.18055999279022217;-0.14347200095653534;1.1448479890823364;0.0;0.0;0.0
256;0.08393599838018417;-0.02122800052165985;0.9896639585494995;0.2000799924135208;-0.1512800008058548;1.148751974105835;0.07000000029802322;0.2800000011920929;0.49000000953674316
258;0.0;0.0;0.0;0.18836799263954163;-0.15518400073051453;1.1526559591293335;0.0;0.0;0.0
260;0.0;0.0;0.0;0.20398399233818054;-0.13176000118255615;1.1770559549331665;0.0;0.0;0.0
262;0.0;0.0;0.0;0.20398399233818054;-0.1395680010318756;1.1526559591293335;0.0;0.0;0.0
264;0.08344800025224686;-0.020739998668432236;0.9903959631919861;0.2117919921875;-0.17080000042915344;1.1448479890823364;0.07000000029802322;0.21000000834465027;0.49000000953674316
266;0.0;0.0;0.0;0.2000799924135208;-0.14347200095653534;1.1360639333724976;0.0;0.0;0.0
268;0.0;0.0;0.0;0.20788799226284027;-0.1512800008058548;1.148751974105835;0.0;0.0;0.0
270;0.0;0.0;0.0;0.19227199256420135;-0.1512800008058548;1.140944004058838;0.0;0.0;0.0
273;0.08417999744415283;-0.020495999604463577;0.9894199967384338;0.2235039919614792;-0.15908800065517426;1.1448479890823364;0.07000000029802322;0.21000000834465027;0.49000000953674316
275;0.0;0.0;0.0;0.1844639927148819;-0.16299200057983398;1.148751974105835;0.0;0.0;0.0
277;0.0;0.0;0.0;0.1727519929409027;-0.1512800008058548;1.148751974105835;0.0;0.0;0.0
279;0.0;0.0;0.0;0.2000799924135208;-0.1512800008058548;1.156559944152832;0.0;0.0;0.0
281;0.08442399650812149;-0.020495999604463577;0.9891759753227234;0.18836799263954163;-0.1512800008058548;1.148751974105835;0.14000000059604645;0.3499999940395355;0.49000000953674316
283;0.0;0.0;0.0;0.18055999279022217;-0.12785600125789642;1.140944004058838;0.0;0.0;0.0
285;0.0;0.0;0.0;0.20398399233818054;-0.16299200057983398;1.1448479890823364;0.0;0.0;0.0
287;0.0;0.0;0.0;0.18836799263954163;-0.17470400035381317;1.1282559633255005;0.0;0.0;0.0
290;0.08369199931621552;-0.020739998668432236;0.9896639585494995;0.18836799263954163;-0.1512800008058548;1.1360639333724976;0.07000000029802322;0.3499999940395355;0.49000000953674316
292;0.0;0.0;0.0;0.17665599286556244;-0.16299200057983398;1.1526559591293335;0.0;0.0;0.0
294;0.0;0.0;0.0;0.20398399233818054;-0.15518400073051453;1.156559944152832;0.0;0.0;0.0
296;0.0;0.0;0.0;0.20398399233818054;-0.17470400035381317;1.1204479932785034;0.0;0.0;0.0
298;0.08417999744415283;-0.02000799961388111;0.9906399846076965;0.20398399233818054;-0.15908800065517426;1.1448479890823364;0.14000000059604645;0.2800000011920929;0.5600000023841858
300;0.0;0.0;0.0;0.20398399233818054;-0.13566400110721588;1.1360639333724976;0.0;0.0;0.0
302;0.0;0.0;0.0;0.19227199256420135;-0.1668960005044937;1.148751974105835;0.0;0.0;0.0
304;0.0;0.0;0.0;0.22740799188613892;-0.1512800008058548;1.1526559591293335;0.0;0.0;0.0
307;0.08588799834251404;-0.020495999604463577;0.9889319539070129;0.20788799226284027;-0.13176000118255615;1.1126400232315063;0.14000000059604645;0.21000000834465027;0.49000000953674316
309;0.0;0.0;0.0;0.19617599248886108;-0.1512800008058548;1.132159948348999;0.0;0.0;0.0
311;0.0;0.0;0.0;0.19227199256420135;-0.17470400035381317;1.1282559633255005;0.0;0.0;0.0
313;0.0;0.0;0.0;0.20788799226284027;-0.14737600088119507;1.124351978302002;0.0;0.0;0.0
315;0.08515600115060806;-0.02025200054049492;0.98990797996521;0.19227199256420135;-0.17080000042915344;1.1370400190353394;0.0;0.3499999940395355;0.49000000953674316
317;0.0;0.0;0.0;0.19227199256420135;-0.14737600088119507;1.156559944152832;0.0;0.0;0.0
319;0.0;0.0;0.0;0.20788799226284027;-0.16299200057983398;1.132159948348999;0.0;0.0;0.0
322;0.0;0.0;0.0;0.1844639927148819;-0.13566400110721588;1.132159948348999;0.0;0.0;0.0
324;0.08515600115060806;-0.02025200054049492;0.9896639585494995;0.19617599248886108;-0.17080000042915344;1.1448479890823364;0.07000000029802322;0.2800000011920929;0.49000000953674316
326;0.0;0.0;0.0;0.16494399309158325;-0.14347200095653534;1.132159948348999;0.0;0.0;0.0
328;0.0;0.0;0.0;0.1844639927148819;-0.15518400073051453;1.156559944152832;0.0;0.0;0.0
330;0.0;0.0;0.0;0.18836799263954163;-0.15908800065517426;1.173151969909668;0.0;0.0;0.0
332;0.08564399927854538;-0.020495999604463577;0.9896639585494995;0.18055999279022217;-0.15908800065517426;1.140944004058838;0.07000000029802322;0.21000000834465027;0.49000000953674316
334;0.0;0.0;0.0;0.20398399233818054;-0.13566400110721588;1.156559944152832;0.0;0.0;0.0
336;0.0;0.0;0.0;0.19617599248886108;-0.1668960005044937;1.132159948348999;0.0;0.0;0.0
339;0.0;0.0;0.0;0.18055999279022217;-0.16299200057983398;1.1614400148391724;0.0;0.0;0.0
341;0.08637599647045135;-0.02025200054049492;0.9891759753227234;0.20788799226284027;-0.1668960005044937;1.148751974105835;0.07000000029802322;0.3499999940395355;0.49000000953674316
343;0.0;0.0;0.0;0.2000799924135208;-0.14347200095653534;1.1282559633255005;0.0;0.0;0.0
345;0.0;0.0;0.0;0.18055999279022217;-0.15518400073051453;1.140944004058838;0.0;0.0;0.0
347;0.0;0.0;0.0;0.1844639927148819;-0.14737600088119507;1.1526559591293335;0.0;0.0;0.0
349;0.08540000021457672;-0.02122800052165985;0.9891759753227234;0.20398399233818054;-0.1668960005044937;1.124351978302002;0.07000000029802322;0.2800000011920929;0.5600000023841858
351;0.0;0.0;0.0;0.2117919921875;-0.1512800008058548;1.132159948348999;0.0;0.0;0.0
353;0.0;0.0;0.0;0.19617599248886108;-0.17470400035381317;1.1692479848861694;0.0;0.0;0.0
356;0.0;0.0;0.0;0.18055999279022217;-0.15908800065517426;1.124351978302002;0.0;0.0;0.0
358;0.08540000021457672;-0.020739998668432236;0.9901520013809204;0.19617599248886108;-0.15908800065517426;1.1282559633255005;0.14000000059604645;0.2800000011920929;0.49000000953674316
360;0.0;0.0;0.0;0.19227199256420135;-0.14737600088119507;1.1448479890823364;0.0;0.0;0.0
362;0.0;0.0;0.0;0.20788799226284027;-0.14347200095653534;1.1165440082550049;0.0;0.0;0.0
364;0.0;0.0;0.0;0.15323199331760406;-0.12785600125789642;1.1526559591293335;0.0;0.0;0.0
366;0.0849120020866394;-0.020495999604463577;0.9894199967384338;0.1844639927148819;-0.12785600125789642;1.132159948348999;0.14000000059604645;0.21000000834465027;0.49000000953674316
368;0.0;0.0;0.0;0.20398399233818054;-0.16299200057983398;1.148751974105835;0.0;0.0;0.0
370;0.0;0.0;0.0;0.1844639927148819;-0.1668960005044937;1.1448479890823364;0.0;0.0;0.0
373;0.0;0.0;0.0;0.20398399233818054;-0.15518400073051453;1.1448479890823364;0.0;0.0;0.0
375;0.0849120020866394;-0.019763998687267303;0.9896639585494995;0.19617599248886108;-0.1786080002784729;1.1448479890823364;0.07000000029802322;0.2800000011920929;0.49000000953674316
377;0.0;0.0;0.0;0.19617599248886108;-0.15518400073051453;1.165343999862671;0.0;0.0;0.0
379;0.0;0.0;0.0;0.20788799226284027;-0.15518400073051453;1.1360639333724976;0.0;0.0;0.0
381;0.0;0.0;0.0;0.20398399233818054;-0.15908800065517426;1.156559944152832;0.0;0.0;0.0
383;0.08466799557209015;-0.020495999604463577;0.9896639585494995;0.1727519929409027;-0.18251200020313263;1.132159948348999;0.14000000059604645;0.21000000834465027;0.5600000023841858
385;0.0;0.0;0.0;0.20398399233818054;-0.1512800008058548;1.148751974105835;0.0;0.0;0.0
387;0.0;0.0;0.0;0.18836799263954163;-0.1512800008058548;1.140944004058838;0.0;0.0;0.0
390;0.0;0.0;0.0;0.2117919921875;-0.15518400073051453;1.1692479848861694;0.0;0.0;0.0
392;0.08417999744415283;-0.02000799961388111;0.9889319539070129;0.17665599286556244;-0.1668960005044937;1.1282559633255005;0.07000000029802322;0.2800000011920929;0.5600000023841858
394;0.0;0.0;0.0;0.20788799226284027;-0.17080000042915344;1.124351978302002;0.0;0.0;0.0
396;0.0;0.0;0.0;0.21959999203681946;-0.1512800008058548;1.1282559633255005;0.0;0.0;0.0
398;0.0;0.0;0.0;0.1727519929409027;-0.15908800065517426;1.1370400190353394;0.0;0.0;0.0
400;0.08466799557209015;-0.02025200054049492;0.9891759753227234;0.2000799924135208;-0.15518400073051453;1.1448479890823364;0.07000000029802322;0.3499999940395355;0.49000000953674316
402;0.0;0.0;0.0;0.18055999279022217;-0.16299200057983398;1.1370400190353394;0.0;0.0;0.0
404;0.0;0.0;0.0;0.2000799924135208;-0.16299200057983398;1.156559944152832;0.0;0.0;0.0
407;0.0;0.0;0.0;0.19227199256420135;-0.1786080002784729;1.1448479890823364;0.0;0.0;0.0
409;0.08466799557209015;-0.020495999604463577;0.9901520013809204;0.20398399233818054;-0.15908800065517426;1.1604639291763306;0.14000000059604645;0.2800000011920929;0.5600000023841858
411;0.0;0.0;0.0;0.1727519929409027;-0.14737600088119507;1.140944004058838;0.0;0.0;0.0
413;0.0;0.0;0.0;0.18055999279022217;-0.1395680010318756;1.1282559633255005;0.0;0.0;0.0
415;0.0;0.0;0.0;0.18836799263954163;-0.13566400110721588;1.1204479932785034;0.0;0.0;0.0
417;0.08442399650812149;-0.020495999604463577;0.9906399846076965;0.1571359932422638;-0.13176000118255615;1.132159948348999;0.07000000029802322;0.3499999940395355;0.49000000953674316
419;0.0;0.0;0.0;0.19617599248886108;-0.18251200020313263;1.1448479890823364;0.0;0.0;0.0
421;0.0;0.0;0.0;0.17665599286556244;-0.15518400073051453;1.132159948348999;0.0;0.0;0.0
424;0.0;0.0;0.0;0.1727519929409027;-0.14347200095653534;1.1448479890823364;0.0;0.0;0.0
426;0.0849120020866394;-0.020495999604463577;0.9894199967384338;0.16884799301624298;-0.13176000118255615;1.148751974105835;0.14000000059604645;0.2800000011920929;0.49000000953674316
428;0.0;0.0;0.0;0.18836799263954163;-0.15908800065517426;1.148751974105835;0.0;0.0;0.0
430;0.0;0.0;0.0;0.2117919921875;-0.14737600088119507;1.1370400190353394;0.0;0.0;0.0
432;0.0;0.0;0.0;0.2000799924135208;-0.1668960005044937;1.1604639291763306;0.0;0.0;0.0
434;0.0849120020866394;-0.02025200054049492;0.9903959631919861;0.20398399233818054;-0.1512800008058548;1.156559944152832;0.14000000059604645;0.3499999940395355;0.49000000953674316
436;0.0;0.0;0.0;0.20398399233818054;-0.13566400110721588;1.124351978302002;0.0;0.0;0.0
438;0.0;0.0;0.0;0.17665599286556244;-0.13566400110721588;1.1370400190353394;0.0;0.0;0.0
441;0.0;0.0;0.0;0.1844639927148819;-0.14347200095653534;1.1448479890823364;0.0;0.0;0.0
443;0.08540000021457672;-0.019763998687267303;0.98990797996521;0.17665599286556244;-0.15908800065517426;1.132159948348999;0.14000000059604645;0.2800000011920929;0.49000000953674316
445;0.0;0.0;0.0;0.16103999316692352;-0.14737600088119507;1.140944004058838;0.0;0.0;0.0
447;0.0;0.0;0.0;0.18836799263954163;-0.15518400073051453;1.1370400190353394;0.0;0.0;0.0
449;0.0;0.0;0.0;0.2000799924135208;-0.14347200095653534;1.148751974105835;0.0;0.0;0.0
451;0.08515600115060806;-0.02025200054049492;0.9901520013809204;0.1844639927148819;-0.1668960005044937;1.140944004058838;0.21000000834465027;0.3499999940395355;0.49000000953674316
454;0.0;0.0;0.0;0.19227199256420135;-0.15518400073051453;1.140944004058838;0.0;0.0;0.0
455;0.0;0.0;0.0;0.20398399233818054;-0.15518400073051453;1.140944004058838;0.0;0.0;0.0
458;0.0;0.0;0.0;0.20398399233818054;-0.15908800065517426;1.1282559633255005;0.0;0.0;0.0
460;0.08515600115060806;-0.019519999623298645;0.9901520013809204;0.19227199256420135;-0.1668960005044937;1.1204479932785034;0.14000000059604645;0.2800000011920929;0.49000000953674316
462;0.0;0.0;0.0;0.18055999279022217;-0.1512800008058548;1.148751974105835;0.0;0.0;0.0
464;0.0;0.0;0.0;0.1844639927148819;-0.15908800065517426;1.140944004058838;0.0;0.0;0.0
466;0.0;0.0;0.0;0.2235039919614792;-0.13566400110721588;1.1370400190353394;0.0;0.0;0.0
468;0.0849120020866394;-0.019763998687267303;0.9889319539070129;0.19227199256420135;-0.1512800008058548;1.140944004058838;0.07000000029802322;0.2800000011920929;0.49000000953674316
471;0.0;0.0;0.0;0.19227199256420135;-0.16299200057983398;1.132159948348999;0.0;0.0;0.0
472;0.0;0.0;0.0;0.2117919921875;-0.15908800065517426;1.132159948348999;0.0;0.0;0.0
475;0.0;0.0;0.0;0.2000799924135208;-0.1668960005044937;1.156559944152832;0.0;0.0;0.0
477;0.08564399927854538;-0.02025200054049492;0.98990797996521;0.20398399233818054;-0.1512800008058548;1.1370400190353394;0.14000000059604645;0.21000000834465027;0.49000000953674316
479;0.0;0.0;0.0;0.19227199256420135;-0.15908800065517426;1.1526559591293335;0.0;0.0;0.0
481;0.0;0.0;0.0;0.2235039919614792;-0.15518400073051453;1.140944004058838;0.0;0.0;0.0
483;0.0;0.0;0.0;0.20788799226284027;-0.17470400035381317;1.156559944152832;0.0;0.0;0.0
485;0.0849120020866394;-0.020983999595046043;0.9889319539070129;0.2117919921875;-0.14737600088119507;1.148751974105835;0.14000000059604645;0.2800000011920929;0.49000000953674316
488;0.0;0.0;0.0;0.21959999203681946;-0.1512800008058548;1.132159948348999;0.0;0.0;0.0
490;0.0;0.0;0.0;0.2117919921875;-0.18251200020313263;1.132159948348999;0.0;0.0;0.0
492;0.0;0.0;0.0;0.18055999279022217;-0.17470400035381317;1.1370400190353394;0.0;0.0;0.0
494;0.0849120020866394;-0.02147199958562851;0.9886879920959473;0.2000799924135208;-0.14737600088119507;1.1526559591293335;0.07000000029802322;0.2800000011920929;0.49000000953674316
496;0.0;0.0;0.0;0.2000799924135208;-0.1395680010318756;1.1526559591293335;0.0;0.0;0.0
498;0.0;0.0;0.0;0.20398399233818054;-0.14347200095653534;1.140944004058838;0.0;0.0;0.0
500;0.0;0.0;0.0;0.17665599286556244;-0.1786080002784729;1.1370400190353394;0.0;0.0;0.0
502;0.08442399650812149;-0.020739998668432236;0.9896639585494995;0.20788799226284027;-0.17470400035381317;1.1360639333724976;0.14000000059604645;0.2800000011920929;0.49000000953674316
505;0.0;0.0;0.0;0.18836799263954163;-0.17080000042915344;1.132159948348999;0.0;0.0;0.0
507;0.0;0.0;0.0;0.20788799226284027;-0.1668960005044937;1.148751974105835;0.0;0.0;0.0
509;0.0;0.0;0.0;0.16494399309158325;-0.17080000042915344;1.132159948348999;0.0;0.0;0.0
511;0.08588799834251404;-0.019519999623298645;0.9894199967384338;0.21569599211215973;-0.13566400110721588;1.1282559633255005;0.07000000029802322;0.2800000011920929;0.49000000953674316
513;0.0;0.0;0.0;0.17665599286556244;-0.17470400035381317;1.148751974105835;0.0;0.0;0.0
515;0.0;0.0;0.0;0.19617599248886108;-0.13176000118255615;1.140944004058838;0.0;0.0;0.0
517;0.0;0.0;0.0;0.19227199256420135;-0.14737600088119507;1.132159948348999;0.0;0.0;0.0
519;0.0849120020866394;-0.02025200054049492;0.9903959631919861;0.20788799226284027;-0.17470400035381317;1.1370400190353394;0.07000000029802322;0.2800000011920929;0.49000000953674316
522;0.0;0.0;0.0;0.20788799226284027;-0.16299200057983398;1.1360639333724976;0.0;0.0;0.0
524;0.0;0.0;0.0;0.1727519929409027;-0.13176000118255615;1.1604639291763306;0.0;0.0;0.0
526;0.0;0.0;0.0;0.1727519929409027;-0.1512800008058548;1.1448479890823364;0.0;0.0;0.0
528;0.08466799557209015;-0.02000799961388111;0.9903959631919861;0.20398399233818054;-0.15908800065517426;1.1360639333724976;0.07000000029802322;0.2800000011920929;0.49000000953674316
530;0.0;0.0;0.0;0.20398399233818054;-0.14347200095653534;1.156559944152832;0.0;0.0;0.0
532;0.0;0.0;0.0;0.17665599286556244;-0.1786080002784729;1.1370400190353394;0.0;0.0;0.0
534;0.0;0.0;0.0;0.19617599248886108;-0.15518400073051453;1.1448479890823364;0.0;0.0;0.0
536;0.08393599838018417;-0.019763998687267303;0.9891759753227234;0.2117919921875;-0.14347200095653534;1.148751974105835;0.14000000059604645;0.21000000834465027;0.49000000953674316
539;0.0;0.0;0.0;0.18836799263954163;-0.1239520013332367;1.140944004058838;0.0;0.0;0.0
541;0.0;0.0;0.0;0.20398399233818054;-0.14347200095653534;1.173151969909668;0.0;0.0;0.0
543;0.0;0.0;0.0;0.21569599211215973;-0.1786080002784729;1.1370400190353394;0.0;0.0;0.0
545;0.08442399650812149;-0.019519999623298645;0.9889319539070129;0.19227199256420135;-0.14737600088119507;1.132159948348999;0.14000000059604645;0.21000000834465027;0.49000000953674316
547;0.0;0.0;0.0;0.19227199256420135;-0.16299200057983398;1.1370400190353394;0.0;0.0;0.0
549;0.0;0.0;0.0;0.19617599248886108;-0.15518400073051453;1.140944004058838;0.0;0.0;0.0
551;0.0;0.0;0.0;0.19617599248886108;-0.14737600088119507;1.1370400190353394;0.0;0.0;0.0
553;0.0849120020866394;-0.02025200054049492;0.9889319539070129;0.20788799226284027;-0.16299200057983398;1.1526559591293335;0.14000000059604645;0.2800000011920929;0.49000000953674316
556;0.0;0.0;0.0;0.2000799924135208;-0.1668960005044937;1.1370400190353394;0.0;0.0;0.0
558;0.0;0.0;0.0;0.1844639927148819;-0.1512800008058548;1.1370400190353394;0.0;0.0;0.0
560;0.0;0.0;0.0;0.1727519929409027;-0.1239520013332367;1.1370400190353394;0.0;0.0;0.0
562;0.08466799557209015;-0.021715998649597168;0.9894199967384338;0.18055999279022217;-0.15908800065517426;1.1692479848861694;0.07000000029802322;0.3499999940395355;0.49000000953674316
564;0.0;0.0;0.0;0.2000799924135208;-0.1668960005044937;1.1282559633255005;0.0;0.0;0.0
566;0.0;0.0;0.0;0.17665599286556244;-0.15908800065517426;1.1448479890823364;0.0;0.0;0.0
568;0.0;0.0;0.0;0.19227199256420135;-0.14737600088119507;1.148751974105835;0.0;0.0;0.0
570;0.08393599838018417;-0.020983999595046043;0.9906399846076965;0.18055999279022217;-0.1668960005044937;1.148751974105835;0.14000000059604645;0.21000000834465027;0.49000000953674316
573;0.0;0.0;0.0;0.19617599248886108;-0.1668960005044937;1.1282559633255005;0.0;0.0;0.0
575;0.0;0.0;0.0;0.19617599248886108;-0.14737600088119507;1.1448479890823364;0.0;0.0;0.0
577;0.0;0.0;0.0;0.18055999279022217;-0.13566400110721588;1.1204479932785034;0.0;0.0;0.0
579;0.08540000021457672;-0.020983999595046043;0.9894199967384338;0.18836799263954163;-0.16299200057983398;1.140944004058838;0.14000000059604645;0.21000000834465027;0.49000000953674316
581;0.0;0.0;0.0;0.20398399233818054;-0.15518400073051453;1.132159948348999;0.0;0.0;0.0
583;0.0;0.0;0.0;0.18836799263954163;-0.1668960005044937;1.1448479890823364;0.0;0.0;0.0
585;0.0;0.0;0.0;0.19227199256420135;-0.13176000118255615;1.1370400190353394;0.0;0.0;0.0
587;0.08637599647045135;-0.019763998687267303;0.9884439706802368;0.19227199256420135;-0.14347200095653534;1.148751974105835;0.14000000059604645;0.21000000834465027;0.49000000953674316
590;0.0;0.0;0.0;0.19227199256420135;-0.16299200057983398;1.148751974105835;0.0;0.0;0.0
592;0.0;0.0;0.0;0.20398399233818054;-0.1512800008058548;1.132159948348999;0.0;0.0;0.0
594;0.0;0.0;0.0;0.1844639927148819;-0.17470400035381317;1.140944004058838;0.0;0.0;0.0
596;0.08515600115060806;-0.01903199963271618;0.9886879920959473;0.1844639927148819;-0.1395680010318756;1.140944004058838;0.07000000029802322;0.3499999940395355;0.49000000953674316
598;0.0;0.0;0.0;0.19617599248886108;-0.15518400073051453;1.148751974105835;0.0;0.0;0.0
600;0.0;0.0;0.0;0.19617599248886108;-0.15518400073051453;1.1448479890823364;0.0;0.0;0.0
602;0.0;0.0;0.0;0.17665599286556244;-0.1512800008058548;1.1370400190353394;0.0;0.0;0.0
604;0.08393599838018417;-0.02025200054049492;0.9906399846076965;0.21959999203681946;-0.18251200020313263;1.140944004058838;0.07000000029802322;0.3499999940395355;0.49000000953674316
607;0.0;0.0;0.0;0.19227199256420135;-0.1668960005044937;1.1526559591293335;0.0;0.0;0.0
609;0.0;0.0;0.0;0.19227199256420135;-0.13176000118255615;1.148751974105835;0.0;0.0;0.0
611;0.0;0.0;0.0;0.19227199256420135;-0.1512800008058548;1.124351978302002;0.0;0.0;0.0
613;0.08442399650812149;-0.02000799961388111;0.9903959631919861;0.1844639927148819;-0.14737600088119507;1.132159948348999;0.21000000834465027;0.14000000059604645;0.49000000953674316
615;0.0;0.0;0.0;0.19227199256420135;-0.15908800065517426;1.1526559591293335;0.0;0.0;0.0
617;0.0;0.0;0.0;0.17665599286556244;-0.16299200057983398;1.132159948348999;0.0;0.0;0.0
619;0.0;0.0;0.0;0.19227199256420135;-0.1395680010318756;1.140944004058838;0.0;0.0;0.0
621;0.08540000021457672;-0.019763998687267303;0.9886879920959473;0.20788799226284027;-0.15518400073051453;1.1448479890823364;0.14000000059604645;0.21000000834465027;0.49000000953674316
624;0.0;0.0;0.0;0.19617599248886108;-0.16299200057983398;1.1448479890823364;0.0;0.0;0.0
626;0.0;0.0;0.0;0.19227199256420135;-0.14737600088119507;1.148751974105835;0.0;0.0;0.0
628;0.0;0.0;0.0;0.1844639927148819;-0.15518400073051453;1.140944004058838;0.0;0.0;0.0
630;0.08540000021457672;-0.019276000559329987;0.9891759753227234;0.15323199331760406;-0.1668960005044937;1.156559944152832;0.0;0.3499999940395355;0.49000000953674316
632;0.0;0.0;0.0;0.18836799263954163;-0.17080000042915344;1.124351978302002;0.0;0.0;0.0
634;0.0;0.0;0.0;0.1844639927148819;-0.16299200057983398;1.140944004058838;0.0;0.0;0.0
636;0.0;0.0;0.0;0.2235039919614792;-0.14737600088119507;1.140944004058838;0.0;0.0;0.0
638;0.08369199931621552;-0.020495999604463577;0.990884006023407;0.19617599248886108;-0.19422399997711182;1.1604639291763306;0.14000000059604645;0.3499999940395355;0.49000000953674316
641;0.0;0.0;0.0;0.18055999279022217;-0.16299200057983398;1.148751974105835;0.0;0.0;0.0
643;0.0;0.0;0.0;0.2000799924135208;-0.1668960005044937;1.165343999862671;0.0;0.0;0.0
645;0.0;0.0;0.0;0.18055999279022217;-0.16299200057983398;1.1370400190353394;0.0;0.0;0.0
647;0.08369199931621552;-0.02025200054049492;0.9896639585494995;0.17665599286556244;-0.1668960005044937;1.148751974105835;0.14000000059604645;0.14000000059604645;0.5600000023841858
649;0.0;0.0;0.0;0.19617599248886108;-0.1512800008058548;1.1526559591293335;0.0;0.0;0.0
651;0.0;0.0;0.0;0.2000799924135208;-0.14347200095653534;1.1448479890823364;0.0;0.0;0.0
653;0.0;0.0;0.0;0.2117919921875;-0.16299200057983398;1.148751974105835;0.0;0.0;0.0
655;0.08637599647045135;-0.02025200054049492;0.9884439706802368;0.1844639927148819;-0.16299200057983398;1.1370400190353394;0.14000000059604645;0.14000000059604645;0.49000000953674316
658;0.0;0.0;0.0;0.2000799924135208;-0.14347200095653534;1.1038559675216675;0.0;0.0;0.0
660;0.0;0.0;0.0;0.18836799263954163;-0.1668960005044937;1.1370400190353394;0.0;0.0;0.0
662;0.0;0.0;0.0;0.18055999279022217;-0.1668960005044937;1.1526559591293335;0.0;0.0;0.0
664;0.08540000021457672;-0.02000799961388111;0.9882000088691711;0.20398399233818054;-0.1512800008058548;1.1604639291763306;0.07000000029802322;0.42000001668930054;0.49000000953674316
666;0.0;0.0;0.0;0.17665599286556244;-0.15518400073051453;1.1448479890823364;0.0;0.0;0.0
668;0.0;0.0;0.0;0.20788799226284027;-0.1395680010318756;1.156559944152832;0.0;0.0;0.0
670;0.0;0.0;0.0;0.20398399233818054;-0.1512800008058548;1.132159948348999;0.0;0.0;0.0
672;0.08344800025224686;-0.020495999604463577;0.9903959631919861;0.20788799226284027;-0.14347200095653534;1.1204479932785034;0.0;0.3499999940395355;0.49000000953674316
675;0.0;0.0;0.0;0.19617599248886108;-0.16299200057983398;1.132159948348999;0.0;0.0;0.0
677;0.0;0.0;0.0;0.1844639927148819;-0.14347200095653534;1.1604639291763306;0.0;0.0;0.0
679;0.0;0.0;0.0;0.1844639927148819;-0.17470400035381317;1.1370400190353394;0.0;0.0;0.0
681;0.08344800025224686;-0.02025200054049492;0.9911279678344727;0.18836799263954163;-0.16299200057983398;1.1282559633255005;0.14000000059604645;0.21000000834465027;0.49000000953674316
683;0.0;0.0;0.0;0.19227199256420135;-0.15518400073051453;1.140944004058838;0.0;0.0;0.0
685;0.0;0.0;0.0;0.20788799226284027;-0.1512800008058548;1.1526559591293335;0.0;0.0;0.0
687;0.0;0.0;0.0;0.19227199256420135;-0.13566400110721588;1.132159948348999;0.0;0.0;0.0
689;0.08442399650812149;-0.02000799961388111;0.9906399846076965;0.19227199256420135;-0.14737600088119507;1.140944004058838;0.14000000059604645;0.21000000834465027;0.49000000953674316
692;0.0;0.0;0.0;0.20788799226284027;-0.15518400073051453;1.132159948348999;0.0;0.0;0.0
694;0.0;0.0;0.0;0.2000799924135208;-0.16299200057983398;1.1282559633255005;0.0;0.0;0.0
696;0.0;0.0;0.0;0.19227199256420135;-0.17080000042915344;1.1604639291763306;0.0;0.0;0.0
698;0.08540000021457672;-0.02000799961388111;0.98990797996521;0.19617599248886108;-0.16299200057983398;1.132159948348999;0.14000000059604645;0.21000000834465027;0.49000000953674316
700;0.0;0.0;0.0;0.21569599211215973;-0.1512800008058548;1.132159948348999;0.0;0.0;0.0
702;0.0;0.0;0.0;0.2000799924135208;-0.1786080002784729;1.1204479932785034;0.0;0.0;0.0
704;0.0;0.0;0.0;0.2117919921875;-0.14737600088119507;1.1448479890823364;0.0;0.0;0.0
706;0.08442399650812149;-0.02000799961388111;0.9901520013809204;0.2000799924135208;-0.1512800008058548;1.1448479890823364;0.07000000029802322;0.2800000011920929;0.49000000953674316
709;0.0;0.0;0.0;0.20398399233818054;-0.1668960005044937;1.124351978302002;0.0;0.0;0.0
711;0.0;0.0;0.0;0.16494399309158325;-0.16299200057983398;1.1282559633255005;0.0;0.0;0.0
713;0.0;0.0;0.0;0.19227199256420135;-0.15908800065517426;1.1448479890823364;0.0;0.0;0.0
715;0.08515600115060806;-0.020495999604463577;0.9884439706802368;0.18836799263954163;-0.13176000118255615;1.1282559633255005;0.14000000059604645;0.21000000834465027;0.49000000953674316
717;0.0;0.0;0.0;0.20398399233818054;-0.13176000118255615;1.140944004058838;0.0;0.0;0.0
719;0.0;0.0;0.0;0.16884799301624298;-0.1668960005044937;1.1604639291763306;0.0;0.0;0.0
721;0.0;0.0;0.0;0.20788799226284027;-0.15518400073051453;1.148751974105835;0.0;0.0;0.0
723;0.08540000021457672;-0.019519999623298645;0.9891759753227234;0.17665599286556244;-0.1512800008058548;1.148751974105835;0.14000000059604645;0.3499999940395355;0.49000000953674316
726;0.0;0.0;0.0;0.19227199256420135;-0.1512800008058548;1.156559944152832;0.0;0.0;0.0
728;0.0;0.0;0.0;0.18055999279022217;-0.15518400073051453;1.1526559591293335;0.0;0.0;0.0
730;0.0;0.0;0.0;0.20788799226284027;-0.14347200095653534;1.140944004058838;0.0;0.0;0.0
732;0.08442399650812149;-0.020495999604463577;0.9894199967384338;0.20398399233818054;-0.13566400110721588;1.148751974105835;0.14000000059604645;0.2800000011920929;0.5600000023841858
734;0.0;0.0;0.0;0.17665599286556244;-0.15518400073051453;1.148751974105835;0.0;0.0;0.0
736;0.0;0.0;0.0;0.2000799924135208;-0.13566400110721588;1.124351978302002;0.0;0.0;0.0
738;0.0;0.0;0.0;0.1844639927148819;-0.15518400073051453;1.140944004058838;0.0;0.0;0.0
740;0.08540000021457672;-0.020495999604463577;0.98990797996521;0.19617599248886108;-0.16299200057983398;1.1526559591293335;0.14000000059604645;0.14000000059604645;0.49000000953674316
743;0.0;0.0;0.0;0.18836799263954163;-0.1512800008058548;1.140944004058838;0.0;0.0;0.0
745;0.0;0.0;0.0;0.21569599211215973;-0.13566400110721588;1.1360639333724976;0.0;0.0;0.0
747;0.0;0.0;0.0;0.19617599248886108;-0.15908800065517426;1.1448479890823364;0.0;0.0;0.0
749;0.0861319974064827;-0.019763998687267303;0.9882000088691711;0.2235039919614792;-0.15518400073051453;1.156559944152832;0.07000000029802322;0.2800000011920929;0.49000000953674316
751;0.0;0.0;0.0;0.20788799226284027;-0.15908800065517426;1.148751974105835;0.0;0.0;0.0
753;0.0;0.0;0.0;0.19617599248886108;-0.15518400073051453;1.124351978302002;0.0;0.0;0.0
755;0.0;0.0;0.0;0.18055999279022217;-0.14737600088119507;1.140944004058838;0.0;0.0;0.0
757;0.08393599838018417;-0.020739998668432236;0.9901520013809204;0.1844639927148819;-0.14737600088119507;1.1692479848861694;0.07000000029802322;0.42000001668930054;0.49000000953674316
760;0.0;0.0;0.0;0.20398399233818054;-0.15908800065517426;1.1526559591293335;0.0;0.0;0.0
762;0.0;0.0;0.0;0.2000799924135208;-0.15908800065517426;1.1526559591293335;0.0;0.0;0.0
764;0.0;0.0;0.0;0.19617599248886108;-0.1395680010318756;1.1360639333724976;0.0;0.0;0.0
766;0.08344800025224686;-0.020739998668432236;0.990884006023407;0.19617599248886108;-0.1668960005044937;1.148751974105835;0.14000000059604645;0.21000000834465027;0.49000000953674316
768;0.0;0.0;0.0;0.21959999203681946;-0.1512800008058548;1.140944004058838;0.0;0.0;0.0
770;0.0;0.0;0.0;0.17665599286556244;-0.1512800008058548;1.1448479890823364;0.0;0.0;0.0
772;0.0;0.0;0.0;0.21959999203681946;-0.14347200095653534;1.140944004058838;0.0;0.0;0.0
774;0.08564399927854538;-0.019763998687267303;0.9894199967384338;0.21569599211215973;-0.1512800008058548;1.148751974105835;0.07000000029802322;0.21000000834465027;0.49000000953674316
777;0.0;0.0;0.0;0.2117919921875;-0.15518400073051453;1.1526559591293335;0.0;0.0;0.0
779;0.0;0.0;0.0;0.1844639927148819;-0.1668960005044937;1.132159948348999;0.0;0.0;0.0
781;0.0;0.0;0.0;0.2000799924135208;-0.1512800008058548;1.1282559633255005;0.0;0.0;0.0
783;0.0849120020866394;-0.020495999604463577;0.9901520013809204;0.21959999203681946;-0.15518400073051453;1.140944004058838;0.14000000059604645;0.2800000011920929;0.5600000023841858
785;0.0;0.0;0.0;0.20398399233818054;-0.1903200000524521;1.156559944152832;0.0;0.0;0.0
787;0.0;0.0;0.0;0.20398399233818054;-0.14737600088119507;1.132159948348999;0.0;0.0;0.0
789;0.0;0.0;0.0;0.18055999279022217;-0.14737600088119507;1.132159948348999;0.0;0.0;0.0
791;0.08417999744415283;-0.020739998668432236;0.9903959631919861;0.21569599211215973;-0.15518400073051453;1.132159948348999;0.14000000059604645;0.2800000011920929;0.5600000023841858
794;0.0;0.0;0.0;0.19617599248886108;-0.14347200095653534;1.132159948348999;0.0;0.0;0.0
796;0.0;0.0;0.0;0.2000799924135208;-0.16299200057983398;1.148751974105835;0.0;0.0;0.0
798;0.0;0.0;0.0;0.19617599248886108;-0.16299200057983398;1.140944004058838;0.0;0.0;0.0
800;0.08466799557209015;-0.02000799961388111;0.9901520013809204;0.20398399233818054;-0.15518400073051453;1.1692479848861694;0.14000000059604645;0.21000000834465027;0.49000000953674316
802;0.0;0.0;0.0;0.2000799924135208;-0.16299200057983398;1.1370400190353394;0.0;0.0;0.0
804;0.0;0.0;0.0;0.2000799924135208;-0.1512800008058548;1.124351978302002;0.0;0.0;0.0
806;0.0;0.0;0.0;0.20788799226284027;-0.13176000118255615;1.140944004058838;0.0;0.0;0.0
808;0.08466799557209015;-0.02025200054049492;0.9891759753227234;0.18836799263954163;-0.13566400110721588;1.1526559591293335;0.07000000029802322;0.3499999940395355;0.49000000953674316
811;0.0;0.0;0.0;0.17665599286556244;-0.1512800008058548;1.1282559633255005;0.0;0.0;0.0
813;0.0;0.0;0.0;0.18836799263954163;-0.14737600088119507;1.1360639333724976;0.0;0.0;0.0
815;0.0;0.0;0.0;0.18055999279022217;-0.15908800065517426;1.1526559591293335;0.0;0.0;0.0
817;0.0849120020866394;-0.020739998668432236;0.9882000088691711;0.19617599248886108;-0.1668960005044937;1.1370400190353394;0.14000000059604645;0.2800000011920929;0.42000001668930054
819;0.0;0.0;0.0;0.19227199256420135;-0.15908800065517426;1.140944004058838;0.0;0.0;0.0
821;0.0;0.0;0.0;0.2117919921875;-0.14737600088119507;1.148751974105835;0.0;0.0;0.0
823;0.0;0.0;0.0;0.2000799924135208;-0.1786080002784729;1.1448479890823364;0.0;0.0;0.0
826;0.08466799557209015;-0.02025200054049492;0.9891759753227234;0.19227199256420135;-0.14347200095653534;1.1204479932785034;0.14000000059604645;0.2800000011920929;0.49000000953674316
828;0.0;0.0;0.0;0.1844639927148819;-0.13566400110721588;1.124351978302002;0.0;0.0;0.0
830;0.0;0.0;0.0;0.19227199256420135;-0.1668960005044937;1.1448479890823364;0.0;0.0;0.0
832;0.0;0.0;0.0;0.20398399233818054;-0.16299200057983398;1.148751974105835;0.0;0.0;0.0
834;0.08466799557209015;-0.02000799961388111;0.9903959631919861;0.2000799924135208;-0.16299200057983398;1.1526559591293335;0.07000000029802322;0.2800000011920929;0.49000000953674316
836;0.0;0.0;0.0;0.18836799263954163;-0.1786080002784729;1.148751974105835;0.0;0.0;0.0
838;0.0;0.0;0.0;0.17665599286556244;-0.1395680010318756;1.1370400190353394;0.0;0.0;0.0
840;0.0;0.0;0.0;0.19617599248886108;-0.18641600012779236;1.1526559591293335;0.0;0.0;0.0
843;0.08442399650812149;-0.019763998687267303;0.9894199967384338;0.18055999279022217;-0.14347200095653534;1.1526559591293335;0.14000000059604645;0.2800000011920929;0.49000000953674316
845;0.0;0.0;0.0;0.2117919921875;-0.15518400073051453;1.132159948348999;0.0;0.0;0.0
847;0.0;0.0;0.0;0.18836799263954163;-0.15908800065517426;1.1448479890823364;0.0;0.0;0.0
849;0.0;0.0;0.0;0.19227199256420135;-0.15908800065517426;1.1126400232315063;0.0;0.0;0.0
851;0.08588799834251404;-0.019519999623298645;0.9894199967384338;0.18836799263954163;-0.1512800008058548;1.1448479890823364;0.07000000029802322;0.3499999940395355;0.49000000953674316
853;0.0;0.0;0.0;0.1844639927148819;-0.14737600088119507;1.1360639333724976;0.0;0.0;0.0
855;0.0;0.0;0.0;0.19227199256420135;-0.1395680010318756;1.132159948348999;0.0;0.0;0.0
857;0.0;0.0;0.0;0.19617599248886108;-0.1512800008058548;1.1282559633255005;0.0;0.0;0.0
860;0.08417999744415283;-0.020495999604463577;0.9901520013809204;0.21569599211215973;-0.17080000042915344;1.1370400190353394;0.07000000029802322;0.2800000011920929;0.49000000953674316
862;0.0;0.0;0.0;0.18836799263954163;-0.1668960005044937;1.165343999862671;0.0;0.0;0.0
864;0.0;0.0;0.0;0.18836799263954163;-0.15908800065517426;1.140944004058838;0.0;0.0;0.0
866;0.0;0.0;0.0;0.2117919921875;-0.16299200057983398;1.140944004058838;0.0;0.0;0.0
868;0.08466799557209015;-0.02025200054049492;0.98990797996521;0.2117919921875;-0.15518400073051453;1.1282559633255005;0.14000000059604645;0.21000000834465027;0.49000000953674316
870;0.0;0.0;0.0;0.19227199256420135;-0.13566400110721588;1.1204479932785034;0.0;0.0;0.0
872;0.0;0.0;0.0;0.2000799924135208;-0.1395680010318756;1.1282559633255005;0.0;0.0;0.0
874;0.0;0.0;0.0;0.18836799263954163;-0.15908800065517426;1.132159948348999;0.0;0.0;0.0
877;0.08588799834251404;-0.02025200054049492;0.9889319539070129;0.19617599248886108;-0.18251200020313263;1.1370400190353394;0.07000000029802322;0.21000000834465027;0.5600000023841858
879;0.0;0.0;0.0;0.18055999279022217;-0.14347200095653534;1.148751974105835;0.0;0.0;0.0
881;0.0;0.0;0.0;0.2000799924135208;-0.15908800065517426;1.1692479848861694;0.0;0.0;0.0
883;0.0;0.0;0.0;0.1727519929409027;-0.17080000042915344;1.1360639333724976;0.0;0.0;0.0
885;0.0849120020866394;-0.020495999604463577;0.990884006023407;0.2117919921875;-0.16299200057983398;1.1370400190353394;0.07000000029802322;0.3499999940395355;0.49000000953674316
887;0.0;0.0;0.0;0.20788799226284027;-0.15908800065517426;1.132159948348999;0.0;0.0;0.0
889;0.0;0.0;0.0;0.2000799924135208;-0.16299200057983398;1.148751974105835;0.0;0.0;0.0
891;0.0;0.0;0.0;0.20398399233818054;-0.15908800065517426;1.124351978302002;0.0;0.0;0.0
894;0.08442399650812149;-0.020495999604463577;0.9906399846076965;0.19227199256420135;-0.17080000042915344;1.124351978302002;0.14000000059604645;0.21000000834465027;0.49000000953674316
896;0.0;0.0;0.0;0.19227199256420135;-0.1395680010318756;1.124351978302002;0.0;0.0;0.0
898;0.0;0.0;0.0;0.21569599211215973;-0.15908800065517426;1.1370400190353394;0.0;0.0;0.0
900;0.0;0.0;0.0;0.19617599248886108;-0.14347200095653534;1.1282559633255005;0.0;0.0;0.0
902;0.08588799834251404;-0.020495999604463577;0.9891759753227234;0.20398399233818054;-0.16299200057983398;1.1370400190353394;0.14000000059604645;0.14000000059604645;0.49000000953674316
904;0.0;0.0;0.0;0.18836799263954163;-0.16299200057983398;1.1370400190353394;0.0;0.0;0.0
906;0.0;0.0;0.0;0.20398399233818054;-0.1395680010318756;1.1204479932785034;0.0;0.0;0.0
908;0.0;0.0;0.0;0.17665599286556244;-0.1239520013332367;1.1165440082550049;0.0;0.0;0.0
911;0.08540000021457672;-0.020983999595046043;0.9894199967384338;0.18836799263954163;-0.17470400035381317;1.1526559591293335;0.07000000029802322;0.2800000011920929;0.49000000953674316
913;0.0;0.0;0.0;0.2117919921875;-0.15908800065517426;1.1165440082550049;0.0;0.0;0.0
915;0.0;0.0;0.0;0.18836799263954163;-0.15518400073051453;1.156559944152832;0.0;0.0;0.0
917;0.0;0.0;0.0;0.20398399233818054;-0.17080000042915344;1.140944004058838;0.0;0.0;0.0
919;0.08466799557209015;-0.020495999604463577;0.9889319539070129;0.19617599248886108;-0.15908800065517426;1.1614400148391724;0.07000000029802322;0.21000000834465027;0.4856249988079071
921;0.0;0.0;0.0;0.2117919921875;-0.14737600088119507;1.148751974105835;0.0;0.0;0.0
923;0.0;0.0;0.0;0.18836799263954163;-0.1668960005044937;1.1448479890823364;0.0;0.0;0.0
925;0.0;0.0;0.0;0.21959999203681946;-0.17470400035381317;1.1204479932785034;0.0;0.0;0.0
928;0.08515600115060806;-0.02025200054049492;0.9886879920959473;0.18836799263954163;-0.13176000118255615;1.132159948348999;0.07000000029802322;0.21000000834465027;0.4156250059604645
930;0.0;0.0;0.0;0.20788799226284027;-0.1512800008058548;1.1614400148391724;0.0;0.0;0.0
932;0.0;0.0;0.0;0.1844639927148819;-0.14737600088119507;1.124351978302002;0.0;0.0;0.0
934;0.0;0.0;0.0;0.22740799188613892;-0.15518400073051453;1.1204479932785034;0.0;0.0;0.0
936;0.08588799834251404;-0.019763998687267303;0.98990797996521;0.17665599286556244;-0.14737600088119507;1.132159948348999;0.07000000029802322;0.4156250059604645;0.48125001788139343
938;0.0;0.0;0.0;0.19227199256420135;-0.15518400073051453;1.156559944152832;0.0;0.0;0.0
940;0.0;0.0;0.0;0.17665599286556244;-0.15518400073051453;1.148751974105835;0.0;0.0;0.0
942;0.0;0.0;0.0;0.2000799924135208;-0.1512800008058548;1.140944004058838;0.0;0.0;0.0
945;0.0832040011882782;-0.02000799961388111;0.9918599724769592;0.1844639927148819;-0.17470400035381317;1.1526559591293335;0.0;0.34562498331069946;0.48125001788139343
947;0.0;0.0;0.0;0.17665599286556244;-0.1512800008058548;1.140944004058838;0.0;0.0;0.0
949;0.0;0.0;0.0;0.1844639927148819;-0.1668960005044937;1.1448479890823364;0.0;0.0;0.0
951;0.0;0.0;0.0;0.18836799263954163;-0.1512800008058548;1.1360639333724976;0.0;0.0;0.0
953;0.08442399650812149;-0.019519999623298645;0.98990797996521;0.2117919921875;-0.1668960005044937;1.140944004058838;0.21000000834465027;0.13562500476837158;0.4768750071525574
955;0.0;0.0;0.0;0.2000799924135208;-0.14347200095653534;1.1448479890823364;0.0;0.0;0.0
957;0.0;0.0;0.0;0.19617599248886108;-0.16299200057983398;1.165343999862671;0.0;0.0;0.0
959;0.0;0.0;0.0;0.2117919921875;-0.14347200095653534;1.1370400190353394;0.0;0.0;0.0
962;0.08661999553442001;-0.02000799961388111;0.9879559874534607;0.18836799263954163;-0.15908800065517426;1.140944004058838;0.07000000029802322;0.2056250125169754;0.4768750071525574
964;0.0;0.0;0.0;0.19227199256420135;-0.13176000118255615;1.1370400190353394;0.0;0.0;0.0
966;0.0;0.0;0.0;0.21569599211215973;-0.13566400110721588;1.1448479890823364;0.0;0.0;0.0
968;0.0;0.0;0.0;0.17665599286556244;-0.17080000042915344;1.165343999862671;0.0;0.0;0.0
970;0.08466799557209015;-0.020739998668432236;0.9896639585494995;0.17665599286556244;-0.1512800008058548;1.124351978302002;0.07000000029802322;0.4112500250339508;0.5425000190734863
972;0.0;0.0;0.0;0.18836799263954163;-0.10833600163459778;1.1526559591293335;0.0;0.0;0.0
974;0.0;0.0;0.0;0.19617599248886108;-0.16299200057983398;1.1448479890823364;0.0;0.0;0.0
976;0.0;0.0;0.0;0.20398399233818054;-0.14737600088119507;1.1448479890823364;0.0;0.0;0.0
979;0.08295999467372894;-0.020983999595046043;0.9911279678344727;0.1844639927148819;-0.16299200057983398;1.148751974105835;0.07000000029802322;0.27125000953674316;0.4724999964237213
981;0.0;0.0;0.0;0.18836799263954163;-0.12004800140857697;1.1448479890823364;0.0;0.0;0.0
983;0.0;0.0;0.0;0.1844639927148819;-0.15518400073051453;1.156559944152832;0.0;0.0;0.0
985;0.0;0.0;0.0;0.23131199181079865;-0.14347200095653534;1.1370400190353394;0.0;0.0;0.0
987;0.08442399650812149;-0.02000799961388111;0.98990797996521;0.2117919921875;-0.16299200057983398;1.1448479890823364;0.14000000059604645;0.13124999403953552;0.46812501549720764
989;0.0;0.0;0.0;0.19617599248886108;-0.14737600088119507;1.1604639291763306;0.0;0.0;0.0
991;0.0;0.0;0.0;0.2000799924135208;-0.17080000042915344;1.140944004058838;0.0;0.0;0.0
993;0.0;0.0;0.0;0.2117919921875;-0.13176000118255615;1.124351978302002;0.0;0.0;0.0
996;0.0861319974064827;-0.019519999623298645;0.9886879920959473;0.1727519929409027;-0.14347200095653534;1.124351978302002;0.0;0.2668749988079071;0.4637500047683716
998;0.0;0.0;0.0;0.19227199256420135;-0.1512800008058548;1.124351978302002;0.0;0.0;0.0
1000;0.0;0.0;0.0;0.17665599286556244;-0.15908800065517426;1.1282559633255005;0.0;0.0;0.0
1002;0.0;0.0;0.0;0.20398399233818054;-0.15518400073051453;1.148751974105835;0.0;0.0;0.0
1004;0.08442399650812149;-0.02025200054049492;0.9903959631919861;0.19227199256420135;-0.15518400073051453;1.1370400190353394;0.06562499701976776;0.40687501430511475;0.4637500047683716
1006;0.0;0.0;0.0;0.1571359932422638;-0.14347200095653534;1.1165440082550049;0.0;0.0;0.0
1008;0.0;0.0;0.0;0.19617599248886108;-0.1668960005044937;1.1448479890823364;0.0;0.0;0.0
1011;0.0;0.0;0.0;0.1727519929409027;-0.1512800008058548;1.1370400190353394;0.0;0.0;0.0
1013;0.08295999467372894;-0.020739998668432236;0.9913719892501831;0.1844639927148819;-0.15908800065517426;1.156559944152832;0.06562499701976776;0.19687500596046448;0.5293750166893005
1015;0.0;0.0;0.0;0.1844639927148819;-0.14737600088119507;1.132159948348999;0.0;0.0;0.0
1017;0.0;0.0;0.0;0.1727519929409027;-0.14737600088119507;1.1282559633255005;0.0;0.0;0.0
1019;0.0;0.0;0.0;0.19227199256420135;-0.17470400035381317;1.1526559591293335;0.0;0.0;0.0
1021;0.08442399650812149;-0.02025200054049492;0.9889319539070129;0.17665599286556244;-0.1668960005044937;1.140944004058838;0.13562500476837158;0.12250000238418579;0.4593750238418579
1023;0.0;0.0;0.0;0.1844639927148819;-0.1512800008058548;1.124351978302002;0.0;0.0;0.0
1025;0.0;0.0;0.0;0.2117919921875;-0.14347200095653534;1.1448479890823364;0.0;0.0;0.0
1028;0.0;0.0;0.0;0.18055999279022217;-0.1512800008058548;1.140944004058838;0.0;0.0;0.0
1030;0.08564399927854538;-0.019276000559329987;0.9889319539070129;0.19617599248886108;-0.14737600088119507;1.124351978302002;0.13562500476837158;0.33249998092651367;0.45500001311302185
1032;0.0;0.0;0.0;0.16884799301624298;-0.16299200057983398;1.148751974105835;0.0;0.0;0.0
1034;0.0;0.0;0.0;0.18055999279022217;-0.17080000042915344;1.1126400232315063;0.0;0.0;0.0
1036;0.0;0.0;0.0;0.18836799263954163;-0.15518400073051453;1.148751974105835;0.0;0.0;0.0
1038;0.08466799557209015;-0.02000799961388111;0.9901520013809204;0.19227199256420135;-0.15908800065517426;1.156559944152832;0.06562499701976776;0.33249998092651367;0.45500001311302185
1040;0.0;0.0;0.0;0.1844639927148819;-0.14737600088119507;1.1370400190353394;0.0;0.0;0.0
1042;0.0;0.0;0.0;0.18836799263954163;-0.1668960005044937;1.1282559633255005;0.0;0.0;0.0
1045;0.0;0.0;0.0;0.17665599286556244;-0.16299200057983398;1.1448479890823364;0.0;0.0;0.0
1047;0.0849120020866394;-0.020739998668432236;0.9896639585494995;0.1844639927148819;-0.12785600125789642;1.1165440082550049;0.13562500476837158;0.328125;0.4506250023841858
1049;0.0;0.0;0.0;0.18055999279022217;-0.1512800008058548;1.1165440082550049;0.0;0.0;0.0
1051;0.0;0.0;0.0;0.19617599248886108;-0.16299200057983398;1.140944004058838;0.0;0.0;0.0
1053;0.0;0.0;0.0;0.19617599248886108;-0.15518400073051453;1.132159948348999;0.0;0.0;0.0
1055;0.08540000021457672;-0.020983999595046043;0.98990797996521;0.19617599248886108;-0.1512800008058548;1.148751974105835;0.06562499701976776;0.2581250071525574;0.4506250023841858
1057;0.0;0.0;0.0;0.19227199256420135;-0.17470400035381317;1.1526559591293335;0.0;0.0;0.0
1059;0.0;0.0;0.0;0.19617599248886108;-0.15908800065517426;1.148751974105835;0.0;0.0;0.0
1062;0.0;0.0;0.0;0.20398399233818054;-0.1512800008058548;1.1204479932785034;0.0;0.0;0.0
1064;0.08442399650812149;-0.020983999595046043;0.9901520013809204;0.1844639927148819;-0.1512800008058548;1.1370400190353394;0.13562500476837158;0.18812501430511475;0.4462500214576721
1066;0.0;0.0;0.0;0.20398399233818054;-0.13176000118255615;1.140944004058838;0.0;0.0;0.0
1068;0.0;0.0;0.0;0.17665599286556244;-0.1668960005044937;1.1370400190353394;0.0;0.0;0.0
1070;0.0;0.0;0.0;0.17665599286556244;-0.15518400073051453;1.148751974105835;0.0;0.0;0.0
1072;0.08466799557209015;-0.02000799961388111;0.98990797996521;0.20788799226284027;-0.1512800008058548;1.165343999862671;0.13562500476837158;0.18812501430511475;0.4462500214576721
1074;0.0;0.0;0.0;0.18836799263954163;-0.14737600088119507;1.1526559591293335;0.0;0.0;0.0
1076;0.0;0.0;0.0;0.16103999316692352;-0.14347200095653534;1.132159948348999;0.0;0.0;0.0
1079;0.0;0.0;0.0;0.1727519929409027;-0.15908800065517426;1.1370400190353394;0.0;0.0;0.0
1081;0.08564399927854538;-0.019763998687267303;0.9891759753227234;0.19227199256420135;-0.17080000042915344;1.1370400190353394;0.061250001192092896;0.2537499964237213;0.44187501072883606
1083;0.0;0.0;0.0;0.19227199256420135;-0.14737600088119507;1.1448479890823364;0.0;0.0;0.0
1085;0.0;0.0;0.0;0.18055999279022217;-0.13566400110721588;1.124351978302002;0.0;0.0;0.0
1087;0.0;0.0;0.0;0.18836799263954163;-0.1395680010318756;1.1165440082550049;0.0;0.0;0.0
1089;0.08515600115060806;-0.02000799961388111;0.9906399846076965;0.19227199256420135;-0.13566400110721588;1.1526559591293335;0.061250001192092896;0.32374998927116394;0.44187501072883606
1091;0.0;0.0;0.0;0.2235039919614792;-0.15518400073051453;1.132159948348999;0.0;0.0;0.0
1093;0.0;0.0;0.0;0.1727519929409027;-0.16299200057983398;1.132159948348999;0.0;0.0;0.0
1096;0.0;0.0;0.0;0.18055999279022217;-0.1903200000524521;1.1370400190353394;0.0;0.0;0.0
1098;0.0832040011882782;-0.020495999604463577;0.9901520013809204;0.1844639927148819;-0.1512800008058548;1.148751974105835;0.13124999403953552;0.2537499964237213;0.4375
1100;0.0;0.0;0.0;0.19617599248886108;-0.13566400110721588;1.140944004058838;0.0;0.0;0.0
1102;0.0;0.0;0.0;0.19617599248886108;-0.1395680010318756;1.1165440082550049;0.0;0.0;0.0
1104;0.0;0.0;0.0;0.18055999279022217;-0.1395680010318756;1.1448479890823364;0.0;0.0;0.0
1106;0.0849120020866394;-0.02025200054049492;0.9896639585494995;0.19617599248886108;-0.14347200095653534;1.1526559591293335;0.13124999403953552;0.17937500774860382;0.4375
1108;0.0;0.0;0.0;0.2000799924135208;-0.14347200095653534;1.1526559591293335;0.0;0.0;0.0
1110;0.0;0.0;0.0;0.20398399233818054;-0.16299200057983398;1.1526559591293335;0.0;0.0;0.0
1113;0.0;0.0;0.0;0.19227199256420135;-0.17470400035381317;1.148751974105835;0.0;0.0;0.0
1115;0.0861319974064827;-0.02025200054049492;0.98990797996521;0.17665599286556244;-0.17080000042915344;1.124351978302002;0.061250001192092896;0.24937500059604645;0.43312501907348633
1117;0.0;0.0;0.0;0.2000799924135208;-0.14347200095653534;1.124351978302002;0.0;0.0;0.0
1119;0.0;0.0;0.0;0.19227199256420135;-0.15908800065517426;1.1360639333724976;0.0;0.0;0.0
1121;0.0;0.0;0.0;0.2000799924135208;-0.14737600088119507;1.132159948348999;0.0;0.0;0.0
1123;0.08466799557209015;-0.02025200054049492;0.9903959631919861;0.1727519929409027;-0.14347200095653534;1.132159948348999;0.061250001192092896;0.3893750309944153;0.43312501907348633
1126;0.0;0.0;0.0;0.1844639927148819;-0.14737600088119507;1.1419199705123901;0.0;0.0;0.0
1127;0.0;0.0;0.0;0.1844639927148819;-0.17470400035381317;1.1458239555358887;0.0;0.0;0.0
1130;0.0;0.0;0.0;0.18055999279022217;-0.17080000042915344;1.1458239555358887;0.0;0.0;0.0
1132;0.08393599838018417;-0.02122800052165985;0.990884006023407;0.2000799924135208;-0.1239520013332367;1.1458239555358887;0.061250001192092896;0.17937500774860382;0.42875000834465027
1134;0.0;0.0;0.0;0.20788799226284027;-0.13176000118255615;1.1536319255828857;0.0;0.0;0.0
1136;0.0;0.0;0.0;0.17665599286556244;-0.1512800008058548;1.1331360340118408;0.0;0.0;0.0
1138;0.0;0.0;0.0;0.19227199256420135;-0.17470400035381317;1.1497279405593872;0.0;0.0;0.0
1140;0.08564399927854538;-0.02025200054049492;0.9889319539070129;0.18836799263954163;-0.1395680010318756;1.1458239555358887;0.061250001192092896;0.10500000417232513;0.42875000834465027
1143;0.0;0.0;0.0;0.20398399233818054;-0.15518400073051453;1.1526559591293335;0.0;0.0;0.0
1144;0.0;0.0;0.0;0.17665599286556244;-0.1239520013332367;1.148751974105835;0.0;0.0;0.0
1147;0.0;0.0;0.0;0.19617599248886108;-0.15518400073051453;1.1526559591293335;0.0;0.0;0.0
1149;0.08588799834251404;-0.02000799961388111;0.9894199967384338;0.1844639927148819;-0.15518400073051453;1.148751974105835;0.13124999403953552;0.3149999976158142;0.4243749976158142
1151;0.0;0.0;0.0;0.21569599211215973;-0.15518400073051453;1.1448479890823364;0.0;0.0;0.0
1153;0.0;0.0;0.0;0.17665599286556244;-0.15518400073051453;1.156559944152832;0.0;0.0;0.0
1155;0.0;0.0;0.0;0.19227199256420135;-0.16299200057983398;1.1526559591293335;0.0;0.0;0.0
1157;0.08369199931621552;-0.020495999604463577;0.9901520013809204;0.18055999279022217;-0.14347200095653534;1.1448479890823364;0.13124999403953552;0.3149999976158142;0.4243749976158142
1160;0.0;0.0;0.0;0.19227199256420135;-0.16299200057983398;1.140944004058838;0.0;0.0;0.0
1161;0.0;0.0;0.0;0.17665599286556244;-0.17080000042915344;1.1448479890823364;0.0;0.0;0.0
1164;0.0;0.0;0.0;0.19227199256420135;-0.1512800008058548;1.1575360298156738;0.0;0.0;0.0
1166;0.08393599838018417;-0.020495999604463577;0.990884006023407;0.21569599211215973;-0.1786080002784729;1.140944004058838;0.12687499821186066;0.1706250011920929;0.42000001668930054
1168;0.0;0.0;0.0;0.18836799263954163;-0.14347200095653534;1.1526559591293335;0.0;0.0;0.0
1170;0.0;0.0;0.0;0.20398399233818054;-0.1903200000524521;1.1204479932785034;0.0;0.0;0.0
1172;0.0;0.0;0.0;0.2000799924135208;-0.19422399997711182;1.1165440082550049;0.0;0.0;0.0
1174;0.08564399927854538;-0.02025200054049492;0.9894199967384338;0.18836799263954163;-0.13566400110721588;1.132159948348999;0.05687499791383743;0.1706250011920929;0.49000000953674316
1176;0.0;0.0;0.0;0.16884799301624298;-0.1786080002784729;1.1370400190353394;0.0;0.0;0.0
1179;0.0;0.0;0.0;0.2117919921875;-0.1395680010318756;1.148751974105835;0.0;0.0;0.0
1181;0.0;0.0;0.0;0.19617599248886108;-0.15908800065517426;1.1282559633255005;0.0;0.0;0.0
1183;0.08466799557209015;-0.02000799961388111;0.9903959631919861;0.17665599286556244;-0.15518400073051453;1.140944004058838;0.05687499791383743;0.31062498688697815;0.4156250059604645
1185;0.0;0.0;0.0;0.1727519929409027;-0.17080000042915344;1.132159948348999;0.0;0.0;0.0
1187;0.0;0.0;0.0;0.19617599248886108;-0.15908800065517426;1.1604639291763306;0.0;0.0;0.0
1189;0.0;0.0;0.0;0.19617599248886108;-0.14737600088119507;1.1526559591293335;0.0;0.0;0.0
1191;0.0832040011882782;-0.020739998668432236;0.9906399846076965;0.17665599286556244;-0.15908800065517426;1.140944004058838;-0.013125000521540642;0.24062499403953552;0.4156250059604645
1194;0.0;0.0;0.0;0.2117919921875;-0.15518400073051453;1.140944004058838;0.0;0.0;0.0
1196;0.0;0.0;0.0;0.18836799263954163;-0.14737600088119507;1.140944004058838;0.0;0.0;0.0
1198;0.0;0.0;0.0;0.19227199256420135;-0.14737600088119507;1.1360639333724976;0.0;0.0;0.0
1200;0.08515600115060806;-0.020495999604463577;0.9889319539070129;0.19227199256420135;-0.14737600088119507;1.1526559591293335;0.12687499821186066;0.16625000536441803;0.4112499952316284
1202;0.0;0.0;0.0;0.2000799924135208;-0.15518400073051453;1.140944004058838;0.0;0.0;0.0
1204;0.0;0.0;0.0;0.2000799924135208;-0.1668960005044937;1.132159948348999;0.0;0.0;0.0
1206;0.0;0.0;0.0;0.18836799263954163;-0.14347200095653534;1.156559944152832;0.0;0.0;0.0
1208;0.08466799557209015;-0.02025200054049492;0.9891759753227234;0.2000799924135208;-0.18641600012779236;1.1370400190353394;0.12687499821186066;0.3062500059604645;0.4112499952316284
1211;0.0;0.0;0.0;0.1727519929409027;-0.1239520013332367;1.1126400232315063;0.0;0.0;0.0
1213;0.0;0.0;0.0;0.16494399309158325;-0.16299200057983398;1.1448479890823364;0.0;0.0;0.0
1215;0.0;0.0;0.0;0.18836799263954163;-0.15908800065517426;1.1526559591293335;0.0;0.0;0.0
1217;0.08393599838018417;-0.02025200054049492;0.9906399846076965;0.2000799924135208;-0.15518400073051453;1.1604639291763306;0.05687499791383743;0.23624999821186066;0.40687501430511475
1219;0.0;0.0;0.0;0.17665599286556244;-0.1786080002784729;1.1282559633255005;0.0;0.0;0.0
1221;0.0;0.0;0.0;0.1844639927148819;-0.15518400073051453;1.1360639333724976;0.0;0.0;0.0
1223;0.0;0.0;0.0;0.21959999203681946;-0.12785600125789642;1.1526559591293335;0.0;0.0;0.0
1225;0.08466799557209015;-0.019519999623298645;0.98990797996521;0.20398399233818054;-0.17470400035381317;1.1448479890823364;0.12687499821186066;0.23624999821186066;0.40687501430511475
1228;0.0;0.0;0.0;0.20398399233818054;-0.14737600088119507;1.1282559633255005;0.0;0.0;0.0
1230;0.0;0.0;0.0;0.19227199256420135;-0.17080000042915344;1.148751974105835;0.0;0.0;0.0
1232;0.0;0.0;0.0;0.20398399233818054;-0.16299200057983398;1.1282559633255005;0.0;0.0;0.0
1234;0.08564399927854538;-0.02025200054049492;0.9894199967384338;0.20398399233818054;-0.15518400073051453;1.1370400190353394;0.05687499791383743;0.2318750023841858;0.4025000035762787
1236;0.0;0.0;0.0;0.1727519929409027;-0.1512800008058548;1.148751974105835;0.0;0.0;0.0
1238;0.0;0.0;0.0;0.19617599248886108;-0.14737600088119507;1.132159948348999;0.0;0.0;0.0
1240;0.0;0.0;0.0;0.20788799226284027;-0.14737600088119507;1.1448479890823364;0.0;0.0;0.0
1242;0.08466799557209015;-0.020983999595046043;0.9906399846076965;0.20398399233818054;-0.1668960005044937;1.1360639333724976;0.05687499791383743;0.3018749952316284;0.4025000035762787
1245;0.0;0.0;0.0;0.1844639927148819;-0.14737600088119507;1.1360639333724976;0.0;0.0;0.0
1247;0.0;0.0;0.0;0.19227199256420135;-0.1512800008058548;1.1604639291763306;0.0;0.0;0.0
1249;0.0;0.0;0.0;0.1844639927148819;-0.15908800065517426;1.1448479890823364;0.0;0.0;0.0
1251;0.08442399650812149;-0.02025200054049492;0.9903959631919861;0.18836799263954163;-0.13566400110721588;1.1370400190353394;0.12250000238418579;0.2318750023841858;0.4025000035762787
1253;0.0;0.0;0.0;0.20398399233818054;-0.14347200095653534;1.1526559591293335;0.0;0.0;0.0
1255;0.0;0.0;0.0;0.2000799924135208;-0.14737600088119507;1.1448479890823364;0.0;0.0;0.0
1257;0.0;0.0;0.0;0.20398399233818054;-0.15518400073051453;1.1526559591293335;0.0;0.0;0.0
1259;0.08564399927854538;-0.02025200054049492;0.9901520013809204;0.1844639927148819;-0.14347200095653534;1.140944004058838;0.12250000238418579;0.22749999165534973;0.3981249928474426
1262;0.0;0.0;0.0;0.19227199256420135;-0.15908800065517426;1.140944004058838;0.0;0.0;0.0
1264;0.0;0.0;0.0;0.18055999279022217;-0.14737600088119507;1.140944004058838;0.0;0.0;0.0
1266;0.0;0.0;0.0;0.21569599211215973;-0.14737600088119507;1.140944004058838;0.0;0.0;0.0
1268;0.08540000021457672;-0.02000799961388111;0.9891759753227234;0.1727519929409027;-0.17080000042915344;1.1204479932785034;0.05250000208616257;0.29749998450279236;0.3981249928474426
1270;0.0;0.0;0.0;0.1844639927148819;-0.1668960005044937;1.1448479890823364;0.0;0.0;0.0
1272;0.0;0.0;0.0;0.18836799263954163;-0.15908800065517426;1.1370400190353394;0.0;0.0;0.0
1274;0.0;0.0;0.0;0.18836799263954163;-0.15518400073051453;1.140944004058838;0.0;0.0;0.0
1276;0.08369199931621552;-0.020495999604463577;0.98990797996521;0.19617599248886108;-0.15908800065517426;1.1370400190353394;0.05250000208616257;0.22749999165534973;0.39375001192092896
1279;0.0;0.0;0.0;0.2235039919614792;-0.17470400035381317;1.132159948348999;0.0;0.0;0.0
1281;0.0;0.0;0.0;0.1727519929409027;-0.16299200057983398;1.1282559633255005;0.0;0.0;0.0
1283;0.0;0.0;0.0;0.18055999279022217;-0.16299200057983398;1.132159948348999;0.0;0.0;0.0
1285;0.08515600115060806;-0.02000799961388111;0.98990797996521;0.20398399233818054;-0.1395680010318756;1.1526559591293335;0.12250000238418579;0.1574999988079071;0.39375001192092896
1287;0.0;0.0;0.0;0.19227199256420135;-0.14737600088119507;1.1282559633255005;0.0;0.0;0.0
1289;0.0;0.0;0.0;0.18055999279022217;-0.17080000042915344;1.1282559633255005;0.0;0.0;0.0
1291;0.0;0.0;0.0;0.21569599211215973;-0.15908800065517426;1.124351978302002;0.0;0.0;0.0
1293;0.08588799834251404;-0.020495999604463577;0.9891759753227234;0.20398399233818054;-0.15518400073051453;1.1370400190353394;0.12250000238418579;0.22312499582767487;0.3893750011920929
1296;0.0;0.0;0.0;0.19617599248886108;-0.17470400035381317;1.1282559633255005;0.0;0.0;0.0
1298;0.0;0.0;0.0;0.2000799924135208;-0.15908800065517426;1.140944004058838;0.0;0.0;0.0
1300;0.0;0.0;0.0;0.1727519929409027;-0.13566400110721588;1.1370400190353394;0.0;0.0;0.0
1302;0.08393599838018417;-0.020739998668432236;0.9906399846076965;0.16884799301624298;-0.15908800065517426;1.148751974105835;0.05250000208616257;0.2931250035762787;0.3893750011920929
1304;0.0;0.0;0.0;0.2000799924135208;-0.16299200057983398;1.165343999862671;0.0;0.0;0.0
1306;0.0;0.0;0.0;0.19227199256420135;-0.17080000042915344;1.1360639333724976;0.0;0.0;0.0
1308;0.0;0.0;0.0;0.20788799226284027;-0.17080000042915344;1.140944004058838;0.0;0.0;0.0
1310;0.08344800025224686;-0.020739998668432236;0.9901520013809204;0.2000799924135208;-0.1395680010318756;1.1370400190353394;0.12250000238418579;0.15312500298023224;0.45499998331069946
1313;0.0;0.0;0.0;0.2000799924135208;-0.14347200095653534;1.1282559633255005;0.0;0.0;0.0
1315;0.0;0.0;0.0;0.1844639927148819;-0.17080000042915344;1.1204479932785034;0.0;0.0;0.0
1317;0.0;0.0;0.0;0.19227199256420135;-0.14347200095653534;1.148751974105835;0.0;0.0;0.0
1319;0.08466799557209015;-0.02025200054049492;0.9894199967384338;0.19227199256420135;-0.17080000042915344;1.1448479890823364;0.12250000238418579;0.15312500298023224;0.38499999046325684
1321;0.0;0.0;0.0;0.19617599248886108;-0.15518400073051453;1.156559944152832;0.0;0.0;0.0
1323;0.0;0.0;0.0;0.20398399233818054;-0.15518400073051453;1.1526559591293335;0.0;0.0;0.0
1325;0.0;0.0;0.0;0.18836799263954163;-0.16299200057983398;1.148751974105835;0.0;0.0;0.0
1327;0.08515600115060806;-0.020739998668432236;0.9896639585494995;0.20398399233818054;-0.14737600088119507;1.1370400190353394;0.05250000208616257;0.22312499582767487;0.38062500953674316
1330;0.0;0.0;0.0;0.16494399309158325;-0.1668960005044937;1.140944004058838;0.0;0.0;0.0
1332;0.0;0.0;0.0;0.20788799226284027;-0.1668960005044937;1.1282559633255005;0.0;0.0;0.0
1334;0.0;0.0;0.0;0.1727519929409027;-0.16299200057983398;1.1526559591293335;0.0;0.0;0.0
1336;0.08442399650812149;-0.020739998668432236;0.9901520013809204;0.2000799924135208;-0.17470400035381317;1.1370400190353394;0.11812499910593033;0.21875;0.31062501668930054
1338;0.0;0.0;0.0;0.2235039919614792;-0.1668960005044937;1.148751974105835;0.0;0.0;0.0
1340;0.0;0.0;0.0;0.1727519929409027;-0.16299200057983398;1.132159948348999;0.0;0.0;0.0
1342;0.0;0.0;0.0;0.20788799226284027;-0.16299200057983398;1.148751974105835;0.0;0.0;0.0
1344;0.08515600115060806;-0.020983999595046043;0.9906399846076965;0.18055999279022217;-0.15908800065517426;1.1448479890823364;0.11812499910593033;0.14875000715255737;0.38062500953674316
1347;0.0;0.0;0.0;0.19227199256420135;-0.15908800065517426;1.1526559591293335;0.0;0.0;0.0
1349;0.0;0.0;0.0;0.19617599248886108;-0.1668960005044937;1.124351978302002;0.0;0.0;0.0
1351;0.0;0.0;0.0;0.19227199256420135;-0.17470400035381317;1.1448479890823364;0.0;0.0;0.0
1353;0.08540000021457672;-0.020495999604463577;0.98990797996521;0.19227199256420135;-0.14737600088119507;1.140944004058838;0.048124998807907104;0.21875;0.44624999165534973
1355;0.0;0.0;0.0;0.1844639927148819;-0.14347200095653534;1.1370400190353394;0.0;0.0;0.0
1357;0.0;0.0;0.0;0.1844639927148819;-0.15518400073051453;1.132159948348999;0.0;0.0;0.0
1359;0.0;0.0;0.0;0.21569599211215973;-0.16299200057983398;1.1360639333724976;0.0;0.0;0.0
1361;0.08466799557209015;-0.020739998668432236;0.9896639585494995;0.20788799226284027;-0.15518400073051453;1.1282559633255005;0.11812499910593033;0.2887499928474426;0.3762499988079071
1364;0.0;0.0;0.0;0.19227199256420135;-0.14737600088119507;1.1282559633255005;0.0;0.0;0.0
1366;0.0;0.0;0.0;0.1844639927148819;-0.14347200095653534;1.1448479890823364;0.0;0.0;0.0
1368;0.0;0.0;0.0;0.20398399233818054;-0.14347200095653534;1.140944004058838;0.0;0.0;0.0
1370;0.08442399650812149;-0.020495999604463577;0.98990797996521;0.1844639927148819;-0.14737600088119507;1.148751974105835;0.11812499910593033;0.1443750113248825;0.37187501788139343
1372;0.0;0.0;0.0;0.20398399233818054;-0.14347200095653534;1.1448479890823364;0.0;0.0;0.0
1374;0.0;0.0;0.0;0.2000799924135208;-0.17470400035381317;1.1526559591293335;0.0;0.0;0.0
1376;0.0;0.0;0.0;0.16103999316692352;-0.14737600088119507;1.140944004058838;0.0;0.0;0.0
1378;0.0849120020866394;-0.02025200054049492;0.98990797996521;0.18836799263954163;-0.18251200020313263;1.1370400190353394;0.11812499910593033;0.21437500417232513;0.37187501788139343
1381;0.0;0.0;0.0;0.2000799924135208;-0.15518400073051453;1.1448479890823364;0.0;0.0;0.0
1383;0.0;0.0;0.0;0.18836799263954163;-0.1668960005044937;1.1204479932785034;0.0;0.0;0.0
1385;0.0;0.0;0.0;0.2000799924135208;-0.15518400073051453;1.140944004058838;0.0;0.0;0.0
1387;0.0849120020866394;-0.02025200054049492;0.9903959631919861;0.17665599286556244;-0.17080000042915344;1.1360639333724976;0.11812499910593033;0.28437501192092896;0.3675000071525574
1389;0.0;0.0;0.0;0.19227199256420135;-0.15908800065517426;1.140944004058838;0.0;0.0;0.0
1391;0.0;0.0;0.0;0.18836799263954163;-0.1395680010318756;1.140944004058838;0.0;0.0;0.0
1393;0.0;0.0;0.0;0.19617599248886108;-0.17080000042915344;1.132159948348999;0.0;0.0;0.0
1395;0.0849120020866394;-0.02000799961388111;0.990884006023407;0.19617599248886108;-0.14347200095653534;1.132159948348999;0.11812499910593033;0.21437500417232513;0.3675000071525574
1398;0.0;0.0;0.0;0.19617599248886108;-0.13176000118255615;1.1526559591293335;0.0;0.0;0.0
1400;0.0;0.0;0.0;0.2235039919614792;-0.1512800008058548;1.132159948348999;0.0;0.0;0.0
1402;0.0;0.0;0.0;0.16884799301624298;-0.1512800008058548;1.140944004058838;0.0;0.0;0.0
1404;0.08466799557209015;-0.02000799961388111;0.9903959631919861;0.1844639927148819;-0.17080000042915344;1.1448479890823364;0.11374999582767487;0.14000001549720764;0.3675000071525574
1406;0.0;0.0;0.0;0.17665599286556244;-0.1512800008058548;1.1370400190353394;0.0;0.0;0.0
1408;0.0;0.0;0.0;0.18836799263954163;-0.16299200057983398;1.1526559591293335;0.0;0.0;0.0
1410;0.0;0.0;0.0;0.19227199256420135;-0.13176000118255615;1.1526559591293335;0.0;0.0;0.0
1412;0.08515600115060806;-0.02025200054049492;0.9896639585494995;0.16494399309158325;-0.15518400073051453;1.140944004058838;0.11374999582767487;0.2800000011920929;0.3631250262260437
1415;0.0;0.0;0.0;0.20398399233818054;-0.16299200057983398;1.132159948348999;0.0;0.0;0.0
1417;0.0;0.0;0.0;0.19617599248886108;-0.18641600012779236;1.1370400190353394;0.0;0.0;0.0
1419;0.0;0.0;0.0;0.19617599248886108;-0.17470400035381317;1.140944004058838;0.0;0.0;0.0
1421;0.0849120020866394;-0.02000799961388111;0.9896639585494995;0.2000799924135208;-0.1395680010318756;1.132159948348999;0.04374999925494194;0.21000000834465027;0.3631250262260437
1423;0.0;0.0;0.0;0.16884799301624298;-0.1512800008058548;1.132159948348999;0.0;0.0;0.0
1425;0.0;0.0;0.0;0.19617599248886108;-0.15908800065517426;1.156559944152832;0.0;0.0;0.0
1427;0.0;0.0;0.0;0.23521599173545837;-0.15908800065517426;1.156559944152832;0.0;0.0;0.0
1429;0.08564399927854538;-0.020739998668432236;0.9901520013809204;0.17665599286556244;-0.1512800008058548;1.156559944152832;0.11374999582767487;0.27562499046325684;0.35875001549720764
1432;0.0;0.0;0.0;0.2117919921875;-0.1512800008058548;1.1292319297790527;0.0;0.0;0.0
1434;0.0;0.0;0.0;0.20398399233818054;-0.17080000042915344;1.1497279405593872;0.0;0.0;0.0
1436;0.0;0.0;0.0;0.20788799226284027;-0.13176000118255615;1.1419199705123901;0.0;0.0;0.0
1438;0.08515600115060806;-0.020983999595046043;0.9891759753227234;0.19617599248886108;-0.1512800008058548;1.1214239597320557;0.04374999925494194;0.13562500476837158;0.35875001549720764
1440;0.0;0.0;0.0;0.21569599211215973;-0.1668960005044937;1.1575360298156738;0.0;0.0;0.0
1442;0.0;0.0;0.0;0.1844639927148819;-0.16299200057983398;1.1370400190353394;0.0;0.0;0.0
1444;0.0;0.0;0.0;0.17665599286556244;-0.14347200095653534;1.1536319255828857;0.0;0.0;0.0
1446;0.08369199931621552;-0.019519999623298645;0.9903959631919861;0.20398399233818054;-0.14737600088119507;1.1536319255828857;0.04374999925494194;0.27562499046325684;0.35875001549720764
1449;0.0;0.0;0.0;0.20788799226284027;-0.12785600125789642;1.1448479890823364;0.0;0.0;0.0
1451;0.0;0.0;0.0;0.1727519929409027;-0.14347200095653534;1.1526559591293335;0.0;0.0;0.0
1453;0.0;0.0;0.0;0.19617599248886108;-0.15908800065517426;1.1370400190353394;0.0;0.0;0.0
1455;0.08442399650812149;-0.02025200054049492;0.9906399846076965;0.23521599173545837;-0.14347200095653534;1.1204479932785034;0.11374999582767487;0.2056249976158142;0.3543750047683716
1457;0.0;0.0;0.0;0.1844639927148819;-0.15908800065517426;1.1526559591293335;0.0;0.0;0.0
1459;0.0;0.0;0.0;0.21569599211215973;-0.10833600163459778;1.1204479932785034;0.0;0.0;0.0
1461;0.0;0.0;0.0;0.19617599248886108;-0.12004800140857697;1.148751974105835;0.0;0.0;0.0
1463;0.0849120020866394;-0.020495999604463577;0.9901520013809204;0.2000799924135208;-0.1668960005044937;1.148751974105835;0.04374999925494194;0.13562500476837158;0.3543750047683716
1466;0.0;0.0;0.0;0.19227199256420135;-0.15908800065517426;1.1448479890823364;0.0;0.0;0.0
1468;0.0;0.0;0.0;0.18836799263954163;-0.12004800140857697;1.1360639333724976;0.0;0.0;0.0
1470;0.0;0.0;0.0;0.19617599248886108;-0.14737600088119507;1.1448479890823364;0.0;0.0;0.0
1472;0.08466799557209015;-0.02000799961388111;0.9906399846076965;0.19227199256420135;-0.14347200095653534;1.156559944152832;0.04374999925494194;0.20125000178813934;0.42000001668930054
1474;0.0;0.0;0.0;0.18055999279022217;-0.14737600088119507;1.140944004058838;0.0;0.0;0.0
1476;0.0;0.0;0.0;0.18836799263954163;-0.12004800140857697;1.140944004058838;0.0;0.0;0.0
1478;0.0;0.0;0.0;0.21569599211215973;-0.13176000118255615;1.1370400190353394;0.0;0.0;0.0
1480;0.08417999744415283;-0.020739998668432236;0.9901520013809204;0.20398399233818054;-0.17470400035381317;1.1370400190353394;0.04374999925494194;0.20125000178813934;0.3500000238418579
1483;0.0;0.0;0.0;0.20398399233818054;-0.14347200095653534;1.1448479890823364;0.0;0.0;0.0
1485;0.0;0.0;0.0;0.17665599286556244;-0.15908800065517426;1.1448479890823364;0.0;0.0;0.0
1487;0.0;0.0;0.0;0.19617599248886108;-0.15908800065517426;1.140944004058838;0.0;0.0;0.0
1489;0.0849120020866394;-0.02000799961388111;0.9896639585494995;0.1844639927148819;-0.15518400073051453;1.1370400190353394;0.11374999582767487;0.20125000178813934;0.34562501311302185
1491;0.0;0.0;0.0;0.21569599211215973;-0.17080000042915344;1.1526559591293335;0.0;0.0;0.0
1493;0.0;0.0;0.0;0.18055999279022217;-0.14737600088119507;1.1282559633255005;0.0;0.0;0.0
1495;0.0;0.0;0.0;0.19617599248886108;-0.14347200095653534;1.140944004058838;0.0;0.0;0.0
1497;0.08540000021457672;-0.019763998687267303;0.9903959631919861;0.22740799188613892;-0.1512800008058548;1.1448479890823364;0.11374999582767487;0.20125000178813934;0.34562501311302185
1500;0.0;0.0;0.0;0.1844639927148819;-0.14737600088119507;1.1292319297790527;0.0;0.0;0.0
1502;0.0;0.0;0.0;0.20788799226284027;-0.17080000042915344;1.1458239555358887;0.0;0.0;0.0
1504;0.0;0.0;0.0;0.1844639927148819;-0.13566400110721588;1.1536319255828857;0.0;0.0;0.0
1506;0.0849120020866394;-0.02025200054049492;0.98990797996521;0.20398399233818054;-0.1786080002784729;1.1575360298156738;0.039374999701976776;0.2668749988079071;0.34562501311302185
1508;0.0;0.0;0.0;0.22740799188613892;-0.12785600125789642;1.1458239555358887;0.0;0.0;0.0
1510;0.0;0.0;0.0;0.2117919921875;-0.1668960005044937;1.1419199705123901;0.0;0.0;0.0
1512;0.0;0.0;0.0;0.19227199256420135;-0.14347200095653534;1.1331360340118408;0.0;0.0;0.0
1515;0.08417999744415283;-0.020983999595046043;0.9896639585494995;0.1571359932422638;-0.18641600012779236;1.1419199705123901;0.109375;0.19687500596046448;0.3412500023841858
1517;0.0;0.0;0.0;0.20398399233818054;-0.1512800008058548;1.156559944152832;0.0;0.0;0.0
1519;0.0;0.0;0.0;0.20398399233818054;-0.14347200095653534;1.148751974105835;0.0;0.0;0.0
1521;0.0;0.0;0.0;0.2000799924135208;-0.17470400035381317;1.132159948348999;0.0;0.0;0.0
1523;0.08515600115060806;-0.020495999604463577;0.9896639585494995;0.2000799924135208;-0.17080000042915344;1.1526559591293335;0.109375;0.12687501311302185;0.27125000953674316
1525;0.0;0.0;0.0;0.16884799301624298;-0.1668960005044937;1.1448479890823364;0.0;0.0;0.0
1527;0.0;0.0;0.0;0.21959999203681946;-0.13176000118255615;1.1614400148391724;0.0;0.0;0.0
1529;0.0;0.0;0.0;0.18836799263954163;-0.13566400110721588;1.132159948348999;0.0;0.0;0.0
1532;0.08466799557209015;-0.019763998687267303;0.9903959631919861;0.2235039919614792;-0.15908800065517426;1.140944004058838;0.039374999701976776;0.2668749988079071;0.3412500023841858
1534;0.0;0.0;0.0;0.19617599248886108;-0.14347200095653534;1.132159948348999;0.0;0.0;0.0
1536;0.0;0.0;0.0;0.1727519929409027;-0.1512800008058548;1.1448479890823364;0.0;0.0;0.0
1538;0.0;0.0;0.0;0.21569599211215973;-0.13566400110721588;1.1526559591293335;0.0;0.0;0.0
1540;0.0832040011882782;-0.02025200054049492;0.9911279678344727;0.17665599286556244;-0.14347200095653534;1.148751974105835;0.039374999701976776;0.12687501311302185;0.3368750214576721
1542;0.0;0.0;0.0;0.20398399233818054;-0.15518400073051453;1.1370400190353394;0.0;0.0;0.0
1544;0.0;0.0;0.0;0.21959999203681946;-0.1668960005044937;1.156559944152832;0.0;0.0;0.0
1546;0.0;0.0;0.0;0.19227199256420135;-0.15908800065517426;1.140944004058838;0.0;0.0;0.0
1549;0.08393599838018417;-0.020739998668432236;0.98990797996521;0.2000799924135208;-0.16299200057983398;1.140944004058838;0.109375;0.19249999523162842;0.3368750214576721
1551;0.0;0.0;0.0;0.19227199256420135;-0.15518400073051453;1.148751974105835;0.0;0.0;0.0
1553;0.0;0.0;0.0;0.20788799226284027;-0.13176000118255615;1.140944004058838;0.0;0.0;0.0
1555;0.0;0.0;0.0;0.18055999279022217;-0.15908800065517426;1.156559944152832;0.0;0.0;0.0
1557;0.08466799557209015;-0.020495999604463577;0.9889319539070129;0.20788799226284027;-0.14737600088119507;1.148751974105835;0.109375;0.12250000983476639;0.33250001072883606
1559;0.0;0.0;0.0;0.19617599248886108;-0.16299200057983398;1.148751974105835;0.0;0.0;0.0
1561;0.0;0.0;0.0;0.18836799263954163;-0.15908800065517426;1.1370400190353394;0.0;0.0;0.0
1563;0.0;0.0;0.0;0.17665599286556244;-0.1395680010318756;1.1448479890823364;0.0;0.0;0.0
1566;0.08417999744415283;-0.020495999604463577;0.9891759753227234;0.20398399233818054;-0.14737600088119507;1.148751974105835;0.109375;0.19249999523162842;0.33250001072883606
1568;0.0;0.0;0.0;0.20788799226284027;-0.1395680010318756;1.148751974105835;0.0;0.0;0.0
1570;0.0;0.0;0.0;0.19227199256420135;-0.17470400035381317;1.140944004058838;0.0;0.0;0.0
1572;0.0;0.0;0.0;0.20398399233818054;-0.14347200095653534;1.1165440082550049;0.0;0.0;0.0
1574;0.0849120020866394;-0.02025200054049492;0.9894199967384338;0.19617599248886108;-0.1512800008058548;1.1614400148391724;0.109375;0.19249999523162842;0.33250001072883606
1576;0.0;0.0;0.0;0.20788799226284027;-0.17080000042915344;1.124351978302002;0.0;0.0;0.0
1578;0.0;0.0;0.0;0.20398399233818054;-0.1512800008058548;1.124351978302002;0.0;0.0;0.0
1580;0.0;0.0;0.0;0.21569599211215973;-0.1668960005044937;1.1370400190353394;0.0;0.0;0.0
1583;0.08442399650812149;-0.02025200054049492;0.9906399846076965;0.20398399233818054;-0.14737600088119507;1.1360639333724976;0.039374999701976776;0.2581250071525574;0.328125
1585;0.0;0.0;0.0;0.20398399233818054;-0.14737600088119507;1.1204479932785034;0.0;0.0;0.0
1587;0.0;0.0;0.0;0.16884799301624298;-0.14347200095653534;1.1526559591293335;0.0;0.0;0.0
1589;0.0;0.0;0.0;0.19617599248886108;-0.16299200057983398;1.124351978302002;0.0;0.0;0.0
1591;0.08515600115060806;-0.02025200054049492;0.9903959631919861;0.18055999279022217;-0.14737600088119507;1.1448479890823364;0.039374999701976776;0.2581250071525574;0.328125
1593;0.0;0.0;0.0;0.2000799924135208;-0.13176000118255615;1.132159948348999;0.0;0.0;0.0
1595;0.0;0.0;0.0;0.2235039919614792;-0.17470400035381317;1.124351978302002;0.0;0.0;0.0
1597;0.0;0.0;0.0;0.1844639927148819;-0.14347200095653534;1.132159948348999;0.0;0.0;0.0
1600;0.0849120020866394;-0.02000799961388111;0.98990797996521;0.20788799226284027;-0.1512800008058548;1.1370400190353394;0.039374999701976776;0.18812499940395355;0.32375001907348633
1602;0.0;0.0;0.0;0.2000799924135208;-0.17470400035381317;1.140944004058838;0.0;0.0;0.0
1604;0.0;0.0;0.0;0.19617599248886108;-0.1395680010318756;1.1282559633255005;0.0;0.0;0.0
1606;0.0;0.0;0.0;0.18055999279022217;-0.15518400073051453;1.1604639291763306;0.0;0.0;0.0
1608;0.08515600115060806;-0.02025200054049492;0.9903959631919861;0.19227199256420135;-0.1668960005044937;1.140944004058838;0.03500000014901161;0.18812499940395355;0.32375001907348633
1610;0.0;0.0;0.0;0.2117919921875;-0.1512800008058548;1.1370400190353394;0.0;0.0;0.0
1612;0.0;0.0;0.0;0.1727519929409027;-0.15518400073051453;1.148751974105835;0.0;0.0;0.0
1614;0.0;0.0;0.0;0.21569599211215973;-0.12785600125789642;1.1526559591293335;0.0;0.0;0.0
1617;0.08515600115060806;-0.02000799961388111;0.9901520013809204;0.21569599211215973;-0.1668960005044937;1.1370400190353394;0.10500000417232513;0.18812499940395355;0.32375001907348633
1619;0.0;0.0;0.0;0.19227199256420135;-0.1668960005044937;1.156559944152832;0.0;0.0;0.0
1621;0.0;0.0;0.0;0.19227199256420135;-0.1668960005044937;1.148751974105835;0.0;0.0;0.0
1623;0.0;0.0;0.0;0.19227199256420135;-0.1512800008058548;1.1370400190353394;0.0;0.0;0.0
1625;0.08393599838018417;-0.02000799961388111;0.9903959631919861;0.19617599248886108;-0.14737600088119507;1.1448479890823364;0.10500000417232513;0.1837500035762787;0.31937500834465027
1627;0.0;0.0;0.0;0.1844639927148819;-0.1668960005044937;1.148751974105835;0.0;0.0;0.0
1629;0.0;0.0;0.0;0.18055999279022217;-0.1395680010318756;1.1604639291763306;0.0;0.0;0.0
1631;0.0;0.0;0.0;0.19227199256420135;-0.1668960005044937;1.156559944152832;0.0;0.0;0.0
1634;0.08442399650812149;-0.02000799961388111;0.9901520013809204;0.19617599248886108;-0.15518400073051453;1.140944004058838;0.03500000014901161;0.1837500035762787;0.3893750011920929
1636;0.0;0.0;0.0;0.20398399233818054;-0.1512800008058548;1.1282559633255005;0.0;0.0;0.0
1638;0.0;0.0;0.0;0.18836799263954163;-0.15518400073051453;1.1370400190353394;0.0;0.0;0.0
1640;0.0;0.0;0.0;0.17665599286556244;-0.17080000042915344;1.1448479890823364;0.0;0.0;0.0
1642;0.08442399650812149;-0.02025200054049492;0.9896639585494995;0.21959999203681946;-0.13176000118255615;1.1204479932785034;0.03500000014901161;0.11375001072883606;0.31937500834465027
1644;0.0;0.0;0.0;0.19617599248886108;-0.14737600088119507;1.165343999862671;0.0;0.0;0.0
1646;0.0;0.0;0.0;0.19617599248886108;-0.1512800008058548;1.124351978302002;0.0;0.0;0.0
1648;0.0;0.0;0.0;0.21959999203681946;-0.15518400073051453;1.148751974105835;0.0;0.0;0.0
1651;0.08466799557209015;-0.02025200054049492;0.98990797996521;0.2000799924135208;-0.14737600088119507;1.1526559591293335;0.17500001192092896;0.2537499964237213;0.3149999976158142
1653;0.0;0.0;0.0;0.21569599211215973;-0.1395680010318756;1.156559944152832;0.0;0.0;0.0
1655;0.0;0.0;0.0;0.1844639927148819;-0.16299200057983398;1.148751974105835;0.0;0.0;0.0
1657;0.0;0.0;0.0;0.2235039919614792;-0.14737600088119507;1.1204479932785034;0.0;0.0;0.0
1659;0.08442399650812149;-0.020739998668432236;0.9896639585494995;0.18055999279022217;-0.13566400110721588;1.1526559591293335;0.10500000417232513;0.1837500035762787;0.3149999976158142
1661;0.0;0.0;0.0;0.1844639927148819;-0.15908800065517426;1.1370400190353394;0.0;0.0;0.0
1663;0.0;0.0;0.0;0.18836799263954163;-0.13566400110721588;1.156559944152832;0.0;0.0;0.0
1665;0.0;0.0;0.0;0.19227199256420135;-0.1786080002784729;1.124351978302002;0.0;0.0;0.0
1668;0.08442399650812149;-0.02000799961388111;0.98990797996521;0.17665599286556244;-0.16299200057983398;1.1370400190353394;0.10500000417232513;0.1093750074505806;0.3149999976158142
1670;0.0;0.0;0.0;0.19617599248886108;-0.15908800065517426;1.1448479890823364;0.0;0.0;0.0
1672;0.0;0.0;0.0;0.19227199256420135;-0.16299200057983398;1.140944004058838;0.0;0.0;0.0
1674;0.0;0.0;0.0;0.2000799924135208;-0.1395680010318756;1.140944004058838;0.0;0.0;0.0
1676;0.08417999744415283;-0.02000799961388111;0.9896639585494995;0.16103999316692352;-0.17080000042915344;1.165343999862671;0.03500000014901161;0.17937499284744263;0.31062501668930054
1678;0.0;0.0;0.0;0.17665599286556244;-0.1786080002784729;1.1370400190353394;0.0;0.0;0.0
1680;0.0;0.0;0.0;0.19227199256420135;-0.15908800065517426;1.140944004058838;0.0;0.0;0.0
1683;0.0;0.0;0.0;0.19617599248886108;-0.14737600088119507;1.107759952545166;0.0;0.0;0.0
1685;0.08466799557209015;-0.02000799961388111;0.9903959631919861;0.2117919921875;-0.13566400110721588;1.1448479890823364;0.10500000417232513;0.17937499284744263;0.31062501668930054
1687;0.0;0.0;0.0;0.19227199256420135;-0.1668960005044937;1.1360639333724976;0.0;0.0;0.0
1689;0.0;0.0;0.0;0.20398399233818054;-0.1668960005044937;1.132159948348999;0.0;0.0;0.0
1691;0.0;0.0;0.0;0.19227199256420135;-0.1668960005044937;1.1448479890823364;0.0;0.0;0.0
1693;0.08466799557209015;-0.02000799961388111;0.98990797996521;0.20788799226284027;-0.1512800008058548;1.1604639291763306;0.03500000014901161;0.1093750074505806;0.3062500059604645
1695;0.0;0.0;0.0;0.18055999279022217;-0.15518400073051453;1.1614400148391724;0.0;0.0;0.0
1697;0.0;0.0;0.0;0.20398399233818054;-0.17470400035381317;1.148751974105835;0.0;0.0;0.0
1700;0.0;0.0;0.0;0.18836799263954163;-0.14737600088119507;1.1282559633255005;0.0;0.0;0.0
1702;0.0849120020866394;-0.02025200054049492;0.98990797996521;0.18055999279022217;-0.1512800008058548;1.148751974105835;0.03500000014901161;0.17937499284744263;0.3062500059604645
1704;0.0;0.0;0.0;0.22740799188613892;-0.15908800065517426;1.140944004058838;0.0;0.0;0.0
1706;0.0;0.0;0.0;0.1844639927148819;-0.16299200057983398;1.124351978302002;0.0;0.0;0.0
1708;0.0;0.0;0.0;0.21569599211215973;-0.14347200095653534;1.1370400190353394;0.0;0.0;0.0
1710;0.08564399927854538;-0.02000799961388111;0.9896639585494995;0.2000799924135208;-0.1668960005044937;1.1526559591293335;0.10062500089406967;0.2449999898672104;0.3062500059604645
1712;0.0;0.0;0.0;0.19617599248886108;-0.13566400110721588;1.132159948348999;0.0;0.0;0.0
1714;0.0;0.0;0.0;0.19617599248886108;-0.1512800008058548;1.165343999862671;0.0;0.0;0.0
1717;0.0;0.0;0.0;0.2117919921875;-0.15518400073051453;1.1360639333724976;0.0;0.0;0.0
1719;0.08466799557209015;-0.019519999623298645;0.9886879920959473;0.2000799924135208;-0.13176000118255615;1.132159948348999;0.10062500089406967;0.17499999701976776;0.3018749952316284
1721;0.0;0.0;0.0;0.19617599248886108;-0.1668960005044937;1.148751974105835;0.0;0.0;0.0
1723;0.0;0.0;0.0;0.18055999279022217;-0.1512800008058548;1.1448479890823364;0.0;0.0;0.0
1725;0.0;0.0;0.0;0.17665599286556244;-0.16299200057983398;1.1604639291763306;0.0;0.0;0.0
1727;0.08466799557209015;-0.020983999595046043;0.98990797996521;0.19617599248886108;-0.13566400110721588;1.1448479890823364;0.030625000596046448;0.17499999701976776;0.3018749952316284
1729;0.0;0.0;0.0;0.2117919921875;-0.15908800065517426;1.124351978302002;0.0;0.0;0.0
1731;0.0;0.0;0.0;0.1844639927148819;-0.1395680010318756;1.156559944152832;0.0;0.0;0.0
1734;0.0;0.0;0.0;0.18055999279022217;-0.1512800008058548;1.1282559633255005;0.0;0.0;0.0
1736;0.0849120020866394;-0.02000799961388111;0.9896639585494995;0.17665599286556244;-0.15908800065517426;1.1448479890823364;0.030625000596046448;0.10500000417232513;0.3018749952316284
1738;0.0;0.0;0.0;0.19227199256420135;-0.1512800008058548;1.148751974105835;0.0;0.0;0.0
1740;0.0;0.0;0.0;0.1727519929409027;-0.1512800008058548;1.156559944152832;0.0;0.0;0.0
1742;0.0;0.0;0.0;0.18836799263954163;-0.17470400035381317;1.148751974105835;0.0;0.0;0.0
1744;0.08515600115060806;-0.02025200054049492;0.9903959631919861;0.17665599286556244;-0.14737600088119507;1.165343999862671;0.030625000596046448;0.17499999701976776;0.29750001430511475
1746;0.0;0.0;0.0;0.1727519929409027;-0.13566400110721588;1.1370400190353394;0.0;0.0;0.0
1748;0.0;0.0;0.0;0.18055999279022217;-0.13176000118255615;1.1526559591293335;0.0;0.0;0.0
1751;0.0;0.0;0.0;0.1727519929409027;-0.15518400073051453;1.124351978302002;0.0;0.0;0.0
1753;0.08393599838018417;-0.02000799961388111;0.9901520013809204;0.19227199256420135;-0.15908800065517426;1.1370400190353394;0.030625000596046448;0.1706250011920929;0.29750001430511475
1755;0.0;0.0;0.0;0.21569599211215973;-0.18251200020313263;1.1370400190353394;0.0;0.0;0.0
1757;0.0;0.0;0.0;0.18836799263954163;-0.13176000118255615;1.148751974105835;0.0;0.0;0.0
1759;0.0;0.0;0.0;0.1727519929409027;-0.16299200057983398;1.1526559591293335;0.0;0.0;0.0
1761;0.08466799557209015;-0.020983999595046043;0.98990797996521;0.18836799263954163;-0.16299200057983398;1.1370400190353394;0.10062500089406967;0.1706250011920929;0.29750001430511475
1763;0.0;0.0;0.0;0.2000799924135208;-0.1395680010318756;1.1370400190353394;0.0;0.0;0.0
1765;0.0;0.0;0.0;0.17665599286556244;-0.13566400110721588;1.148751974105835;0.0;0.0;0.0
1768;0.0;0.0;0.0;0.20398399233818054;-0.14737600088119507;1.156559944152832;0.0;0.0;0.0
1770;0.08466799557209015;-0.02000799961388111;0.9886879920959473;0.18055999279022217;-0.13566400110721588;1.140944004058838;0.10062500089406967;0.1706250011920929;0.2931250035762787
1772;0.0;0.0;0.0;0.20398399233818054;-0.1512800008058548;1.1253279447555542;0.0;0.0;0.0
1774;0.0;0.0;0.0;0.18836799263954163;-0.14347200095653534;1.1380159854888916;0.0;0.0;0.0
1776;0.0;0.0;0.0;0.17665599286556244;-0.15518400073051453;1.1331360340118408;0.0;0.0;0.0
1778;0.08417999744415283;-0.020983999595046043;0.98990797996521;0.1844639927148819;-0.15908800065517426;1.1292319297790527;0.10062500089406967;0.1706250011920929;0.2931250035762787
1780;0.0;0.0;0.0;0.19617599248886108;-0.18251200020313263;1.1497279405593872;0.0;0.0;0.0
1782;0.0;0.0;0.0;0.19617599248886108;-0.15518400073051453;1.1419199705123901;0.0;0.0;0.0
1785;0.0;0.0;0.0;0.1844639927148819;-0.1512800008058548;1.1136159896850586;0.0;0.0;0.0
1787;0.08540000021457672;-0.02025200054049492;0.9894199967384338;0.20398399233818054;-0.15518400073051453;1.1331360340118408;0.10062500089406967;0.1706250011920929;0.3631249964237213
1789;0.0;0.0;0.0;0.17665599286556244;-0.1668960005044937;1.1526559591293335;0.0;0.0;0.0
1791;0.0;0.0;0.0;0.2117919921875;-0.17080000042915344;1.148751974105835;0.0;0.0;0.0
1793;0.0;0.0;0.0;0.19617599248886108;-0.17470400035381317;1.1614400148391724;0.0;0.0;0.0
1795;0.0849120020866394;-0.02025200054049492;0.98990797996521;0.19227199256420135;-0.14347200095653534;1.1370400190353394;0.10062500089406967;0.1706250011920929;0.2887499928474426
1797;0.0;0.0;0.0;0.20788799226284027;-0.17080000042915344;1.1282559633255005;0.0;0.0;0.0
1799;0.0;0.0;0.0;0.2000799924135208;-0.1668960005044937;1.132159948348999;0.0;0.0;0.0
1802;0.0;0.0;0.0;0.17665599286556244;-0.16299200057983398;1.140944004058838;0.0;0.0;0.0
1804;0.08466799557209015;-0.02000799961388111;0.9894199967384338;0.19617599248886108;-0.1395680010318756;1.1282559633255005;0.030625000596046448;0.16624999046325684;0.2887499928474426
1806;0.0;0.0;0.0;0.1844639927148819;-0.14347200095653534;1.148751974105835;0.0;0.0;0.0
1808;0.0;0.0;0.0;0.2000799924135208;-0.15518400073051453;1.132159948348999;0.0;0.0;0.0
1810;0.0;0.0;0.0;0.1844639927148819;-0.13566400110721588;1.1165440082550049;0.0;0.0;0.0
1812;0.08442399650812149;-0.02000799961388111;0.9903959631919861;0.17665599286556244;-0.15518400073051453;1.1370400190353394;0.09624999761581421;0.16624999046325684;0.2887499928474426
1815;0.0;0.0;0.0;0.19617599248886108;-0.15908800065517426;1.140944004058838;0.0;0.0;0.0
1816;0.0;0.0;0.0;0.20788799226284027;-0.17470400035381317;1.1370400190353394;0.0;0.0;0.0
1819;0.0;0.0;0.0;0.2000799924135208;-0.14347200095653534;1.1604639291763306;0.0;0.0;0.0
1821;0.08515600115060806;-0.020495999604463577;0.9903959631919861;0.1727519929409027;-0.14347200095653534;1.132159948348999;0.09624999761581421;0.16624999046325684;0.21437501907348633
1823;0.0;0.0;0.0;0.2117919921875;-0.1668960005044937;1.1497279405593872;0.0;0.0;0.0
1825;0.0;0.0;0.0;0.20788799226284027;-0.14737600088119507;1.1292319297790527;0.0;0.0;0.0
1827;0.0;0.0;0.0;0.18055999279022217;-0.12785600125789642;1.1702239513397217;0.0;0.0;0.0
1829;0.0849120020866394;-0.02025200054049492;0.98990797996521;0.2117919921875;-0.1668960005044937;1.1292319297790527;0.09624999761581421;0.16624999046325684;0.28437501192092896
1832;0.0;0.0;0.0;0.17665599286556244;-0.1395680010318756;1.1419199705123901;0.0;0.0;0.0
1833;0.0;0.0;0.0;0.19227199256420135;-0.12785600125789642;1.1331360340118408;0.0;0.0;0.0
1836;0.0;0.0;0.0;0.20788799226284027;-0.15518400073051453;1.1292319297790527;0.0;0.0;0.0
1838;0.08540000021457672;-0.020495999604463577;0.9894199967384338;0.21569599211215973;-0.17470400035381317;1.1331360340118408;0.09624999761581421;0.16624999046325684;0.28437501192092896
1840;0.0;0.0;0.0;0.20398399233818054;-0.1512800008058548;1.1692479848861694;0.0;0.0;0.0
1842;0.0;0.0;0.0;0.19617599248886108;-0.18251200020313263;1.124351978302002;0.0;0.0;0.0
1844;0.0;0.0;0.0;0.1844639927148819;-0.15908800065517426;1.173151969909668;0.0;0.0;0.0
1846;0.08540000021457672;-0.02000799961388111;0.9903959631919861;0.19227199256420135;-0.18641600012779236;1.1370400190353394;0.09624999761581421;0.16187500953674316;0.2800000011920929
1849;0.0;0.0;0.0;0.2235039919614792;-0.16299200057983398;1.156559944152832;0.0;0.0;0.0
1851;0.0;0.0;0.0;0.18055999279022217;-0.16299200057983398;1.1282559633255005;0.0;0.0;0.0
1853;0.0;0.0;0.0;0.18055999279022217;-0.16299200057983398;1.1370400190353394;0.0;0.0;0.0
1855;0.0849120020866394;-0.020739998668432236;0.9896639585494995;0.19617599248886108;-0.1512800008058548;1.132159948348999;0.16625000536441803;0.09187500923871994;0.2800000011920929
1857;0.0;0.0;0.0;0.18836799263954163;-0.1668960005044937;1.1360639333724976;0.0;0.0;0.0
1859;0.0;0.0;0.0;0.2000799924135208;-0.14737600088119507;1.140944004058838;0.0;0.0;0.0
1861;0.0;0.0;0.0;0.21569599211215973;-0.14347200095653534;1.1604639291763306;0.0;0.0;0.0
1863;0.08564399927854538;-0.020495999604463577;0.9894199967384338;0.19617599248886108;-0.1668960005044937;1.1448479890823364;0.09624999761581421;0.16187500953674316;0.21000000834465027
1866;0.0;0.0;0.0;0.16494399309158325;-0.15908800065517426;1.1526559591293335;0.0;0.0;0.0
1868;0.0;0.0;0.0;0.18055999279022217;-0.16299200057983398;1.140944004058838;0.0;0.0;0.0
1870;0.0;0.0;0.0;0.2000799924135208;-0.1395680010318756;1.1282559633255005;0.0;0.0;0.0
1872;0.08515600115060806;-0.02025200054049492;0.9896639585494995;0.2000799924135208;-0.19812799990177155;1.1526559591293335;0.09624999761581421;0.16187500953674316;0.2800000011920929
1874;0.0;0.0;0.0;0.1727519929409027;-0.1512800008058548;1.1370400190353394;0.0;0.0;0.0
1876;0.0;0.0;0.0;0.20398399233818054;-0.1395680010318756;1.140944004058838;0.0;0.0;0.0
1878;0.0;0.0;0.0;0.19617599248886108;-0.17080000042915344;1.1448479890823364;0.0;0.0;0.0
1880;0.08417999744415283;-0.020495999604463577;0.98990797996521;0.18836799263954163;-0.1668960005044937;1.1526559591293335;0.09624999761581421;0.16187500953674316;0.27562499046325684
1883;0.0;0.0;0.0;0.20788799226284027;-0.15518400073051453;1.156559944152832;0.0;0.0;0.0
1885;0.0;0.0;0.0;0.20398399233818054;-0.14347200095653534;1.148751974105835;0.0;0.0;0.0
1887;0.0;0.0;0.0;0.16103999316692352;-0.1395680010318756;1.1448479890823364;0.0;0.0;0.0
1889;0.08466799557209015;-0.020739998668432236;0.9903959631919861;0.18055999279022217;-0.17470400035381317;1.1448479890823364;0.09187500178813934;0.22749999165534973;0.27562499046325684
1891;0.0;0.0;0.0;0.19227199256420135;-0.14737600088119507;1.1360639333724976;0.0;0.0;0.0
1893;0.0;0.0;0.0;0.20788799226284027;-0.1239520013332367;1.132159948348999;0.0;0.0;0.0
1895;0.0;0.0;0.0;0.1844639927148819;-0.14737600088119507;1.132159948348999;0.0;0.0;0.0
1897;0.08442399650812149;-0.02000799961388111;0.98990797996521;0.20398399233818054;-0.1668960005044937;1.148751974105835;0.09187500178813934;0.1574999988079071;0.27562499046325684
1900;0.0;0.0;0.0;0.20398399233818054;-0.14737600088119507;1.165343999862671;0.0;0.0;0.0
1902;0.0;0.0;0.0;0.20398399233818054;-0.15518400073051453;1.173151969909668;0.0;0.0;0.0
1904;0.0;0.0;0.0;0.1727519929409027;-0.17080000042915344;1.1526559591293335;0.0;0.0;0.0
1906;0.08442399650812149;-0.02000799961388111;0.9903959631919861;0.1844639927148819;-0.17080000042915344;1.140944004058838;0.02187500149011612;0.1574999988079071;0.27125000953674316
1908;0.0;0.0;0.0;0.21569599211215973;-0.1512800008058548;1.148751974105835;0.0;0.0;0.0
1910;0.0;0.0;0.0;0.19227199256420135;-0.1512800008058548;1.132159948348999;0.0;0.0;0.0
1912;0.0;0.0;0.0;0.20788799226284027;-0.17080000042915344;1.1370400190353394;0.0;0.0;0.0
1914;0.0849120020866394;-0.02025200054049492;0.98990797996521;0.2000799924135208;-0.16299200057983398;1.140944004058838;0.09187500178813934;0.1574999988079071;0.27125000953674316
1917;0.0;0.0;0.0;0.1844639927148819;-0.14347200095653534;1.1448479890823364;0.0;0.0;0.0
1919;0.0;0.0;0.0;0.20398399233818054;-0.15518400073051453;1.1526559591293335;0.0;0.0;0.0
1921;0.0;0.0;0.0;0.18055999279022217;-0.15518400073051453;1.1448479890823364;0.0;0.0;0.0
1923;0.08442399650812149;-0.020495999604463577;0.9906399846076965;0.2117919921875;-0.16299200057983398;1.132159948348999;0.02187500149011612;0.1574999988079071;0.27125000953674316
1925;0.0;0.0;0.0;0.20788799226284027;-0.1239520013332367;1.132159948348999;0.0;0.0;0.0
1927;0.0;0.0;0.0;0.19617599248886108;-0.17470400035381317;1.1360639333724976;0.0;0.0;0.0
1929;0.0;0.0;0.0;0.2117919921875;-0.16299200057983398;1.148751974105835;0.0;0.0;0.0
1931;0.0849120020866394;-0.020495999604463577;0.9896639585494995;0.1727519929409027;-0.15518400073051453;1.156559944152832;0.02187500149011612;0.22749999165534973;0.2668750286102295
1934;0.0;0.0;0.0;0.20398399233818054;-0.13176000118255615;1.1370400190353394;0.0;0.0;0.0
1936;0.0;0.0;0.0;0.18055999279022217;-0.1668960005044937;1.1526559591293335;0.0;0.0;0.0
1938;0.0;0.0;0.0;0.20788799226284027;-0.1512800008058548;1.140944004058838;0.0;0.0;0.0
1940;0.08466799557209015;-0.02000799961388111;0.9903959631919861;0.20788799226284027;-0.16299200057983398;1.132159948348999;0.09187500178813934;0.15312500298023224;0.2668750286102295
1942;0.0;0.0;0.0;0.18836799263954163;-0.14347200095653534;1.1380159854888916;0.0;0.0;0.0
1944;0.0;0.0;0.0;0.20398399233818054;-0.15908800065517426;1.1292319297790527;0.0;0.0;0.0
1946;0.0;0.0;0.0;0.19617599248886108;-0.15908800065517426;1.1536319255828857;0.0;0.0;0.0
1948;0.08515600115060806;-0.020495999604463577;0.9896639585494995;0.18836799263954163;-0.15908800065517426;1.1292319297790527;0.09187500178813934;0.08312501013278961;0.2668750286102295
1951;0.0;0.0;0.0;0.18055999279022217;-0.16299200057983398;1.1253279447555542;0.0;0.0;0.0
1953;0.0;0.0;0.0;0.20788799226284027;-0.15908800065517426;1.1292319297790527;0.0;0.0;0.0
1955;0.0;0.0;0.0;0.20788799226284027;-0.15518400073051453;1.1331360340118408;0.0;0.0;0.0
1957;0.08515600115060806;-0.019519999623298645;0.9906399846076965;0.21569599211215973;-0.17080000042915344;1.1292319297790527;0.09187500178813934;0.15312500298023224;0.26249998807907104
1959;0.0;0.0;0.0;0.20398399233818054;-0.1512800008058548;1.1331360340118408;0.0;0.0;0.0
1961;0.0;0.0;0.0;0.20788799226284027;-0.15908800065517426;1.1536319255828857;0.0;0.0;0.0
1963;0.0;0.0;0.0;0.19227199256420135;-0.13566400110721588;1.1419199705123901;0.0;0.0;0.0
1965;0.08466799557209015;-0.02025200054049492;0.98990797996521;0.19617599248886108;-0.15908800065517426;1.1458239555358887;0.09187500178813934;0.15312500298023224;0.26249998807907104
1968;0.0;0.0;0.0;0.19227199256420135;-0.16299200057983398;1.1458239555358887;0.0;0.0;0.0
1970;0.0;0.0;0.0;0.19617599248886108;-0.15908800065517426;1.1663199663162231;0.0;0.0;0.0
1972;0.0;0.0;0.0;0.19227199256420135;-0.15518400073051453;1.1458239555358887;0.0;0.0;0.0
1974;0.08466799557209015;-0.02000799961388111;0.9903959631919861;0.20398399233818054;-0.1512800008058548;1.1419199705123901;0.02187500149011612;0.22312499582767487;0.26249998807907104
1976;0.0;0.0;0.0;0.2117919921875;-0.14737600088119507;1.1448479890823364;0.0;0.0;0.0
1978;0.0;0.0;0.0;0.20398399233818054;-0.16299200057983398;1.1448479890823364;0.0;0.0;0.0
1980;0.0;0.0;0.0;0.2000799924135208;-0.15908800065517426;1.132159948348999;0.0;0.0;0.0
1982;0.08393599838018417;-0.020495999604463577;0.9903959631919861;0.18055999279022217;-0.15908800065517426;1.1370400190353394;0.1574999988079071;0.08312501013278961;0.26249998807907104
1985;0.0;0.0;0.0;0.1844639927148819;-0.15518400073051453;1.1448479890823364;0.0;0.0;0.0
1987;0.0;0.0;0.0;0.20398399233818054;-0.1512800008058548;1.1370400190353394;0.0;0.0;0.0
1989;0.0;0.0;0.0;0.18055999279022217;-0.16299200057983398;1.1204479932785034;0.0;0.0;0.0
1991;0.08442399650812149;-0.019763998687267303;0.9901520013809204;0.20788799226284027;-0.16299200057983398;1.1448479890823364;0.017499998211860657;0.14875000715255737;0.2581250071525574
1993;0.0;0.0;0.0;0.2000799924135208;-0.1395680010318756;1.1360639333724976;0.0;0.0;0.0
1995;0.0;0.0;0.0;0.2117919921875;-0.15908800065517426;1.148751974105835;0.0;0.0;0.0
1997;0.0;0.0;0.0;0.20398399233818054;-0.15908800065517426;1.1526559591293335;0.0;0.0;0.0
1999;0.08540000021457672;-0.020495999604463577;0.9896639585494995;0.17665599286556244;-0.15518400073051453;1.1604639291763306;0.017499998211860657;0.14875000715255737;0.2581250071525574
2002;0.0;0.0;0.0;0.1844639927148819;-0.17470400035381317;1.140944004058838;0.0;0.0;0.0
2004;0.0;0.0;0.0;0.2000799924135208;-0.17470400035381317;1.156559944152832;0.0;0.0;0.0
2006;0.0;0.0;0.0;0.20788799226284027;-0.1512800008058548;1.1448479890823364;0.0;0.0;0.0
2008;0.08540000021457672;-0.02025200054049492;0.9903959631919861;0.20398399233818054;-0.15518400073051453;1.140944004058838;0.017499998211860657;0.21875;0.2581250071525574
2010;0.0;0.0;0.0;0.19617599248886108;-0.15518400073051453;1.132159948348999;0.0;0.0;0.0
2012;0.0;0.0;0.0;0.18055999279022217;-0.15908800065517426;1.124351978302002;0.0;0.0;0.0
2014;0.0;0.0;0.0;0.1844639927148819;-0.14737600088119507;1.1370400190353394;0.0;0.0;0.0
2016;0.08466799557209015;-0.02025200054049492;0.9906399846076965;0.19227199256420135;-0.14347200095653534;1.1370400190353394;0.08749999850988388;0.14875000715255737;0.2537500262260437
2019;0.0;0.0;0.0;0.19227199256420135;-0.13176000118255615;1.156559944152832;0.0;0.0;0.0
2021;0.0;0.0;0.0;0.18836799263954163;-0.17470400035381317;1.1204479932785034;0.0;0.0;0.0
2023;0.0;0.0;0.0;0.1844639927148819;-0.1512800008058548;1.124351978302002;0.0;0.0;0.0
2025;0.08442399650812149;-0.020495999604463577;0.9906399846076965;0.19227199256420135;-0.1668960005044937;1.124351978302002;0.08749999850988388;0.14875000715255737;0.2537500262260437
2027;0.0;0.0;0.0;0.19617599248886108;-0.16299200057983398;1.140944004058838;0.0;0.0;0.0
2029;0.0;0.0;0.0;0.21959999203681946;-0.1512800008058548;1.165343999862671;0.0;0.0;0.0
2031;0.0;0.0;0.0;0.2000799924135208;-0.16299200057983398;1.148751974105835;0.0;0.0;0.0
2033;0.08442399650812149;-0.02000799961388111;0.9894199967384338;0.19617599248886108;-0.13566400110721588;1.1282559633255005;0.017499998211860657;0.1443749964237213;0.2537500262260437
2036;0.0;0.0;0.0;0.18055999279022217;-0.1668960005044937;1.1526559591293335;0.0;0.0;0.0
2038;0.0;0.0;0.0;0.2000799924135208;-0.1512800008058548;1.1370400190353394;0.0;0.0;0.0
2040;0.0;0.0;0.0;0.17665599286556244;-0.14347200095653534;1.1526559591293335;0.0;0.0;0.0
2042;0.0849120020866394;-0.019763998687267303;0.9903959631919861;0.19227199256420135;-0.14737600088119507;1.132159948348999;0.017499998211860657;0.1443749964237213;0.2537500262260437
2044;0.0;0.0;0.0;0.1727519929409027;-0.15908800065517426;1.140944004058838;0.0;0.0;0.0
2046;0.0;0.0;0.0;0.1727519929409027;-0.14347200095653534;1.140944004058838;0.0;0.0;0.0
2048;0.0;0.0;0.0;0.20398399233818054;-0.15518400073051453;1.156559944152832;0.0;0.0;0.0
2050;0.0849120020866394;-0.020495999604463577;0.9906399846076965;0.20788799226284027;-0.14347200095653534;1.124351978302002;0.08749999850988388;0.1443749964237213;0.24937501549720764
2053;0.0;0.0;0.0;0.20788799226284027;-0.15518400073051453;1.156559944152832;0.0;0.0;0.0
2055;0.0;0.0;0.0;0.1844639927148819;-0.16299200057983398;1.156559944152832;0.0;0.0;0.0
2057;0.0;0.0;0.0;0.2117919921875;-0.15908800065517426;1.1448479890823364;0.0;0.0;0.0
2059;0.08466799557209015;-0.020495999604463577;0.9894199967384338;0.18836799263954163;-0.1668960005044937;1.140944004058838;0.08749999850988388;0.1443749964237213;0.24937501549720764
2061;0.0;0.0;0.0;0.1727519929409027;-0.14737600088119507;1.156559944152832;0.0;0.0;0.0
2063;0.0;0.0;0.0;0.20398399233818054;-0.15908800065517426;1.1526559591293335;0.0;0.0;0.0
2065;0.0;0.0;0.0;0.21959999203681946;-0.1668960005044937;1.124351978302002;0.0;0.0;0.0
2067;0.08515600115060806;-0.019519999623298645;0.9906399846076965;0.2117919921875;-0.15908800065517426;1.1526559591293335;0.017499998211860657;0.1443749964237213;0.24937501549720764
2070;0.0;0.0;0.0;0.18836799263954163;-0.15908800065517426;1.1448479890823364;0.0;0.0;0.0
2072;0.0;0.0;0.0;0.1844639927148819;-0.16299200057983398;1.148751974105835;0.0;0.0;0.0
2074;0.0;0.0;0.0;0.18055999279022217;-0.14737600088119507;1.140944004058838;0.0;0.0;0.0
2076;0.0849120020866394;-0.02025200054049492;0.9901520013809204;0.20788799226284027;-0.14737600088119507;1.148751974105835;0.08749999850988388;0.1443749964237213;0.24500000476837158
2078;0.0;0.0;0.0;0.19617599248886108;-0.15908800065517426;1.1448479890823364;0.0;0.0;0.0
2080;0.0;0.0;0.0;0.21959999203681946;-0.14737600088119507;1.1360639333724976;0.0;0.0;0.0
2082;0.0;0.0;0.0;0.19227199256420135;-0.15518400073051453;1.148751974105835;0.0;0.0;0.0
2084;0.08442399650812149;-0.020983999595046043;0.9906399846076965;0.18836799263954163;-0.16299200057983398;1.1448479890823364;0.017499998211860657;0.1443749964237213;0.24500000476837158
2087;0.0;0.0;0.0;0.19227199256420135;-0.17470400035381317;1.124351978302002;0.0;0.0;0.0
2089;0.0;0.0;0.0;0.2000799924135208;-0.14347200095653534;1.132159948348999;0.0;0.0;0.0
2091;0.0;0.0;0.0;0.18055999279022217;-0.15518400073051453;1.1360639333724976;0.0;0.0;0.0
2093;0.08393599838018417;-0.020495999604463577;0.98990797996521;0.18055999279022217;-0.1668960005044937;1.1360639333724976;-0.05250000208616257;0.14000000059604645;0.24500000476837158
2095;0.0;0.0;0.0;0.19227199256420135;-0.15908800065517426;1.1604639291763306;0.0;0.0;0.0
2097;0.0;0.0;0.0;0.19227199256420135;-0.18251200020313263;1.124351978302002;0.0;0.0;0.0
2099;0.0;0.0;0.0;0.1844639927148819;-0.14737600088119507;1.156559944152832;0.0;0.0;0.0
2101;0.0849120020866394;-0.020739998668432236;0.9901520013809204;0.18836799263954163;-0.14347200095653534;1.1370400190353394;0.017499998211860657;0.07000000774860382;0.24500000476837158
2104;0.0;0.0;0.0;0.18836799263954163;-0.15518400073051453;1.1370400190353394;0.0;0.0;0.0
2106;0.0;0.0;0.0;0.19227199256420135;-0.14347200095653534;1.148751974105835;0.0;0.0;0.0
2108;0.0;0.0;0.0;0.1844639927148819;-0.1512800008058548;1.124351978302002;0.0;0.0;0.0
2110;0.0849120020866394;-0.02025200054049492;0.9903959631919861;0.1844639927148819;-0.14347200095653534;1.156559944152832;0.08749999850988388;0.20999999344348907;0.24062500894069672
2112;0.0;0.0;0.0;0.1844639927148819;-0.14347200095653534;1.132159948348999;0.0;0.0;0.0
2114;0.0;0.0;0.0;0.19617599248886108;-0.14737600088119507;1.1165440082550049;0.0;0.0;0.0
2116;0.0;0.0;0.0;0.2117919921875;-0.1512800008058548;1.1282559633255005;0.0;0.0;0.0
2118;0.08442399650812149;-0.02000799961388111;0.9896639585494995;0.18055999279022217;-0.13176000118255615;1.156559944152832;0.017499998211860657;0.14000000059604645;0.24062500894069672
2121;0.0;0.0;0.0;0.19617599248886108;-0.1668960005044937;1.1370400190353394;0.0;0.0;0.0
2123;0.0;0.0;0.0;0.17665599286556244;-0.1668960005044937;1.1770559549331665;0.0;0.0;0.0
2125;0.0;0.0;0.0;0.1727519929409027;-0.15908800065517426;1.1360639333724976;0.0;0.0;0.0
2127;0.08393599838018417;-0.02000799961388111;0.9901520013809204;0.2000799924135208;-0.1395680010318756;1.148751974105835;0.017499998211860657;0.14000000059604645;0.31062501668930054
2129;0.0;0.0;0.0;0.19227199256420135;-0.15908800065517426;1.1370400190353394;0.0;0.0;0.0
2131;0.0;0.0;0.0;0.18055999279022217;-0.14737600088119507;1.124351978302002;0.0;0.0;0.0
2133;0.0;0.0;0.0;0.19617599248886108;-0.1512800008058548;1.124351978302002;0.0;0.0;0.0
2135;0.08417999744415283;-0.02025200054049492;0.9896639585494995;0.2117919921875;-0.1512800008058548;1.1448479890823364;0.017499998211860657;0.07000000774860382;0.16625002026557922
2138;0.0;0.0;0.0;0.21569599211215973;-0.15518400073051453;1.1604639291763306;0.0;0.0;0.0
2140;0.0;0.0;0.0;0.1727519929409027;-0.1668960005044937;1.148751974105835;0.0;0.0;0.0
2142;0.0;0.0;0.0;0.21569599211215973;-0.16299200057983398;1.1448479890823364;0.0;0.0;0.0
2144;0.08515600115060806;-0.02000799961388111;0.9901520013809204;0.17665599286556244;-0.17080000042915344;1.1282559633255005;0.1574999988079071;0.13562500476837158;0.23625001311302185
2146;0.0;0.0;0.0;0.2000799924135208;-0.16299200057983398;1.1282559633255005;0.0;0.0;0.0
2148;0.0;0.0;0.0;0.20398399233818054;-0.1512800008058548;1.148751974105835;0.0;0.0;0.0
2150;0.0;0.0;0.0;0.20788799226284027;-0.1512800008058548;1.1282559633255005;0.0;0.0;0.0
2152;0.0849120020866394;-0.020983999595046043;0.9903959631919861;0.17665599286556244;-0.17470400035381317;1.1448479890823364;0.017499998211860657;0.13562500476837158;0.23625001311302185
2155;0.0;0.0;0.0;0.20788799226284027;-0.16299200057983398;1.1526559591293335;0.0;0.0;0.0
2157;0.0;0.0;0.0;0.16103999316692352;-0.14347200095653534;1.132159948348999;0.0;0.0;0.0
2159;0.0;0.0;0.0;0.2000799924135208;-0.16299200057983398;1.1526559591293335;0.0;0.0;0.0
2161;0.0849120020866394;-0.019763998687267303;0.9894199967384338;0.18055999279022217;-0.14347200095653534;1.1604639291763306;0.017499998211860657;0.13562500476837158;0.23625001311302185
2163;0.0;0.0;0.0;0.20398399233818054;-0.14347200095653534;1.1448479890823364;0.0;0.0;0.0
2165;0.0;0.0;0.0;0.17665599286556244;-0.14737600088119507;1.148751974105835;0.0;0.0;0.0
2167;0.0;0.0;0.0;0.16884799301624298;-0.17470400035381317;1.132159948348999;0.0;0.0;0.0
2169;0.08442399650812149;-0.019519999623298645;0.9896639585494995;0.2000799924135208;-0.15908800065517426;1.132159948348999;0.08749999850988388;0.13562500476837158;0.3018749952316284
2172;0.0;0.0;0.0;0.18836799263954163;-0.15518400073051453;1.1614400148391724;0.0;0.0;0.0
2174;0.0;0.0;0.0;0.21959999203681946;-0.13566400110721588;1.156559944152832;0.0;0.0;0.0
2176;0.0;0.0;0.0;0.19227199256420135;-0.14347200095653534;1.1526559591293335;0.0;0.0;0.0
2178;0.08442399650812149;-0.02000799961388111;0.9903959631919861;0.20788799226284027;-0.15908800065517426;1.165343999862671;0.08312499523162842;0.13562500476837158;0.2318750023841858
2180;0.0;0.0;0.0;0.21569599211215973;-0.18641600012779236;1.1448479890823364;0.0;0.0;0.0
2182;0.0;0.0;0.0;0.19227199256420135;-0.13176000118255615;1.1360639333724976;0.0;0.0;0.0
2184;0.0;0.0;0.0;0.17665599286556244;-0.13176000118255615;1.1448479890823364;0.0;0.0;0.0
2187;0.08393599838018417;-0.02000799961388111;0.9889319539070129;0.19617599248886108;-0.15908800065517426;1.1448479890823364;0.013124998658895493;0.13562500476837158;0.2318750023841858
2189;0.0;0.0;0.0;0.1727519929409027;-0.14347200095653534;1.1370400190353394;0.0;0.0;0.0
2191;0.0;0.0;0.0;0.21569599211215973;-0.16299200057983398;1.132159948348999;0.0;0.0;0.0
2193;0.0;0.0;0.0;0.20398399233818054;-0.14737600088119507;1.1370400190353394;0.0;0.0;0.0
2195;0.0849120020866394;-0.02025200054049492;0.9901520013809204;0.2000799924135208;-0.1668960005044937;1.140944004058838;0.08312499523162842;0.13124999403953552;0.2318750023841858
2197;0.0;0.0;0.0;0.18055999279022217;-0.15518400073051453;1.1692479848861694;0.0;0.0;0.0
2199;0.0;0.0;0.0;0.19227199256420135;-0.1512800008058548;1.1370400190353394;0.0;0.0;0.0
2201;0.0;0.0;0.0;0.23131199181079865;-0.13566400110721588;1.1526559591293335;0.0;0.0;0.0
2204;0.08442399650812149;-0.02025200054049492;0.990884006023407;0.19227199256420135;-0.1512800008058548;1.1448479890823364;0.013124998658895493;0.13124999403953552;0.22750002145767212
2206;0.0;0.0;0.0;0.2117919921875;-0.1668960005044937;1.1448479890823364;0.0;0.0;0.0
2208;0.0;0.0;0.0;0.19617599248886108;-0.13176000118255615;1.1370400190353394;0.0;0.0;0.0
2210;0.0;0.0;0.0;0.2000799924135208;-0.15908800065517426;1.1370400190353394;0.0;0.0;0.0
2212;0.08466799557209015;-0.02000799961388111;0.98990797996521;0.19617599248886108;-0.17470400035381317;1.132159948348999;0.013124998658895493;0.13124999403953552;0.22750002145767212
2214;0.0;0.0;0.0;0.1844639927148819;-0.17470400035381317;1.156559944152832;0.0;0.0;0.0
2216;0.0;0.0;0.0;0.21959999203681946;-0.15518400073051453;1.132159948348999;0.0;0.0;0.0
2218;0.0;0.0;0.0;0.19617599248886108;-0.1512800008058548;1.148751974105835;0.0;0.0;0.0
2221;0.08564399927854538;-0.020739998668432236;0.9906399846076965;0.18836799263954163;-0.13176000118255615;1.140944004058838;0.013124998658895493;0.061250001192092896;0.22750002145767212
2223;0.0;0.0;0.0;0.2000799924135208;-0.15518400073051453;1.1604639291763306;0.0;0.0;0.0
2225;0.0;0.0;0.0;0.19227199256420135;-0.1512800008058548;1.1614400148391724;0.0;0.0;0.0
2227;0.0;0.0;0.0;0.19617599248886108;-0.1512800008058548;1.1448479890823364;0.0;0.0;0.0
2229;0.08442399650812149;-0.020495999604463577;0.9896639585494995;0.18836799263954163;-0.14737600088119507;1.1282559633255005;0.013124998658895493;0.13124999403953552;0.22312501072883606
2231;0.0;0.0;0.0;0.19227199256420135;-0.17080000042915344;1.1370400190353394;0.0;0.0;0.0
2233;0.0;0.0;0.0;0.1727519929409027;-0.1668960005044937;1.124351978302002;0.0;0.0;0.0
2235;0.0;0.0;0.0;0.21959999203681946;-0.16299200057983398;1.1282559633255005;0.0;0.0;0.0
2238;0.08417999744415283;-0.020495999604463577;0.9903959631919861;0.17665599286556244;-0.15908800065517426;1.156559944152832;0.08312499523162842;0.13124999403953552;0.22312501072883606
2240;0.0;0.0;0.0;0.19227199256420135;-0.17080000042915344;1.1165440082550049;0.0;0.0;0.0
2242;0.0;0.0;0.0;0.1844639927148819;-0.14347200095653534;1.124351978302002;0.0;0.0;0.0
2244;0.0;0.0;0.0;0.18055999279022217;-0.1395680010318756;1.124351978302002;0.0;0.0;0.0
2246;0.08417999744415283;-0.020495999604463577;0.9906399846076965;0.19617599248886108;-0.16299200057983398;1.1165440082550049;0.08312499523162842;0.13124999403953552;0.22312501072883606
2248;0.0;0.0;0.0;0.18836799263954163;-0.14737600088119507;1.1497279405593872;0.0;0.0;0.0
2250;0.0;0.0;0.0;0.19617599248886108;-0.16299200057983398;1.1419199705123901;0.0;0.0;0.0
2252;0.0;0.0;0.0;0.1844639927148819;-0.17080000042915344;1.1536319255828857;0.0;0.0;0.0
2255;0.08515600115060806;-0.020495999604463577;0.9891759753227234;0.2117919921875;-0.14737600088119507;1.1497279405593872;0.013124998658895493;0.12687499821186066;0.22312501072883606
2257;0.0;0.0;0.0;0.16494399309158325;-0.1512800008058548;1.1497279405593872;0.0;0.0;0.0
2259;0.0;0.0;0.0;0.19617599248886108;-0.12785600125789642;1.1536319255828857;0.0;0.0;0.0
2261;0.0;0.0;0.0;0.1727519929409027;-0.1395680010318756;1.1458239555358887;0.0;0.0;0.0
2263;0.08515600115060806;-0.02000799961388111;0.9896639585494995;0.18836799263954163;-0.1668960005044937;1.1419199705123901;0.013124998658895493;0.12687499821186066;0.21875
2265;0.0;0.0;0.0;0.1571359932422638;-0.14737600088119507;1.1526559591293335;0.0;0.0;0.0
2267;0.0;0.0;0.0;0.20398399233818054;-0.14347200095653534;1.1165440082550049;0.0;0.0;0.0
2269;0.0;0.0;0.0;0.19617599248886108;-0.13566400110721588;1.148751974105835;0.0;0.0;0.0
2272;0.08515600115060806;-0.019763998687267303;0.98990797996521;0.19227199256420135;-0.1512800008058548;1.156559944152832;0.08312499523162842;0.12687499821186066;0.21875
2274;0.0;0.0;0.0;0.16494399309158325;-0.16299200057983398;1.1526559591293335;0.0;0.0;0.0
2276;0.0;0.0;0.0;0.19617599248886108;-0.16299200057983398;1.1692479848861694;0.0;0.0;0.0
2278;0.0;0.0;0.0;0.20398399233818054;-0.16299200057983398;1.148751974105835;0.0;0.0;0.0
2280;0.08466799557209015;-0.019763998687267303;0.9903959631919861;0.2000799924135208;-0.16299200057983398;1.1282559633255005;0.08312499523162842;0.12687499821186066;0.21875
2282;0.0;0.0;0.0;0.17665599286556244;-0.14347200095653534;1.1458239555358887;0.0;0.0;0.0
2284;0.0;0.0;0.0;0.18055999279022217;-0.17080000042915344;1.1614400148391724;0.0;0.0;0.0
2286;0.0;0.0;0.0;0.18055999279022217;-0.1668960005044937;1.1253279447555542;0.0;0.0;0.0
2289;0.08466799557209015;-0.019763998687267303;0.9906399846076965;0.21569599211215973;-0.14737600088119507;1.1292319297790527;0.08312499523162842;0.12687499821186066;0.21875
2291;0.0;0.0;0.0;0.19617599248886108;-0.17080000042915344;1.1575360298156738;0.0;0.0;0.0
2293;0.0;0.0;0.0;0.1844639927148819;-0.1668960005044937;1.1253279447555542;0.0;0.0;0.0
2295;0.0;0.0;0.0;0.2000799924135208;-0.17470400035381317;1.1497279405593872;0.0;0.0;0.0
2297;0.08442399650812149;-0.02000799961388111;0.9894199967384338;0.20398399233818054;-0.14737600088119507;1.1380159854888916;0.08312499523162842;0.05687500536441803;0.21437501907348633
2299;0.0;0.0;0.0;0.20398399233818054;-0.1786080002784729;1.1614400148391724;0.0;0.0;0.0
2301;0.0;0.0;0.0;0.2117919921875;-0.14347200095653534;1.148751974105835;0.0;0.0;0.0
2303;0.0;0.0;0.0;0.17665599286556244;-0.17470400035381317;1.124351978302002;0.0;0.0;0.0
2306;0.0849120020866394;-0.02025200054049492;0.9906399846076965;0.20398399233818054;-0.14347200095653534;1.1604639291763306;0.08312499523162842;0.12687499821186066;0.21437501907348633
2308;0.0;0.0;0.0;0.19227199256420135;-0.16299200057983398;1.132159948348999;0.0;0.0;0.0
2310;0.0;0.0;0.0;0.2000799924135208;-0.17470400035381317;1.148751974105835;0.0;0.0;0.0
2312;0.0;0.0;0.0;0.2235039919614792;-0.1512800008058548;1.132159948348999;0.0;0.0;0.0
2314;0.08417999744415283;-0.020495999604463577;0.9901520013809204;0.18055999279022217;-0.16299200057983398;1.156559944152832;0.013124998658895493;0.12687499821186066;0.28437501192092896
2316;0.0;0.0;0.0;0.1844639927148819;-0.16299200057983398;1.1448479890823364;0.0;0.0;0.0
2318;0.0;0.0;0.0;0.17665599286556244;-0.13176000118255615;1.1526559591293335;0.0;0.0;0.0
2320;0.0;0.0;0.0;0.19617599248886108;-0.17470400035381317;1.140944004058838;0.0;0.0;0.0
2323;0.08466799557209015;-0.019763998687267303;0.98990797996521;0.17665599286556244;-0.14737600088119507;1.132159948348999;0.013124998658895493;0.12250000238418579;0.21437501907348633
2325;0.0;0.0;0.0;0.19227199256420135;-0.16299200057983398;1.1282559633255005;0.0;0.0;0.0
2327;0.0;0.0;0.0;0.1844639927148819;-0.12785600125789642;1.156559944152832;0.0;0.0;0.0
2329;0.0;0.0;0.0;0.18055999279022217;-0.14347200095653534;1.132159948348999;0.0;0.0;0.0
2331;0.08466799557209015;-0.020495999604463577;0.9891759753227234;0.1844639927148819;-0.1512800008058548;1.124351978302002;0.013124998658895493;0.12250000238418579;0.21000000834465027
2333;0.0;0.0;0.0;0.17665599286556244;-0.15908800065517426;1.1604639291763306;0.0;0.0;0.0
2335;0.0;0.0;0.0;0.18055999279022217;-0.17470400035381317;1.1448479890823364;0.0;0.0;0.0
2337;0.0;0.0;0.0;0.20788799226284027;-0.14347200095653534;1.1448479890823364;0.0;0.0;0.0
2340;0.0849120020866394;-0.020495999604463577;0.9896639585494995;0.18836799263954163;-0.1786080002784729;1.140944004058838;0.013124998658895493;0.12250000238418579;0.21000000834465027
2342;0.0;0.0;0.0;0.18055999279022217;-0.15518400073051453;1.1282559633255005;0.0;0.0;0.0
2344;0.0;0.0;0.0;0.17665599286556244;-0.16299200057983398;1.140944004058838;0.0;0.0;0.0
2346;0.0;0.0;0.0;0.1844639927148819;-0.1512800008058548;1.1770559549331665;0.0;0.0;0.0
2348;0.08515600115060806;-0.02000799961388111;0.9896639585494995;0.17665599286556244;-0.17080000042915344;1.148751974105835;0.07874999940395355;0.052500009536743164;0.21000000834465027
2350;0.0;0.0;0.0;0.1844639927148819;-0.1668960005044937;1.1448479890823364;0.0;0.0;0.0
2352;0.0;0.0;0.0;0.2000799924135208;-0.14347200095653534;1.140944004058838;0.0;0.0;0.0
2355;0.0;0.0;0.0;0.18836799263954163;-0.15908800065517426;1.1282559633255005;0.0;0.0;0.0
2357;0.08417999744415283;-0.020495999604463577;0.9901520013809204;0.18836799263954163;-0.15518400073051453;1.148751974105835;0.07874999940395355;0.12250000238418579;0.14000001549720764
2359;0.0;0.0;0.0;0.1727519929409027;-0.14347200095653534;1.148751974105835;0.0;0.0;0.0
