Timestamp(ms);LG-Accel x(g);LG-Accel y(g);LG-Accel z(g);HG-Accel x(g);HG-Accel y(g);HG-Accel z(g);Gyro x(dps);Gyro y(dps);Gyro z(dps)
81;0.0;0.0;0.0;0.18544000387191772;-0.13371199369430542;1.1555839776992798;0.0;0.0;0.0
83;0.0;0.0;0.0;0.17763200402259827;-0.14151999354362488;1.1516799926757812;0.0;0.0;0.0
85;0.0;0.0;0.0;0.20495998859405518;-0.16884799301624298;1.1350879669189453;0.0;0.0;0.0
88;0.0;0.0;0.0;0.18934398889541626;-0.16884799301624298;1.1477760076522827;0.0;0.0;0.0
90;0.0;0.0;0.0;0.20203199982643127;-0.16494399309158325;1.1272799968719482;0.0;0.0;0.0
92;0.0;0.0;0.0;0.2000799924135208;-0.1668960005044937;1.140944004058838;0.0;0.0;0.0
94;0.0;0.0;0.0;0.16103999316692352;-0.14347200095653534;1.148751974105835;0.0;0.0;0.0
96;0.0;0.0;0.0;0.19227199256420135;-0.1395680010318756;1.1448479890823364;0.0;0.0;0.0
98;0.08735200017690659;-0.018543999642133713;0.98990797996521;0.17665599286556244;-0.1668960005044937;1.1526559591293335;0.0;0.0;0.0
100;0.0;0.0;0.0;0.20788799226284027;-0.15908800065517426;1.132159948348999;0.0;0.0;0.0
102;0.0;0.0;0.0;0.2235039919614792;-0.15518400073051453;1.1448479890823364;0.0;0.0;0.0
105;0.0;0.0;0.0;0.1727519929409027;-0.18641600012779236;1.132159948348999;0.0;0.0;0.0
107;0.08881600201129913;-0.018055999651551247;0.9874680042266846;0.18055999279022217;-0.1239520013332367;1.132159948348999;0.0;0.0;0.0
109;0.0;0.0;0.0;0.21959999203681946;-0.13176000118255615;1.140944004058838;0.0;0.0;0.0
111;0.0;0.0;0.0;0.1727519929409027;-0.17080000042915344;1.1204479932785034;0.0;0.0;0.0
113;0.0;0.0;0.0;0.2000799924135208;-0.1239520013332367;1.132159948348999;0.0;0.0;0.0
115;0.08564399927854538;-0.02000799961388111;0.9906399846076965;0.20788799226284027;-0.14347200095653534;1.148751974105835;0.0;0.0;0.0
117;0.0;0.0;0.0;0.2000799924135208;-0.15908800065517426;1.1448479890823364;0.0;0.0;0.0
120;0.0;0.0;0.0;0.19227199256420135;-0.17080000042915344;1.1126400232315063;0.0;0.0;0.0
122;0.0;0.0;0.0;0.18836799263954163;-0.14347200095653534;1.1360639333724976;0.0;0.0;0.0
124;0.0878399983048439;-0.01878799870610237;0.9877119660377502;0.19227199256420135;-0.1395680010318756;1.1165440082550049;0.0;0.0;0.0
126;0.0;0.0;0.0;0.19617599248886108;-0.1239520013332367;1.1204479932785034;0.0;0.0;0.0
128;0.0;0.0;0.0;0.19227199256420135;-0.14347200095653534;1.156559944152832;0.0;0.0;0.0
130;0.0;0.0;0.0;0.20398399233818054;-0.16299200057983398;1.1692479848861694;0.0;0.0;0.0
132;0.0878399983048439;-0.018543999642133713;0.9889319539070129;0.1727519929409027;-0.14737600088119507;1.148751974105835;0.0;0.0;0.0
134;0.0;0.0;0.0;0.20398399233818054;-0.13566400110721588;1.1448479890823364;0.0;0.0;0.0
137;0.0;0.0;0.0;0.19227199256420135;-0.1512800008058548;1.148751974105835;0.0;0.0;0.0
139;0.0;0.0;0.0;0.16494399309158325;-0.14347200095653534;1.1282559633255005;0.0;0.0;0.0
141;0.0861319974064827;-0.019763998687267303;0.9913719892501831;0.20398399233818054;-0.14347200095653534;1.140944004058838;0.14000000059604645;0.21000000834465027;0.49000000953674316
143;0.0;0.0;0.0;0.18836799263954163;-0.1395680010318756;1.1419199705123901;0.0;0.0;0.0
145;0.0;0.0;0.0;0.17665599286556244;-0.1512800008058548;1.1536319255828857;0.0;0.0;0.0
147;0.0;0.0;0.0;0.2117919921875;-0.14347200095653534;1.1458239555358887;0.0;0.0;0.0
149;0.08857199549674988;-0.018543999642133713;0.9884439706802368;0.21569599211215973;-0.1395680010318756;1.1331360340118408;0.14000000059604645;0.14000000059604645;0.49000000953674316
152;0.0;0.0;0.0;0.2117919921875;-0.1903200000524521;1.1380159854888916;0.0;0.0;0.0
154;0.0;0.0;0.0;0.2117919921875;-0.16299200057983398;1.1497279405593872;0.0;0.0;0.0
156;0.0;0.0;0.0;0.18836799263954163;-0.15518400073051453;1.1419199705123901;0.0;0.0;0.0
158;0.08710800111293793;-0.01903199963271618;0.9891759753227234;0.21569599211215973;-0.1512800008058548;1.1380159854888916;0.14000000059604645;0.3499999940395355;0.5600000023841858
160;0.0;0.0;0.0;0.1727519929409027;-0.1395680010318756;1.1214239597320557;0.0;0.0;0.0
162;0.0;0.0;0.0;0.18836799263954163;-0.17470400035381317;1.1419199705123901;0.0;0.0;0.0
164;0.0;0.0;0.0;0.2000799924135208;-0.14737600088119507;1.1624159812927246;0.0;0.0;0.0
166;0.08735200017690659;-0.019763998687267303;0.9884439706802368;0.19227199256420135;-0.1668960005044937;1.1419199705123901;0.14000000059604645;0.14000000059604645;0.49000000953674316
168;0.0;0.0;0.0;0.19617599248886108;-0.1239520013332367;1.1458239555358887;0.0;0.0;0.0
171;0.0;0.0;0.0;0.21959999203681946;-0.17470400035381317;1.1497279405593872;0.0;0.0;0.0
173;0.0;0.0;0.0;0.18836799263954163;-0.1512800008058548;1.1536319255828857;0.0;0.0;0.0
175;0.08930400013923645;-0.01903199963271618;0.9889319539070129;0.2000799924135208;-0.1512800008058548;1.1292319297790527;0.07000000029802322;0.2800000011920929;0.5600000023841858
177;0.0;0.0;0.0;0.20398399233818054;-0.17080000042915344;1.1370400190353394;0.0;0.0;0.0
179;0.0;0.0;0.0;0.2000799924135208;-0.12785600125789642;1.140944004058838;0.0;0.0;0.0
181;0.0;0.0;0.0;0.19617599248886108;-0.15908800065517426;1.1604639291763306;0.0;0.0;0.0
183;0.08564399927854538;-0.02000799961388111;0.990884006023407;0.19227199256420135;-0.15518400073051453;1.156559944152832;0.14000000059604645;0.3499999940395355;0.49000000953674316
186;0.0;0.0;0.0;0.21569599211215973;-0.18251200020313263;1.148751974105835;0.0;0.0;0.0
188;0.0;0.0;0.0;0.18836799263954163;-0.14737600088119507;1.132159948348999;0.0;0.0;0.0
190;0.0;0.0;0.0;0.20788799226284027;-0.15908800065517426;1.1370400190353394;0.0;0.0;0.0
192;0.0878399983048439;-0.018055999651551247;0.98990797996521;0.18055999279022217;-0.1668960005044937;1.148751974105835;0.14000000059604645;0.14000000059604645;0.49000000953674316
194;0.0;0.0;0.0;0.18836799263954163;-0.1395680010318756;1.124351978302002;0.0;0.0;0.0
196;0.0;0.0;0.0;0.19227199256420135;-0.1668960005044937;1.1360639333724976;0.0;0.0;0.0
198;0.0;0.0;0.0;0.2000799924135208;-0.1786080002784729;1.1282559633255005;0.0;0.0;0.0
200;0.08832799643278122;-0.01781199872493744;0.9877119660377502;0.19617599248886108;-0.1395680010318756;1.1204479932785034;0.07000000029802322;0.2800000011920929;0.5600000023841858
203;0.0;0.0;0.0;0.21959999203681946;-0.15518400073051453;1.140944004058838;0.0;0.0;0.0
205;0.0;0.0;0.0;0.16884799301624298;-0.15518400073051453;1.148751974105835;0.0;0.0;0.0
207;0.0;0.0;0.0;0.17665599286556244;-0.1512800008058548;1.132159948348999;0.0;0.0;0.0
209;0.0861319974064827;-0.019763998687267303;0.9901520013809204;0.1844639927148819;-0.1668960005044937;1.1526559591293335;0.07000000029802322;0.2800000011920929;0.49000000953674316
211;0.0;0.0;0.0;0.18836799263954163;-0.14737600088119507;1.1497279405593872;0.0;0.0;0.0
213;0.0;0.0;0.0;0.20398399233818054;-0.17470400035381317;1.1214239597320557;0.0;0.0;0.0
215;0.0;0.0;0.0;0.18055999279022217;-0.1395680010318756;1.1575360298156738;0.0;0.0;0.0
217;0.08735200017690659;-0.019519999623298645;0.9886879920959473;0.20398399233818054;-0.17080000042915344;1.1497279405593872;0.14000000059604645;0.2800000011920929;0.49000000953674316
220;0.0;0.0;0.0;0.20788799226284027;-0.15908800065517426;1.1175199747085571;0.0;0.0;0.0
222;0.0;0.0;0.0;0.20788799226284027;-0.16299200057983398;1.1214239597320557;0.0;0.0;0.0
224;0.0;0.0;0.0;0.2117919921875;-0.15908800065517426;1.1536319255828857;0.0;0.0;0.0
226;0.08686399459838867;-0.01903199963271618;0.9889319539070129;0.1844639927148819;-0.15908800065517426;1.1380159854888916;0.07000000029802322;0.21000000834465027;0.49000000953674316
228;0.0;0.0;0.0;0.20788799226284027;-0.15908800065517426;1.1380159854888916;0.0;0.0;0.0
230;0.0;0.0;0.0;0.17665599286556244;-0.1512800008058548;1.1497279405593872;0.0;0.0;0.0
232;0.0;0.0;0.0;0.19227199256420135;-0.1668960005044937;1.1497279405593872;0.0;0.0;0.0
234;0.08735200017690659;-0.018543999642133713;0.9884439706802368;0.1844639927148819;-0.1512800008058548;1.1575360298156738;0.14000000059604645;0.21000000834465027;0.49000000953674316
237;0.0;0.0;0.0;0.1844639927148819;-0.1786080002784729;1.1497279405593872;0.0;0.0;0.0
239;0.0;0.0;0.0;0.1844639927148819;-0.15908800065517426;1.1331360340118408;0.0;0.0;0.0
241;0.0;0.0;0.0;0.1844639927148819;-0.14737600088119507;1.1575360298156738;0.0;0.0;0.0
243;0.08637599647045135;-0.01903199963271618;0.9896639585494995;0.2000799924135208;-0.13566400110721588;1.1214239597320557;0.14000000059604645;0.2800000011920929;0.49000000953674316
245;0.0;0.0;0.0;0.20788799226284027;-0.1395680010318756;1.1419199705123901;0.0;0.0;0.0
247;0.0;0.0;0.0;0.20398399233818054;-0.1512800008058548;1.1497279405593872;0.0;0.0;0.0
249;0.0;0.0;0.0;0.21959999203681946;-0.14737600088119507;1.1497279405593872;0.0;0.0;0.0
251;0.08759599924087524;-0.02000799961388111;0.9891759753227234;0.21569599211215973;-0.19422399997711182;1.1331360340118408;0.14000000059604645;0.21000000834465027;0.49000000953674316
254;0.0;0.0;0.0;0.20398399233818054;-0.15908800065517426;1.1702239513397217;0.0;0.0;0.0
256;0.0;0.0;0.0;0.1844639927148819;-0.12785600125789642;1.1497279405593872;0.0;0.0;0.0
258;0.0;0.0;0.0;0.19227199256420135;-0.15908800065517426;1.1458239555358887;0.0;0.0;0.0
260;0.08808399736881256;-0.019763998687267303;0.9889319539070129;0.19227199256420135;-0.17470400035381317;1.1458239555358887;0.07000000029802322;0.3499999940395355;0.49000000953674316
262;0.0;0.0;0.0;0.19617599248886108;-0.15518400073051453;1.156559944152832;0.0;0.0;0.0
264;0.0;0.0;0.0;0.2117919921875;-0.15908800065517426;1.1448479890823364;0.0;0.0;0.0
266;0.0;0.0;0.0;0.19227199256420135;-0.16299200057983398;1.140944004058838;0.0;0.0;0.0
268;0.08832799643278122;-0.01903199963271618;0.9886879920959473;0.1844639927148819;-0.14347200095653534;1.1370400190353394;0.07000000029802322;0.2800000011920929;0.49000000953674316
271;0.0;0.0;0.0;0.18055999279022217;-0.15908800065517426;1.124351978302002;0.0;0.0;0.0
273;0.0;0.0;0.0;0.19617599248886108;-0.15518400073051453;1.1370400190353394;0.0;0.0;0.0
275;0.0;0.0;0.0;0.19227199256420135;-0.15908800065517426;1.148751974105835;0.0;0.0;0.0
277;0.0878399983048439;-0.018300000578165054;0.9889319539070129;0.2117919921875;-0.1512800008058548;1.1604639291763306;0.07000000029802322;0.21000000834465027;0.49000000953674316
279;0.0;0.0;0.0;0.19617599248886108;-0.14737600088119507;1.1370400190353394;0.0;0.0;0.0
281;0.0;0.0;0.0;0.23131199181079865;-0.1668960005044937;1.1165440082550049;0.0;0.0;0.0
283;0.0;0.0;0.0;0.20398399233818054;-0.16299200057983398;1.1360639333724976;0.0;0.0;0.0
285;0.08710800111293793;-0.01878799870610237;0.9903959631919861;0.20788799226284027;-0.15908800065517426;1.140944004058838;0.07000000029802322;0.2800000011920929;0.49000000953674316
288;0.0;0.0;0.0;0.18836799263954163;-0.1668960005044937;1.132159948348999;0.0;0.0;0.0
290;0.0;0.0;0.0;0.18836799263954163;-0.15518400073051453;1.1526559591293335;0.0;0.0;0.0
292;0.0;0.0;0.0;0.21959999203681946;-0.17470400035381317;1.1526559591293335;0.0;0.0;0.0
294;0.0861319974064827;-0.019763998687267303;0.9911279678344727;0.20398399233818054;-0.1512800008058548;1.1604639291763306;0.07000000029802322;0.21000000834465027;0.49000000953674316
296;0.0;0.0;0.0;0.21959999203681946;-0.14737600088119507;1.1331360340118408;0.0;0.0;0.0
298;0.0;0.0;0.0;0.20398399233818054;-0.13176000118255615;1.1419199705123901;0.0;0.0;0.0
300;0.0;0.0;0.0;0.2235039919614792;-0.14347200095653534;1.1380159854888916;0.0;0.0;0.0
302;0.08808399736881256;-0.01878799870610237;0.9874680042266846;0.20788799226284027;-0.17080000042915344;1.1331360340118408;0.14000000059604645;0.21000000834465027;0.49000000953674316
305;0.0;0.0;0.0;0.2117919921875;-0.15518400073051453;1.1458239555358887;0.0;0.0;0.0
307;0.0;0.0;0.0;0.2117919921875;-0.15518400073051453;1.1497279405593872;0.0;0.0;0.0
309;0.0;0.0;0.0;0.19227199256420135;-0.15908800065517426;1.1624159812927246;0.0;0.0;0.0
311;0.08710800111293793;-0.01878799870610237;0.9886879920959473;0.21959999203681946;-0.1395680010318756;1.1380159854888916;0.07000000029802322;0.3499999940395355;0.49000000953674316
313;0.0;0.0;0.0;0.1727519929409027;-0.14737600088119507;1.1331360340118408;0.0;0.0;0.0
315;0.0;0.0;0.0;0.17665599286556244;-0.1395680010318756;1.1253279447555542;0.0;0.0;0.0
317;0.0;0.0;0.0;0.1727519929409027;-0.16299200057983398;1.1380159854888916;0.0;0.0;0.0
319;0.08637599647045135;-0.018300000578165054;0.9891759753227234;0.19617599248886108;-0.13176000118255615;1.1331360340118408;0.07000000029802322;0.2800000011920929;0.42000001668930054
322;0.0;0.0;0.0;0.18055999279022217;-0.14347200095653534;1.1536319255828857;0.0;0.0;0.0
324;0.0;0.0;0.0;0.20788799226284027;-0.14347200095653534;1.1663199663162231;0.0;0.0;0.0
326;0.0;0.0;0.0;0.19617599248886108;-0.14347200095653534;1.1458239555358887;0.0;0.0;0.0
328;0.08857199549674988;-0.018543999642133713;0.9882000088691711;0.21959999203681946;-0.13566400110721588;1.1253279447555542;0.21000000834465027;0.2800000011920929;0.49000000953674316
330;0.0;0.0;0.0;0.18055999279022217;-0.13566400110721588;1.1214239597320557;0.0;0.0;0.0
332;0.0;0.0;0.0;0.19227199256420135;-0.1668960005044937;1.1575360298156738;0.0;0.0;0.0
334;0.0;0.0;0.0;0.1844639927148819;-0.1668960005044937;1.1497279405593872;0.0;0.0;0.0
336;0.0861319974064827;-0.019519999623298645;0.9918599724769592;0.2000799924135208;-0.1512800008058548;1.1497279405593872;0.14000000059604645;0.3499999940395355;0.49000000953674316
339;0.0;0.0;0.0;0.1844639927148819;-0.14347200095653534;1.1458239555358887;0.0;0.0;0.0
341;0.0;0.0;0.0;0.19227199256420135;-0.1668960005044937;1.1497279405593872;0.0;0.0;0.0
343;0.0;0.0;0.0;0.2117919921875;-0.13566400110721588;1.1536319255828857;0.0;0.0;0.0
345;0.08808399736881256;-0.01878799870610237;0.9874680042266846;0.19617599248886108;-0.18641600012779236;1.1380159854888916;0.14000000059604645;0.14000000059604645;0.49000000953674316
347;0.0;0.0;0.0;0.2000799924135208;-0.13176000118255615;1.1087360382080078;0.0;0.0;0.0
349;0.0;0.0;0.0;0.2000799924135208;-0.13566400110721588;1.1419199705123901;0.0;0.0;0.0
351;0.0;0.0;0.0;0.21569599211215973;-0.14737600088119507;1.1292319297790527;0.0;0.0;0.0
353;0.08906000107526779;-0.01756799966096878;0.9877119660377502;0.19617599248886108;-0.15518400073051453;1.1370400190353394;0.07000000029802322;0.42000001668930054;0.49000000953674316
356;0.0;0.0;0.0;0.18055999279022217;-0.15518400073051453;1.1663199663162231;0.0;0.0;0.0
358;0.0;0.0;0.0;0.19617599248886108;-0.12785600125789642;1.1292319297790527;0.0;0.0;0.0
360;0.0;0.0;0.0;0.19227199256420135;-0.1395680010318756;1.1614400148391724;0.0;0.0;0.0
362;0.08515600115060806;-0.019519999623298645;0.9903959631919861;0.2000799924135208;-0.1395680010318756;1.1458239555358887;0.14000000059604645;0.2800000011920929;0.49000000953674316
364;0.0;0.0;0.0;0.20398399233818054;-0.1668960005044937;1.1360639333724976;0.0;0.0;0.0
366;0.0;0.0;0.0;0.19227199256420135;-0.13566400110721588;1.1165440082550049;0.0;0.0;0.0
368;0.0;0.0;0.0;0.1844639927148819;-0.1668960005044937;1.148751974105835;0.0;0.0;0.0
370;0.08832799643278122;-0.017324000597000122;0.9882000088691711;0.18836799263954163;-0.17080000042915344;1.148751974105835;0.14000000059604645;0.21000000834465027;0.49000000953674316
373;0.0;0.0;0.0;0.20398399233818054;-0.1668960005044937;1.132159948348999;0.0;0.0;0.0
375;0.0;0.0;0.0;0.21569599211215973;-0.13566400110721588;1.132159948348999;0.0;0.0;0.0
377;0.0;0.0;0.0;0.1727519929409027;-0.15518400073051453;1.1370400190353394;0.0;0.0;0.0
379;0.08759599924087524;-0.019276000559329987;0.9891759753227234;0.20398399233818054;-0.18251200020313263;1.1448479890823364;0.07000000029802322;0.3499999940395355;0.49000000953674316
381;0.0;0.0;0.0;0.19617599248886108;-0.16299200057983398;1.1331360340118408;0.0;0.0;0.0
383;0.0;0.0;0.0;0.18836799263954163;-0.13566400110721588;1.1380159854888916;0.0;0.0;0.0
385;0.0;0.0;0.0;0.2000799924135208;-0.1512800008058548;1.1575360298156738;0.0;0.0;0.0
387;0.08588799834251404;-0.020983999595046043;0.9930799603462219;0.19617599248886108;-0.15908800065517426;1.1575360298156738;0.07000000029802322;0.2800000011920929;0.49000000953674316
390;0.0;0.0;0.0;0.19617599248886108;-0.17470400035381317;1.1419199705123901;0.0;0.0;0.0
392;0.0;0.0;0.0;0.2000799924135208;-0.1395680010318756;1.1331360340118408;0.0;0.0;0.0
394;0.0;0.0;0.0;0.19617599248886108;-0.1668960005044937;1.1253279447555542;0.0;0.0;0.0
396;0.08710800111293793;-0.019763998687267303;0.9874680042266846;0.19227199256420135;-0.15908800065517426;1.1458239555358887;0.07000000029802322;0.07000000029802322;0.42000001668930054
398;0.0;0.0;0.0;0.17665599286556244;-0.17080000042915344;1.1497279405593872;0.0;0.0;0.0
400;0.0;0.0;0.0;0.1844639927148819;-0.14737600088119507;1.1292319297790527;0.0;0.0;0.0
402;0.0;0.0;0.0;0.19617599248886108;-0.17080000042915344;1.1331360340118408;0.0;0.0;0.0
404;0.08954799920320511;-0.01781199872493744;0.9872239828109741;0.1844639927148819;-0.15518400073051453;1.1575360298156738;0.0;0.42000001668930054;0.49000000953674316
407;0.0;0.0;0.0;0.20398399233818054;-0.15518400073051453;1.1575360298156738;0.0;0.0;0.0
409;0.0;0.0;0.0;0.2117919921875;-0.15518400073051453;1.1536319255828857;0.0;0.0;0.0
411;0.0;0.0;0.0;0.19617599248886108;-0.1786080002784729;1.1370400190353394;0.0;0.0;0.0
413;0.08222799748182297;-0.019763998687267303;0.9921039938926697;0.18836799263954163;-0.15908800065517426;1.1458239555358887;0.14000000059604645;0.2800000011920929;0.49000000953674316
415;0.0;0.0;0.0;0.20398399233818054;-0.15518400073051453;1.1458239555358887;0.0;0.0;0.0
417;0.0;0.0;0.0;0.2000799924135208;-0.13176000118255615;1.1497279405593872;0.0;0.0;0.0
419;0.0;0.0;0.0;0.18836799263954163;-0.15908800065517426;1.1331360340118408;0.0;0.0;0.0
421;0.09101200103759766;-0.01781199872493744;0.9850279688835144;0.18055999279022217;-0.16299200057983398;1.1292319297790527;0.21000000834465027;0.14000000059604645;0.49000000953674316
424;0.0;0.0;0.0;0.22740799188613892;-0.14737600088119507;1.1419199705123901;0.0;0.0;0.0
426;0.0;0.0;0.0;0.16494399309158325;-0.12785600125789642;1.1458239555358887;0.0;0.0;0.0
428;0.0;0.0;0.0;0.18055999279022217;-0.14347200095653534;1.1331360340118408;0.0;0.0;0.0
430;0.08735200017690659;-0.02025200054049492;0.9916160106658936;0.18055999279022217;-0.1512800008058548;1.1624159812927246;-0.07000000029802322;0.6299999952316284;0.5600000023841858
432;0.0;0.0;0.0;0.19617599248886108;-0.14347200095653534;1.1458239555358887;0.0;0.0;0.0
434;0.0;0.0;0.0;0.17665599286556244;-0.14347200095653534;1.1458239555358887;0.0;0.0;0.0
436;0.0;0.0;0.0;0.19227199256420135;-0.15518400073051453;1.1458239555358887;0.0;0.0;0.0
438;0.0849120020866394;-0.02025200054049492;0.9916160106658936;0.2117919921875;-0.12004800140857697;1.1331360340118408;0.2800000011920929;0.0;0.49000000953674316
441;0.0;0.0;0.0;0.21959999203681946;-0.1512800008058548;1.1380159854888916;0.0;0.0;0.0
443;0.0;0.0;0.0;0.2235039919614792;-0.1395680010318756;1.1497279405593872;0.0;0.0;0.0
445;0.0;0.0;0.0;0.20398399233818054;-0.15518400073051453;1.1380159854888916;0.0;0.0;0.0
447;0.09345199912786484;-0.016103999689221382;0.9840520024299622;0.2117919921875;-0.14737600088119507;1.1419199705123901;0.14000000059604645;0.2800000011920929;0.49000000953674316
449;0.0;0.0;0.0;0.2000799924135208;-0.1512800008058548;1.1282559633255005;0.0;0.0;0.0
451;0.0;0.0;0.0;0.2000799924135208;-0.16299200057983398;1.1448479890823364;0.0;0.0;0.0
453;0.0;0.0;0.0;0.1844639927148819;-0.13176000118255615;1.1604639291763306;0.0;0.0;0.0
456;0.08369199931621552;-0.02000799961388111;0.9918599724769592;0.1844639927148819;-0.1668960005044937;1.156559944152832;0.0;0.6299999952316284;0.49000000953674316
458;0.0;0.0;0.0;0.18836799263954163;-0.16299200057983398;1.124351978302002;0.0;0.0;0.0
460;0.0;0.0;0.0;0.21569599211215973;-0.1512800008058548;1.140944004058838;0.0;0.0;0.0
462;0.0;0.0;0.0;0.2117919921875;-0.13566400110721588;1.140944004058838;0.0;0.0;0.0
464;0.08735200017690659;-0.01903199963271618;0.98990797996521;0.20398399233818054;-0.14347200095653534;1.132159948348999;0.21000000834465027;-0.07000000029802322;0.49000000953674316
466;0.0;0.0;0.0;0.2235039919614792;-0.14737600088119507;1.1214239597320557;0.0;0.0;0.0
468;0.0;0.0;0.0;0.18836799263954163;-0.14737600088119507;1.1175199747085571;0.0;0.0;0.0
470;0.0;0.0;0.0;0.19617599248886108;-0.15518400073051453;1.1575360298156738;0.0;0.0;0.0
473;0.0907679945230484;-0.018300000578165054;0.985759973526001;0.18836799263954163;-0.1786080002784729;1.1370400190353394;0.0;0.42000001668930054;0.49000000953674316
475;0.0;0.0;0.0;0.19227199256420135;-0.18251200020313263;1.1419199705123901;0.0;0.0;0.0
477;0.0;0.0;0.0;0.19227199256420135;-0.16299200057983398;1.1741279363632202;0.0;0.0;0.0
479;0.0;0.0;0.0;0.17665599286556244;-0.17080000042915344;1.1419199705123901;0.0;0.0;0.0
481;0.08466799557209015;-0.02025200054049492;0.9921039938926697;0.2117919921875;-0.14737600088119507;1.1536319255828857;0.07000000029802322;0.3499999940395355;0.49000000953674316
483;0.0;0.0;0.0;0.1727519929409027;-0.14737600088119507;1.1380159854888916;0.0;0.0;0.0
485;0.0;0.0;0.0;0.18836799263954163;-0.1512800008058548;1.1292319297790527;0.0;0.0;0.0
487;0.0;0.0;0.0;0.18836799263954163;-0.15518400073051453;1.1458239555358887;0.0;0.0;0.0
490;0.08979199826717377;-0.01781199872493744;0.9884439706802368;0.21569599211215973;-0.13566400110721588;1.1331360340118408;0.14000000059604645;0.14000000059604645;0.49000000953674316
492;0.0;0.0;0.0;0.19227199256420135;-0.1668960005044937;1.1663199663162231;0.0;0.0;0.0
494;0.0;0.0;0.0;0.21569599211215973;-0.16299200057983398;1.1380159854888916;0.0;0.0;0.0
496;0.0;0.0;0.0;0.19617599248886108;-0.1668960005044937;1.1624159812927246;0.0;0.0;0.0
498;0.0878399983048439;-0.019276000559329987;0.9884439706802368;0.19617599248886108;-0.14347200095653534;1.1536319255828857;0.0;0.49000000953674316;0.49000000953674316
500;0.0;0.0;0.0;0.19227199256420135;-0.1786080002784729;1.132159948348999;0.0;0.0;0.0
502;0.0;0.0;0.0;0.20398399233818054;-0.18641600012779236;1.1370400190353394;0.0;0.0;0.0
504;0.0;0.0;0.0;0.17665599286556244;-0.17470400035381317;1.124351978302002;0.0;0.0;0.0
507;0.08417999744415283;-0.019763998687267303;0.9916160106658936;0.2000799924135208;-0.14737600088119507;1.1448479890823364;0.07000000029802322;0.2800000011920929;0.49000000953674316
509;0.0;0.0;0.0;0.20788799226284027;-0.14737600088119507;1.1370400190353394;0.0;0.0;0.0
511;0.0;0.0;0.0;0.20788799226284027;-0.1395680010318756;1.140944004058838;0.0;0.0;0.0
513;0.0;0.0;0.0;0.2000799924135208;-0.15908800065517426;1.132159948348999;0.0;0.0;0.0
515;0.08930400013923645;-0.01781199872493744;0.986735999584198;0.19617599248886108;-0.16299200057983398;1.1282559633255005;0.14000000059604645;0.14000000059604645;0.49000000953674316
517;0.0;0.0;0.0;0.1844639927148819;-0.1512800008058548;1.1380159854888916;0.0;0.0;0.0
519;0.0;0.0;0.0;0.20788799226284027;-0.15908800065517426;1.1380159854888916;0.0;0.0;0.0
521;0.0;0.0;0.0;0.18836799263954163;-0.1786080002784729;1.1497279405593872;0.0;0.0;0.0
524;0.0878399983048439;-0.01878799870610237;0.9894199967384338;0.19227199256420135;-0.1395680010318756;1.1331360340118408;0.07000000029802322;0.42000001668930054;0.49000000953674316
526;0.0;0.0;0.0;0.2000799924135208;-0.14737600088119507;1.1536319255828857;0.0;0.0;0.0
528;0.0;0.0;0.0;0.19227199256420135;-0.1786080002784729;1.1497279405593872;0.0;0.0;0.0
530;0.0;0.0;0.0;0.19617599248886108;-0.1512800008058548;1.1536319255828857;0.0;0.0;0.0
532;0.08637599647045135;-0.01903199963271618;0.9923479557037354;0.1844639927148819;-0.14347200095653534;1.1380159854888916;0.14000000059604645;0.2800000011920929;0.49000000953674316
534;0.0;0.0;0.0;0.2000799924135208;-0.14737600088119507;1.1253279447555542;0.0;0.0;0.0
536;0.0;0.0;0.0;0.20788799226284027;-0.13176000118255615;1.1419199705123901;0.0;0.0;0.0
538;0.0;0.0;0.0;0.17665599286556244;-0.15518400073051453;1.1536319255828857;0.0;0.0;0.0
541;0.08857199549674988;-0.018543999642133713;0.9884439706802368;0.19227199256420135;-0.16299200057983398;1.1419199705123901;0.14000000059604645;0.21000000834465027;0.49000000953674316
543;0.0;0.0;0.0;0.16103999316692352;-0.15518400073051453;1.1458239555358887;0.0;0.0;0.0
545;0.0;0.0;0.0;0.18055999279022217;-0.1512800008058548;1.1419199705123901;0.0;0.0;0.0
547;0.0;0.0;0.0;0.19617599248886108;-0.1512800008058548;1.1458239555358887;0.0;0.0;0.0
549;0.08661999553442001;-0.019519999623298645;0.9903959631919861;0.18836799263954163;-0.17470400035381317;1.1419199705123901;0.07000000029802322;0.42000001668930054;0.49000000953674316
551;0.0;0.0;0.0;0.18836799263954163;-0.15908800065517426;1.1331360340118408;0.0;0.0;0.0
553;0.0;0.0;0.0;0.1844639927148819;-0.1668960005044937;1.1331360340118408;0.0;0.0;0.0
555;0.0;0.0;0.0;0.1844639927148819;-0.13566400110721588;1.1575360298156738;0.0;0.0;0.0
558;0.08832799643278122;-0.018543999642133713;0.9886879920959473;0.2117919921875;-0.1668960005044937;1.1458239555358887;0.14000000059604645;0.21000000834465027;0.42000001668930054
560;0.0;0.0;0.0;0.18836799263954163;-0.16299200057983398;1.1419199705123901;0.0;0.0;0.0
562;0.0;0.0;0.0;0.1727519929409027;-0.15518400073051453;1.1380159854888916;0.0;0.0;0.0
564;0.0;0.0;0.0;0.19227199256420135;-0.15518400073051453;1.1292319297790527;0.0;0.0;0.0
566;0.08857199549674988;-0.018055999651551247;0.986735999584198;0.2000799924135208;-0.18251200020313263;1.1292319297790527;0.07000000029802322;0.3499999940395355;0.5600000023841858
568;0.0;0.0;0.0;0.16884799301624298;-0.15518400073051453;1.1380159854888916;0.0;0.0;0.0
570;0.0;0.0;0.0;0.1844639927148819;-0.14347200095653534;1.1614400148391724;0.0;0.0;0.0
572;0.0;0.0;0.0;0.18055999279022217;-0.13566400110721588;1.1331360340118408;0.0;0.0;0.0
575;0.08564399927854538;-0.019763998687267303;0.9901520013809204;0.19617599248886108;-0.1512800008058548;1.1663199663162231;0.07000000029802322;0.3499999940395355;0.49000000953674316
577;0.0;0.0;0.0;0.19227199256420135;-0.16299200057983398;1.1419199705123901;0.0;0.0;0.0
579;0.0;0.0;0.0;0.17665599286556244;-0.14347200095653534;1.1419199705123901;0.0;0.0;0.0
581;0.0;0.0;0.0;0.2000799924135208;-0.15518400073051453;1.1253279447555542;0.0;0.0;0.0
583;0.08661999553442001;-0.019276000559329987;0.9891759753227234;0.19227199256420135;-0.14737600088119507;1.1458239555358887;0.21000000834465027;0.21000000834465027;0.49000000953674316
585;0.0;0.0;0.0;0.19227199256420135;-0.15908800065517426;1.1380159854888916;0.0;0.0;0.0
587;0.0;0.0;0.0;0.21569599211215973;-0.1395680010318756;1.1458239555358887;0.0;0.0;0.0
589;0.0;0.0;0.0;0.21959999203681946;-0.15518400073051453;1.1380159854888916;0.0;0.0;0.0
592;0.08637599647045135;-0.018543999642133713;0.9891759753227234;0.18055999279022217;-0.17080000042915344;1.1663199663162231;0.07000000029802322;0.2800000011920929;0.49000000953674316
594;0.0;0.0;0.0;0.20398399233818054;-0.15908800065517426;1.1331360340118408;0.0;0.0;0.0
596;0.0;0.0;0.0;0.19227199256420135;-0.14347200095653534;1.1380159854888916;0.0;0.0;0.0
598;0.0;0.0;0.0;0.16103999316692352;-0.16299200057983398;1.1419199705123901;0.0;0.0;0.0
600;0.08661999553442001;-0.018543999642133713;0.9889319539070129;0.2117919921875;-0.16299200057983398;1.1253279447555542;0.07000000029802322;0.2800000011920929;0.49000000953674316
602;0.0;0.0;0.0;0.1844639927148819;-0.17080000042915344;1.1419199705123901;0.0;0.0;0.0
604;0.0;0.0;0.0;0.18836799263954163;-0.15908800065517426;1.1536319255828857;0.0;0.0;0.0
606;0.0;0.0;0.0;0.19227199256420135;-0.13566400110721588;1.1419199705123901;0.0;0.0;0.0
609;0.08710800111293793;-0.01903199963271618;0.9891759753227234;0.18836799263954163;-0.16299200057983398;1.1331360340118408;0.07000000029802322;0.2800000011920929;0.42000001668930054
611;0.0;0.0;0.0;0.19227199256420135;-0.15518400073051453;1.1380159854888916;0.0;0.0;0.0
613;0.0;0.0;0.0;0.1571359932422638;-0.1512800008058548;1.1458239555358887;0.0;0.0;0.0
615;0.0;0.0;0.0;0.20788799226284027;-0.16299200057983398;1.1497279405593872;0.0;0.0;0.0
617;0.08686399459838867;-0.01903199963271618;0.9896639585494995;0.22740799188613892;-0.14737600088119507;1.1575360298156738;0.07000000029802322;0.2800000011920929;0.49000000953674316
619;0.0;0.0;0.0;0.2117919921875;-0.15908800065517426;1.1419199705123901;0.0;0.0;0.0
622;0.0;0.0;0.0;0.18836799263954163;-0.1668960005044937;1.1614400148391724;0.0;0.0;0.0
624;0.0;0.0;0.0;0.20788799226284027;-0.15908800065517426;1.1370400190353394;0.0;0.0;0.0
626;0.08735200017690659;-0.01878799870610237;0.9903959631919861;0.19227199256420135;-0.18641600012779236;1.1292319297790527;0.07000000029802322;0.2800000011920929;0.49000000953674316
628;0.0;0.0;0.0;0.1571359932422638;-0.18251200020313263;1.1136159896850586;0.0;0.0;0.0
630;0.0;0.0;0.0;0.25863999128341675;-0.14737600088119507;1.1663199663162231;0.0;0.0;0.0
632;0.0;0.0;0.0;0.2000799924135208;-0.13176000118255615;1.1370400190353394;0.0;0.0;0.0
634;0.0878399983048439;-0.015371999703347683;0.9877119660377502;0.18055999279022217;-0.14347200095653534;1.1497279405593872;0.14000000059604645;0.2800000011920929;0.49000000953674316
636;0.0;0.0;0.0;0.18836799263954163;-0.1668960005044937;1.1536319255828857;0.0;0.0;0.0
638;0.0;0.0;0.0;0.18836799263954163;-0.14737600088119507;1.1331360340118408;0.0;0.0;0.0
641;0.0;0.0;0.0;0.16201600432395935;-0.13566400110721588;1.1663199663162231;0.0;0.0;0.0
643;0.08979199826717377;-0.024399999529123306;0.9903959631919861;0.24692799150943756;-0.16299200057983398;1.1575360298156738;0.0;0.3499999940395355;0.5600000023841858
645;0.0;0.0;0.0;0.1424959897994995;-0.14737600088119507;1.1458239555358887;0.0;0.0;0.0
647;0.0;0.0;0.0;0.2117919921875;-0.1395680010318756;1.1458239555358887;0.0;0.0;0.0
649;0.0;0.0;0.0;0.2000799924135208;-0.15908800065517426;1.0970239639282227;0.0;0.0;0.0
651;0.0936959981918335;-0.01659199967980385;0.9889319539070129;0.2898719906806946;-0.12785600125789642;1.1370400190353394;0.21000000834465027;-0.07000000029802322;0.49000000953674316
653;0.0;0.0;0.0;0.08393599838018417;-0.13566400110721588;1.1087360382080078;0.0;0.0;0.0
655;0.0;0.0;0.0;0.3054879903793335;-0.14347200095653534;1.1663199663162231;0.0;0.0;0.0
658;0.0;0.0;0.0;0.09174399822950363;-0.1395680010318756;1.1380159854888916;0.0;0.0;0.0
660;0.08344800025224686;-0.020739998668432236;0.9901520013809204;0.23521599173545837;-0.15518400073051453;1.1380159854888916;0.0;0.699999988079071;0.5600000023841858
662;0.0;0.0;0.0;0.14640000462532043;-0.17470400035381317;1.0931199789047241;0.0;0.0;0.0
664;0.0;0.0;0.0;0.21569599211215973;-0.1512800008058548;1.1702239513397217;0.0;0.0;0.0
666;0.0;0.0;0.0;0.1424959897994995;-0.17470400035381317;1.1136159896850586;0.0;0.0;0.0
668;0.08198399841785431;-0.01903199963271618;0.9943000078201294;0.21959999203681946;-0.13566400110721588;1.1536319255828857;0.2800000011920929;0.0;0.49000000953674316
670;0.0;0.0;0.0;0.17665599286556244;-0.13566400110721588;1.1497279405593872;0.0;0.0;0.0
672;0.0;0.0;0.0;0.2117919921875;-0.16299200057983398;1.1214239597320557;0.0;0.0;0.0
675;0.0;0.0;0.0;0.20788799226284027;-0.1395680010318756;1.1253279447555542;0.0;0.0;0.0
677;0.09345199912786484;-0.017079999670386314;0.9830759763717651;0.2000799924135208;-0.15518400073051453;1.1536319255828857;0.07000000029802322;0.3499999940395355;0.49000000953674316
679;0.0;0.0;0.0;0.20398399233818054;-0.18641600012779236;1.1575360298156738;0.0;0.0;0.0
681;0.0;0.0;0.0;0.17665599286556244;-0.15518400073051453;1.1536319255828857;0.0;0.0;0.0
683;0.0;0.0;0.0;0.2000799924135208;-0.14347200095653534;1.1575360298156738;0.0;0.0;0.0
685;0.08051999658346176;-0.022204000502824783;0.9925919771194458;0.14932799339294434;-0.14737600088119507;1.1292319297790527;0.0;0.5600000023841858;0.49000000953674316
687;0.0;0.0;0.0;0.23131199181079865;-0.15518400073051453;1.1741279363632202;0.0;0.0;0.0
689;0.0;0.0;0.0;0.18836799263954163;-0.1395680010318756;1.1292319297790527;0.0;0.0;0.0
692;0.0;0.0;0.0;0.23521599173545837;-0.15908800065517426;1.1536319255828857;0.0;0.0;0.0
694;0.08637599647045135;-0.018300000578165054;0.9894199967384338;0.16494399309158325;-0.14347200095653534;1.1458239555358887;0.3499999940395355;-0.14000000059604645;0.49000000953674316
696;0.0;0.0;0.0;0.2235039919614792;-0.13176000118255615;1.1575360298156738;0.0;0.0;0.0
698;0.0;0.0;0.0;0.1844639927148819;-0.1512800008058548;1.1292319297790527;0.0;0.0;0.0
700;0.0;0.0;0.0;0.20788799226284027;-0.15908800065517426;1.1458239555358887;0.0;0.0;0.0
702;0.0907679945230484;-0.01781199872493744;0.9860039949417114;0.16103999316692352;-0.15908800065517426;1.1380159854888916;0.0;0.49000000953674316;0.49000000953674316
704;0.0;0.0;0.0;0.2235039919614792;-0.15908800065517426;1.1575360298156738;0.0;0.0;0.0
706;0.0;0.0;0.0;0.20398399233818054;-0.13176000118255615;1.1575360298156738;0.0;0.0;0.0
709;0.0;0.0;0.0;0.2000799924135208;-0.1668960005044937;1.1458239555358887;0.0;0.0;0.0
711;0.08417999744415283;-0.02147199958562851;0.9923479557037354;0.1727519929409027;-0.15908800065517426;1.1253279447555542;0.14000000059604645;0.3499999940395355;0.49000000953674316
713;0.0;0.0;0.0;0.2000799924135208;-0.15518400073051453;1.1214239597320557;0.0;0.0;0.0
715;0.0;0.0;0.0;0.2000799924135208;-0.15518400073051453;1.1370400190353394;0.0;0.0;0.0
717;0.0;0.0;0.0;0.1727519929409027;-0.1512800008058548;1.1380159854888916;0.0;0.0;0.0
719;0.09174399822950363;-0.01781199872493744;0.9862479567527771;0.22740799188613892;-0.1239520013332367;1.1380159854888916;0.21000000834465027;0.0;0.49000000953674316
721;0.0;0.0;0.0;0.2000799924135208;-0.16299200057983398;1.1497279405593872;0.0;0.0;0.0
723;0.0;0.0;0.0;0.21959999203681946;-0.17470400035381317;1.1575360298156738;0.0;0.0;0.0
726;0.0;0.0;0.0;0.1727519929409027;-0.14347200095653534;1.1702239513397217;0.0;0.0;0.0
728;0.08686399459838867;-0.01903199963271618;0.9901520013809204;0.19617599248886108;-0.1512800008058548;1.1458239555358887;0.0;0.5600000023841858;0.49000000953674316
730;0.0;0.0;0.0;0.18055999279022217;-0.15518400073051453;1.1536319255828857;0.0;0.0;0.0
732;0.0;0.0;0.0;0.19617599248886108;-0.1395680010318756;1.1614400148391724;0.0;0.0;0.0
734;0.0;0.0;0.0;0.19617599248886108;-0.14737600088119507;1.1497279405593872;0.0;0.0;0.0
736;0.08564399927854538;-0.019763998687267303;0.9913719892501831;0.21569599211215973;-0.16299200057983398;1.1419199705123901;0.14000000059604645;0.14000000059604645;0.5600000023841858
738;0.0;0.0;0.0;0.18055999279022217;-0.17470400035381317;1.1419199705123901;0.0;0.0;0.0
740;0.0;0.0;0.0;0.21569599211215973;-0.1395680010318756;1.1253279447555542;0.0;0.0;0.0
743;0.0;0.0;0.0;0.20788799226284027;-0.14347200095653534;1.1458239555358887;0.0;0.0;0.0
745;0.09149999916553497;-0.018055999651551247;0.9860039949417114;0.20788799226284027;-0.16299200057983398;1.1370400190353394;0.14000000059604645;0.21000000834465027;0.49000000953674316
747;0.0;0.0;0.0;0.2000799924135208;-0.15908800065517426;1.1331360340118408;0.0;0.0;0.0
749;0.0;0.0;0.0;0.1844639927148819;-0.15518400073051453;1.1536319255828857;0.0;0.0;0.0
751;0.0;0.0;0.0;0.20788799226284027;-0.15518400073051453;1.1380159854888916;0.0;0.0;0.0
753;0.0861319974064827;-0.019519999623298645;0.9906399846076965;0.1844639927148819;-0.1668960005044937;1.1419199705123901;0.07000000029802322;0.49000000953674316;0.49000000953674316
756;0.0;0.0;0.0;0.21569599211215973;-0.1668960005044937;1.1419199705123901;0.0;0.0;0.0
757;0.0;0.0;0.0;0.19617599248886108;-0.14737600088119507;1.1458239555358887;0.0;0.0;0.0
760;0.0;0.0;0.0;0.19227199256420135;-0.1512800008058548;1.1380159854888916;0.0;0.0;0.0
762;0.0861319974064827;-0.019276000559329987;0.9916160106658936;0.18055999279022217;-0.15518400073051453;1.1292319297790527;0.14000000059604645;0.14000000059604645;0.49000000953674316
764;0.0;0.0;0.0;0.19617599248886108;-0.1512800008058548;1.1663199663162231;0.0;0.0;0.0
766;0.0;0.0;0.0;0.19227199256420135;-0.1668960005044937;1.1497279405593872;0.0;0.0;0.0
768;0.0;0.0;0.0;0.20398399233818054;-0.15908800065517426;1.1175199747085571;0.0;0.0;0.0
770;0.08979199826717377;-0.01756799966096878;0.9882000088691711;0.20398399233818054;-0.1786080002784729;1.1458239555358887;0.14000000059604645;0.21000000834465027;0.49000000953674316
773;0.0;0.0;0.0;0.1844639927148819;-0.14737600088119507;1.1575360298156738;0.0;0.0;0.0
774;0.0;0.0;0.0;0.19227199256420135;-0.14737600088119507;1.1380159854888916;0.0;0.0;0.0
777;0.0;0.0;0.0;0.19617599248886108;-0.1512800008058548;1.1458239555358887;0.0;0.0;0.0
779;0.08564399927854538;-0.019763998687267303;0.9906399846076965;0.18836799263954163;-0.1512800008058548;1.1331360340118408;0.07000000029802322;0.42000001668930054;0.49000000953674316
781;0.0;0.0;0.0;0.2000799924135208;-0.17470400035381317;1.1497279405593872;0.0;0.0;0.0
783;0.0;0.0;0.0;0.17665599286556244;-0.1239520013332367;1.1458239555358887;0.0;0.0;0.0
785;0.0;0.0;0.0;0.2000799924135208;-0.14737600088119507;1.1536319255828857;0.0;0.0;0.0
787;0.0878399983048439;-0.01903199963271618;0.9894199967384338;0.19617599248886108;-0.13566400110721588;1.1292319297790527;0.14000000059604645;0.21000000834465027;0.49000000953674316
790;0.0;0.0;0.0;0.2000799924135208;-0.15518400073051453;1.1663199663162231;0.0;0.0;0.0
792;0.0;0.0;0.0;0.2000799924135208;-0.14347200095653534;1.1536319255828857;0.0;0.0;0.0
794;0.0;0.0;0.0;0.19617599248886108;-0.17080000042915344;1.1292319297790527;0.0;0.0;0.0
796;0.08881600201129913;-0.01903199963271618;0.9886879920959473;0.20788799226284027;-0.16299200057983398;1.1292319297790527;0.07000000029802322;0.42000001668930054;0.49000000953674316
798;0.0;0.0;0.0;0.21959999203681946;-0.15518400073051453;1.1419199705123901;0.0;0.0;0.0
800;0.0;0.0;0.0;0.17665599286556244;-0.16299200057983398;1.1253279447555542;0.0;0.0;0.0
802;0.0;0.0;0.0;0.2117919921875;-0.1512800008058548;1.1575360298156738;0.0;0.0;0.0
804;0.0849120020866394;-0.02000799961388111;0.9923479557037354;0.1844639927148819;-0.14737600088119507;1.1458239555358887;0.07000000029802322;0.2800000011920929;0.49000000953674316
806;0.0;0.0;0.0;0.1844639927148819;-0.17080000042915344;1.1497279405593872;0.0;0.0;0.0
809;0.0;0.0;0.0;0.19617599248886108;-0.1668960005044937;1.1292319297790527;0.0;0.0;0.0
811;0.0;0.0;0.0;0.19617599248886108;-0.15908800065517426;1.1292319297790527;0.0;0.0;0.0
813;0.08857199549674988;-0.018543999642133713;0.9889319539070129;0.2117919921875;-0.17080000042915344;1.1458239555358887;0.21000000834465027;0.14000000059604645;0.49000000953674316
815;0.0;0.0;0.0;0.19227199256420135;-0.14347200095653534;1.1419199705123901;0.0;0.0;0.0
817;0.0;0.0;0.0;0.19617599248886108;-0.15908800065517426;1.1458239555358887;0.0;0.0;0.0
819;0.0;0.0;0.0;0.19617599248886108;-0.1512800008058548;1.1419199705123901;0.0;0.0;0.0
821;0.08735200017690659;-0.01878799870610237;0.9896639585494995;0.17665599286556244;-0.16299200057983398;1.1419199705123901;0.07000000029802322;0.3499999940395355;0.49000000953674316
824;0.0;0.0;0.0;0.18836799263954163;-0.1395680010318756;1.1370400190353394;0.0;0.0;0.0
826;0.0;0.0;0.0;0.2235039919614792;-0.1668960005044937;1.1702239513397217;0.0;0.0;0.0
828;0.0;0.0;0.0;0.1844639927148819;-0.14737600088119507;1.1741279363632202;0.0;0.0;0.0
830;0.08588799834251404;-0.019763998687267303;0.9916160106658936;0.18836799263954163;-0.14347200095653534;1.1458239555358887;0.14000000059604645;0.21000000834465027;0.49000000953674316
832;0.0;0.0;0.0;0.19617599248886108;-0.14737600088119507;1.1292319297790527;0.0;0.0;0.0
834;0.0;0.0;0.0;0.18836799263954163;-0.13176000118255615;1.1419199705123901;0.0;0.0;0.0
836;0.0;0.0;0.0;0.19617599248886108;-0.15518400073051453;1.1253279447555542;0.0;0.0;0.0
838;0.08857199549674988;-0.01878799870610237;0.9884439706802368;0.18055999279022217;-0.14347200095653534;1.1419199705123901;0.14000000059604645;0.2800000011920929;0.49000000953674316
841;0.0;0.0;0.0;0.18836799263954163;-0.16299200057983398;1.1575360298156738;0.0;0.0;0.0
843;0.0;0.0;0.0;0.20398399233818054;-0.13566400110721588;1.1536319255828857;0.0;0.0;0.0
845;0.0;0.0;0.0;0.1844639927148819;-0.1668960005044937;1.1419199705123901;0.0;0.0;0.0
847;0.08710800111293793;-0.019763998687267303;0.9894199967384338;0.1844639927148819;-0.14347200095653534;1.1419199705123901;0.14000000059604645;0.3499999940395355;0.49000000953674316
849;0.0;0.0;0.0;0.1844639927148819;-0.14737600088119507;1.1419199705123901;0.0;0.0;0.0
851;0.0;0.0;0.0;0.2000799924135208;-0.1786080002784729;1.1458239555358887;0.0;0.0;0.0
853;0.0;0.0;0.0;0.23521599173545837;-0.14347200095653534;1.1536319255828857;0.0;0.0;0.0
855;0.08808399736881256;-0.01878799870610237;0.9894199967384338;0.20788799226284027;-0.15908800065517426;1.1292319297790527;0.07000000029802322;0.21000000834465027;0.49000000953674316
858;0.0;0.0;0.0;0.20788799226284027;-0.14737600088119507;1.1624159812927246;0.0;0.0;0.0
860;0.0;0.0;0.0;0.20788799226284027;-0.16299200057983398;1.1331360340118408;0.0;0.0;0.0
862;0.0;0.0;0.0;0.20398399233818054;-0.16299200057983398;1.134112000465393;0.0;0.0;0.0
864;0.08808399736881256;-0.018300000578165054;0.9889319539070129;0.20398399233818054;-0.1668960005044937;1.1458239555358887;0.07000000029802322;0.2800000011920929;0.49000000953674316
866;0.0;0.0;0.0;0.19617599248886108;-0.13566400110721588;1.1497279405593872;0.0;0.0;0.0
868;0.0;0.0;0.0;0.20788799226284027;-0.15518400073051453;1.1331360340118408;0.0;0.0;0.0
870;0.0;0.0;0.0;0.1844639927148819;-0.1512800008058548;1.1419199705123901;0.0;0.0;0.0
872;0.08686399459838867;-0.019519999623298645;0.9903959631919861;0.2117919921875;-0.14737600088119507;1.1380159854888916;0.07000000029802322;0.3499999940395355;0.49000000953674316
875;0.0;0.0;0.0;0.2117919921875;-0.14737600088119507;1.1575360298156738;0.0;0.0;0.0
877;0.0;0.0;0.0;0.2000799924135208;-0.1395680010318756;1.1419199705123901;0.0;0.0;0.0
879;0.0;0.0;0.0;0.19617599248886108;-0.17080000042915344;1.1292319297790527;0.0;0.0;0.0
881;0.08735200017690659;-0.01903199963271618;0.98990797996521;0.2000799924135208;-0.1239520013332367;1.1292319297790527;0.14000000059604645;0.21000000834465027;0.49000000953674316
883;0.0;0.0;0.0;0.2000799924135208;-0.14347200095653534;1.1458239555358887;0.0;0.0;0.0
885;0.0;0.0;0.0;0.20398399233818054;-0.14347200095653534;1.1458239555358887;0.0;0.0;0.0
887;0.0;0.0;0.0;0.2117919921875;-0.15908800065517426;1.1536319255828857;0.0;0.0;0.0
889;0.08832799643278122;-0.018543999642133713;0.9894199967384338;0.16494399309158325;-0.13566400110721588;1.1380159854888916;0.07000000029802322;0.2800000011920929;0.49000000953674316
892;0.0;0.0;0.0;0.2000799924135208;-0.14347200095653534;1.1331360340118408;0.0;0.0;0.0
894;0.0;0.0;0.0;0.19227199256420135;-0.1395680010318756;1.1136159896850586;0.0;0.0;0.0
896;0.0;0.0;0.0;0.2000799924135208;-0.15518400073051453;1.1458239555358887;0.0;0.0;0.0
898;0.08710800111293793;-0.018543999642133713;0.9903959631919861;0.23131199181079865;-0.16299200057983398;1.1458239555358887;0.0;0.3499999940395355;0.49000000953674316
900;0.0;0.0;0.0;0.20788799226284027;-0.17080000042915344;1.1331360340118408;0.0;0.0;0.0
902;0.0;0.0;0.0;0.19227199256420135;-0.14737600088119507;1.1497279405593872;0.0;0.0;0.0
904;0.0;0.0;0.0;0.1844639927148819;-0.16299200057983398;1.1253279447555542;0.0;0.0;0.0
906;0.08759599924087524;-0.01878799870610237;0.9886879920959473;0.2000799924135208;-0.15908800065517426;1.1331360340118408;0.14000000059604645;0.2800000011920929;0.49000000953674316
909;0.0;0.0;0.0;0.17665599286556244;-0.13566400110721588;1.1370400190353394;0.0;0.0;0.0
911;0.0;0.0;0.0;0.20398399233818054;-0.13566400110721588;1.1331360340118408;0.0;0.0;0.0
913;0.0;0.0;0.0;0.19617599248886108;-0.13176000118255615;1.1380159854888916;0.0;0.0;0.0
915;0.08759599924087524;-0.01878799870610237;0.98990797996521;0.18055999279022217;-0.1395680010318756;1.1458239555358887;0.07000000029802322;0.3499999940395355;0.49000000953674316
917;0.0;0.0;0.0;0.18836799263954163;-0.1395680010318756;1.1419199705123901;0.0;0.0;0.0
919;0.0;0.0;0.0;0.18055999279022217;-0.15908800065517426;1.1536319255828857;0.0;0.0;0.0
921;0.0;0.0;0.0;0.18836799263954163;-0.1512800008058548;1.1419199705123901;0.0;0.0;0.0
923;0.08735200017690659;-0.019276000559329987;0.9891759753227234;0.20398399233818054;-0.1395680010318756;1.1575360298156738;0.07000000029802322;0.2800000011920929;0.5600000023841858
926;0.0;0.0;0.0;0.21569599211215973;-0.15518400073051453;1.1380159854888916;0.0;0.0;0.0
928;0.0;0.0;0.0;0.20788799226284027;-0.15908800065517426;1.1497279405593872;0.0;0.0;0.0
930;0.0;0.0;0.0;0.2117919921875;-0.1786080002784729;1.1331360340118408;0.0;0.0;0.0
932;0.08832799643278122;-0.018300000578165054;0.9879559874534607;0.2235039919614792;-0.13176000118255615;1.1370400190353394;0.07000000029802322;0.21000000834465027;0.49000000953674316
934;0.0;0.0;0.0;0.2117919921875;-0.17080000042915344;1.1253279447555542;0.0;0.0;0.0
936;0.0;0.0;0.0;0.20788799226284027;-0.17080000042915344;1.1575360298156738;0.0;0.0;0.0
938;0.0;0.0;0.0;0.19227199256420135;-0.16299200057983398;1.1663199663162231;0.0;0.0;0.0
940;0.08881600201129913;-0.01878799870610237;0.9906399846076965;0.20788799226284027;-0.15908800065517426;1.1419199705123901;0.07000000029802322;0.3499999940395355;0.4856249988079071
943;0.0;0.0;0.0;0.16494399309158325;-0.1903200000524521;1.140944004058838;0.0;0.0;0.0
945;0.0;0.0;0.0;0.1844639927148819;-0.1668960005044937;1.1282559633255005;0.0;0.0;0.0
947;0.0;0.0;0.0;0.17665599286556244;-0.17470400035381317;1.1370400190353394;0.0;0.0;0.0
949;0.0849120020866394;-0.020739998668432236;0.9916160106658936;0.21959999203681946;-0.14737600088119507;1.1165440082550049;0.21000000834465027;0.21000000834465027;0.5556250214576721
951;0.0;0.0;0.0;0.2000799924135208;-0.1512800008058548;1.1448479890823364;0.0;0.0;0.0
953;0.0;0.0;0.0;0.19617599248886108;-0.1512800008058548;1.1282559633255005;0.0;0.0;0.0
955;0.0;0.0;0.0;0.19617599248886108;-0.14347200095653534;1.132159948348999;0.0;0.0;0.0
957;0.08979199826717377;-0.018055999651551247;0.9869799613952637;0.20398399233818054;-0.1512800008058548;1.1448479890823364;0.14000000059604645;0.2056250125169754;0.48125001788139343
960;0.0;0.0;0.0;0.20398399233818054;-0.14347200095653534;1.1292319297790527;0.0;0.0;0.0
962;0.0;0.0;0.0;0.20788799226284027;-0.16299200057983398;1.1370400190353394;0.0;0.0;0.0
964;0.0;0.0;0.0;0.22740799188613892;-0.15908800065517426;1.1380159854888916;0.0;0.0;0.0
966;0.08564399927854538;-0.019276000559329987;0.990884006023407;0.19617599248886108;-0.17470400035381317;1.1575360298156738;0.0;0.4156250059604645;0.48125001788139343
968;0.0;0.0;0.0;0.2000799924135208;-0.1512800008058548;1.1497279405593872;0.0;0.0;0.0
970;0.0;0.0;0.0;0.18055999279022217;-0.12785600125789642;1.1331360340118408;0.0;0.0;0.0
972;0.0;0.0;0.0;0.1727519929409027;-0.17080000042915344;1.1497279405593872;0.0;0.0;0.0
974;0.08686399459838867;-0.01903199963271618;0.9896639585494995;0.18836799263954163;-0.18641600012779236;1.1175199747085571;0.14000000059604645;0.06562499701976776;0.4768750071525574
977;0.0;0.0;0.0;0.20788799226284027;-0.15518400073051453;1.1702239513397217;0.0;0.0;0.0
979;0.0;0.0;0.0;0.17665599286556244;-0.1668960005044937;1.1419199705123901;0.0;0.0;0.0
981;0.0;0.0;0.0;0.18055999279022217;-0.14347200095653534;1.1458239555358887;0.0;0.0;0.0
983;0.08979199826717377;-0.018055999651551247;0.9864919781684875;0.21569599211215973;-0.14737600088119507;1.1380159854888916;0.14000000059604645;0.3412500023841858;0.4768750071525574
985;0.0;0.0;0.0;0.19227199256420135;-0.15518400073051453;1.1458239555358887;0.0;0.0;0.0
987;0.0;0.0;0.0;0.19227199256420135;-0.15908800065517426;1.1292319297790527;0.0;0.0;0.0
989;0.0;0.0;0.0;0.2000799924135208;-0.14737600088119507;1.1536319255828857;0.0;0.0;0.0
991;0.08564399927854538;-0.02025200054049492;0.9918599724769592;0.19227199256420135;-0.15908800065517426;1.1663199663162231;0.0;0.3412500023841858;0.4724999964237213
994;0.0;0.0;0.0;0.18055999279022217;-0.1668960005044937;1.1292319297790527;0.0;0.0;0.0
996;0.0;0.0;0.0;0.20788799226284027;-0.15908800065517426;1.1663199663162231;0.0;0.0;0.0
998;0.0;0.0;0.0;0.2117919921875;-0.1512800008058548;1.1624159812927246;0.0;0.0;0.0
1000;0.0878399983048439;-0.018543999642133713;0.9889319539070129;0.21959999203681946;-0.15908800065517426;1.1536319255828857;0.2056250125169754;0.13124999403953552;0.4025000035762787
1002;0.0;0.0;0.0;0.19227199256420135;-0.15518400073051453;1.1380159854888916;0.0;0.0;0.0
1004;0.0;0.0;0.0;0.2117919921875;-0.1512800008058548;1.1458239555358887;0.0;0.0;0.0
1006;0.0;0.0;0.0;0.20788799226284027;-0.17080000042915344;1.1575360298156738;0.0;0.0;0.0
1008;0.08930400013923645;-0.018300000578165054;0.9882000088691711;0.19227199256420135;-0.17470400035381317;1.1419199705123901;0.13562500476837158;0.40687501430511475;0.46812501549720764
1011;0.0;0.0;0.0;0.2000799924135208;-0.14737600088119507;1.1575360298156738;0.0;0.0;0.0
1013;0.0;0.0;0.0;0.1844639927148819;-0.17080000042915344;1.1458239555358887;0.0;0.0;0.0
1015;0.0;0.0;0.0;0.17665599286556244;-0.17080000042915344;1.1536319255828857;0.0;0.0;0.0
1017;0.08588799834251404;-0.01903199963271618;0.9921039938926697;0.19227199256420135;-0.15908800065517426;1.1536319255828857;0.13562500476837158;0.2668749988079071;0.4637500047683716
1019;0.0;0.0;0.0;0.19227199256420135;-0.15518400073051453;1.1331360340118408;0.0;0.0;0.0
1021;0.0;0.0;0.0;0.19227199256420135;-0.12004800140857697;1.1536319255828857;0.0;0.0;0.0
1023;0.0;0.0;0.0;0.19227199256420135;-0.1786080002784729;1.1292319297790527;0.0;0.0;0.0
1025;0.09003599733114243;-0.01756799966096878;0.9882000088691711;0.20788799226284027;-0.14737600088119507;1.1419199705123901;0.13562500476837158;0.05687499791383743;0.4637500047683716
1028;0.0;0.0;0.0;0.18055999279022217;-0.15518400073051453;1.1458239555358887;0.0;0.0;0.0
1030;0.0;0.0;0.0;0.20788799226284027;-0.17470400035381317;1.1370400190353394;0.0;0.0;0.0
1032;0.0;0.0;0.0;0.22740799188613892;-0.1668960005044937;1.1380159854888916;0.0;0.0;0.0
1034;0.0878399983048439;-0.019519999623298645;0.9882000088691711;0.19617599248886108;-0.13566400110721588;1.1214239597320557;0.06562499701976776;0.40687501430511475;0.4593750238418579
1036;0.0;0.0;0.0;0.18836799263954163;-0.17080000042915344;1.1497279405593872;0.0;0.0;0.0
1038;0.0;0.0;0.0;0.20788799226284027;-0.14347200095653534;1.1331360340118408;0.0;0.0;0.0
1040;0.0;0.0;0.0;0.18836799263954163;-0.16299200057983398;1.1419199705123901;0.0;0.0;0.0
1042;0.08661999553442001;-0.018543999642133713;0.9896639585494995;0.17665599286556244;-0.14347200095653534;1.1614400148391724;0.13562500476837158;0.1925000101327896;0.5293750166893005
1045;0.0;0.0;0.0;0.20398399233818054;-0.13566400110721588;1.1331360340118408;0.0;0.0;0.0
1047;0.0;0.0;0.0;0.19227199256420135;-0.15908800065517426;1.1497279405593872;0.0;0.0;0.0
1049;0.0;0.0;0.0;0.17665599286556244;-0.13176000118255615;1.1175199747085571;0.0;0.0;0.0
1051;0.08832799643278122;-0.018055999651551247;0.9882000088691711;0.18055999279022217;-0.15518400073051453;1.1458239555358887;0.06562499701976776;0.26249998807907104;0.45500001311302185
1053;0.0;0.0;0.0;0.1844639927148819;-0.15518400073051453;1.1331360340118408;0.0;0.0;0.0
1055;0.0;0.0;0.0;0.20398399233818054;-0.14737600088119507;1.1536319255828857;0.0;0.0;0.0
1057;0.0;0.0;0.0;0.18055999279022217;-0.14737600088119507;1.1624159812927246;0.0;0.0;0.0
1059;0.08661999553442001;-0.019276000559329987;0.990884006023407;0.19227199256420135;-0.1512800008058548;1.1419199705123901;-0.0043750000186264515;0.33249998092651367;0.45500001311302185
1062;0.0;0.0;0.0;0.20398399233818054;-0.15908800065517426;1.1331360340118408;0.0;0.0;0.0
1064;0.0;0.0;0.0;0.22740799188613892;-0.1668960005044937;1.1214239597320557;0.0;0.0;0.0
1066;0.0;0.0;0.0;0.1727519929409027;-0.18641600012779236;1.1663199663162231;0.0;0.0;0.0
1068;0.08710800111293793;-0.019276000559329987;0.9894199967384338;0.18836799263954163;-0.1512800008058548;1.1380159854888916;0.13124999403953552;0.18812501430511475;0.4506250023841858
1070;0.0;0.0;0.0;0.19227199256420135;-0.16299200057983398;1.1331360340118408;0.0;0.0;0.0
1072;0.0;0.0;0.0;0.1844639927148819;-0.15908800065517426;1.1536319255828857;0.0;0.0;0.0
1074;0.0;0.0;0.0;0.2235039919614792;-0.14737600088119507;1.1419199705123901;0.0;0.0;0.0
1076;0.0878399983048439;-0.018543999642133713;0.9882000088691711;0.18836799263954163;-0.15908800065517426;1.1214239597320557;0.13124999403953552;0.2581250071525574;0.4506250023841858
1079;0.0;0.0;0.0;0.18055999279022217;-0.15518400073051453;1.1575360298156738;0.0;0.0;0.0
1081;0.0;0.0;0.0;0.20788799226284027;-0.17080000042915344;1.1575360298156738;0.0;0.0;0.0
1083;0.0;0.0;0.0;0.1844639927148819;-0.14737600088119507;1.1536319255828857;0.0;0.0;0.0
1085;0.08735200017690659;-0.01903199963271618;0.9903959631919861;0.19617599248886108;-0.14737600088119507;1.1419199705123901;0.061250001192092896;0.2581250071525574;0.4462500214576721
1087;0.0;0.0;0.0;0.19227199256420135;-0.16299200057983398;1.1536319255828857;0.0;0.0;0.0
1089;0.0;0.0;0.0;0.1844639927148819;-0.1668960005044937;1.1331360340118408;0.0;0.0;0.0
1091;0.0;0.0;0.0;0.18055999279022217;-0.13566400110721588;1.1497279405593872;0.0;0.0;0.0
1093;0.08832799643278122;-0.01903199963271618;0.9891759753227234;0.17665599286556244;-0.15518400073051453;1.1536319255828857;0.061250001192092896;0.2581250071525574;0.4462500214576721
1096;0.0;0.0;0.0;0.19129599630832672;-0.13859200477600098;1.1380159854888916;0.0;0.0;0.0
1098;0.0;0.0;0.0;0.2030079960823059;-0.17372798919677734;1.1380159854888916;0.0;0.0;0.0
1100;0.0;0.0;0.0;0.17958399653434753;-0.1542080044746399;1.1458239555358887;0.0;0.0;0.0
1102;0.08710800111293793;-0.01903199963271618;0.9896639585494995;0.18348799645900726;-0.13859200477600098;1.1292319297790527;0.061250001192092896;0.2537499964237213;0.5118750333786011
1104;0.0;0.0;0.0;0.18348799645900726;-0.16201600432395935;1.1419199705123901;0.0;0.0;0.0
1106;0.0;0.0;0.0;0.21081599593162537;-0.1542080044746399;1.1575360298156738;0.0;0.0;0.0
1108;0.0;0.0;0.0;0.2147199958562851;-0.1542080044746399;1.1419199705123901;0.0;0.0;0.0
1110;0.08735200017690659;-0.01878799870610237;0.9903959631919861;0.19910399615764618;-0.1268799901008606;1.1331360340118408;0.13124999403953552;0.2537499964237213;0.44187501072883606
1113;0.0;0.0;0.0;0.19227199256420135;-0.14737600088119507;1.1536319255828857;0.0;0.0;0.0
1115;0.0;0.0;0.0;0.19227199256420135;-0.1395680010318756;1.1253279447555542;0.0;0.0;0.0
1117;0.0;0.0;0.0;0.1844639927148819;-0.16299200057983398;1.1380159854888916;0.0;0.0;0.0
1119;0.08832799643278122;-0.01903199963271618;0.98990797996521;0.20398399233818054;-0.1512800008058548;1.1331360340118408;0.13124999403953552;0.2537499964237213;0.4375
1121;0.0;0.0;0.0;0.20788799226284027;-0.16299200057983398;1.1253279447555542;0.0;0.0;0.0
1123;0.0;0.0;0.0;0.17665599286556244;-0.13566400110721588;1.1370400190353394;0.0;0.0;0.0
1125;0.0;0.0;0.0;0.20788799226284027;-0.16299200057983398;1.1419199705123901;0.0;0.0;0.0
1128;0.08686399459838867;-0.019276000559329987;0.9896639585494995;0.17665599286556244;-0.14737600088119507;1.1331360340118408;0.061250001192092896;0.24937500059604645;0.4375
1130;0.0;0.0;0.0;0.18055999279022217;-0.16299200057983398;1.1331360340118408;0.0;0.0;0.0
1132;0.0;0.0;0.0;0.17665599286556244;-0.13566400110721588;1.1663199663162231;0.0;0.0;0.0
1134;0.0;0.0;0.0;0.17665599286556244;-0.13176000118255615;1.1497279405593872;0.0;0.0;0.0
1136;0.0878399983048439;-0.018300000578165054;0.9889319539070129;0.18836799263954163;-0.15908800065517426;1.1419199705123901;0.13124999403953552;0.24937500059604645;0.3631250262260437
1138;0.0;0.0;0.0;0.19617599248886108;-0.15518400073051453;1.1214239597320557;0.0;0.0;0.0
1140;0.0;0.0;0.0;0.21959999203681946;-0.1512800008058548;1.1497279405593872;0.0;0.0;0.0
1142;0.0;0.0;0.0;0.2117919921875;-0.17470400035381317;1.1419199705123901;0.0;0.0;0.0
1145;0.08710800111293793;-0.018543999642133713;0.9886879920959473;0.19617599248886108;-0.14347200095653534;1.1419199705123901;0.05687499791383743;0.24937500059604645;0.43312501907348633
1147;0.0;0.0;0.0;0.18836799263954163;-0.16299200057983398;1.1458239555358887;0.0;0.0;0.0
1149;0.0;0.0;0.0;0.20788799226284027;-0.15518400073051453;1.1458239555358887;0.0;0.0;0.0
1151;0.0;0.0;0.0;0.2000799924135208;-0.17080000042915344;1.1458239555358887;0.0;0.0;0.0
1153;0.08759599924087524;-0.019276000559329987;0.98990797996521;0.19227199256420135;-0.16299200057983398;1.1419199705123901;0.05687499791383743;0.24937500059604645;0.42875000834465027
1155;0.0;0.0;0.0;0.16884799301624298;-0.15908800065517426;1.1292319297790527;0.0;0.0;0.0
1157;0.0;0.0;0.0;0.2000799924135208;-0.1668960005044937;1.1536319255828857;0.0;0.0;0.0
1159;0.0;0.0;0.0;0.2000799924135208;-0.1668960005044937;1.1536319255828857;0.0;0.0;0.0
1162;0.0878399983048439;-0.01878799870610237;0.9896639585494995;0.1844639927148819;-0.1512800008058548;1.1536319255828857;0.12687499821186066;0.24500000476837158;0.42875000834465027
1164;0.0;0.0;0.0;0.187391996383667;-0.14640000462532043;1.1253279447555542;0.0;0.0;0.0
1166;0.0;0.0;0.0;0.19910399615764618;-0.13859200477600098;1.1331360340118408;0.0;0.0;0.0
1168;0.0;0.0;0.0;0.21862399578094482;-0.16591998934745789;1.1575360298156738;0.0;0.0;0.0
1170;0.08759599924087524;-0.019276000559329987;0.9903959631919861;0.19910399615764618;-0.1698240041732788;1.1087360382080078;0.05687499791383743;0.24500000476837158;0.4243749976158142
1172;0.0;0.0;0.0;0.2030079960823059;-0.1542080044746399;1.1419199705123901;0.0;0.0;0.0
1174;0.0;0.0;0.0;0.1756799966096878;-0.17763200402259827;1.1331360340118408;0.0;0.0;0.0
1176;0.0;0.0;0.0;0.187391996383667;-0.15030398964881897;1.1380159854888916;0.0;0.0;0.0
1179;0.0878399983048439;-0.01903199963271618;0.98990797996521;0.19910399615764618;-0.15030398964881897;1.1292319297790527;0.12687499821186066;0.24500000476837158;0.4243749976158142
1181;0.0;0.0;0.0;0.20398399233818054;-0.14347200095653534;1.1370400190353394;0.0;0.0;0.0
1183;0.0;0.0;0.0;0.17665599286556244;-0.1395680010318756;1.165343999862671;0.0;0.0;0.0
1185;0.0;0.0;0.0;0.17665599286556244;-0.17080000042915344;1.132159948348999;0.0;0.0;0.0
1187;0.08710800111293793;-0.01903199963271618;0.9886879920959473;0.19617599248886108;-0.1395680010318756;1.1370400190353394;0.05687499791383743;0.31062498688697815;0.42000001668930054
1189;0.0;0.0;0.0;0.18836799263954163;-0.1668960005044937;1.165343999862671;0.0;0.0;0.0
1191;0.0;0.0;0.0;0.21959999203681946;-0.17080000042915344;1.148751974105835;0.0;0.0;0.0
1193;0.0;0.0;0.0;0.17665599286556244;-0.15518400073051453;1.132159948348999;0.0;0.0;0.0
1196;0.08710800111293793;-0.019519999623298645;0.9896639585494995;0.19617599248886108;-0.16299200057983398;1.148751974105835;0.12687499821186066;0.24062499403953552;0.42000001668930054
1198;0.0;0.0;0.0;0.20398399233818054;-0.16299200057983398;1.1419199705123901;0.0;0.0;0.0
1200;0.0;0.0;0.0;0.1727519929409027;-0.1786080002784729;1.1331360340118408;0.0;0.0;0.0
1202;0.0;0.0;0.0;0.2117919921875;-0.1668960005044937;1.1458239555358887;0.0;0.0;0.0
1204;0.08735200017690659;-0.019276000559329987;0.9894199967384338;0.17665599286556244;-0.16299200057983398;1.1214239597320557;0.12687499821186066;0.24062499403953552;0.4156250059604645
1206;0.0;0.0;0.0;0.2000799924135208;-0.15908800065517426;1.1497279405593872;0.0;0.0;0.0
1208;0.0;0.0;0.0;0.1844639927148819;-0.1512800008058548;1.1214239597320557;0.0;0.0;0.0
1210;0.0;0.0;0.0;0.18836799263954163;-0.17080000042915344;1.1458239555358887;0.0;0.0;0.0
1213;0.08759599924087524;-0.01903199963271618;0.98990797996521;0.18836799263954163;-0.15908800065517426;1.1419199705123901;0.05687499791383743;0.24062499403953552;0.4156250059604645
1215;0.0;0.0;0.0;0.17665599286556244;-0.17080000042915344;1.1380159854888916;0.0;0.0;0.0
1217;0.0;0.0;0.0;0.1844639927148819;-0.1512800008058548;1.1575360298156738;0.0;0.0;0.0
1219;0.0;0.0;0.0;0.20788799226284027;-0.1512800008058548;1.1253279447555542;0.0;0.0;0.0
1221;0.0878399983048439;-0.01903199963271618;0.9891759753227234;0.1844639927148819;-0.13566400110721588;1.1575360298156738;0.12687499821186066;0.23624999821186066;0.4112499952316284
1223;0.0;0.0;0.0;0.20398399233818054;-0.1512800008058548;1.1331360340118408;0.0;0.0;0.0
1225;0.0;0.0;0.0;0.20788799226284027;-0.15518400073051453;1.1497279405593872;0.0;0.0;0.0
1227;0.0;0.0;0.0;0.1844639927148819;-0.17080000042915344;1.1292319297790527;0.0;0.0;0.0
1230;0.08735200017690659;-0.01878799870610237;0.9889319539070129;0.18836799263954163;-0.14347200095653534;1.1331360340118408;0.05250000208616257;0.23624999821186066;0.4112499952316284
1232;0.0;0.0;0.0;0.2000799924135208;-0.17470400035381317;1.1575360298156738;0.0;0.0;0.0
1234;0.0;0.0;0.0;0.19617599248886108;-0.17080000042915344;1.1331360340118408;0.0;0.0;0.0
1236;0.0;0.0;0.0;0.1844639927148819;-0.14737600088119507;1.1370400190353394;0.0;0.0;0.0
1238;0.08661999553442001;-0.01903199963271618;0.9896639585494995;0.20398399233818054;-0.12785600125789642;1.1331360340118408;0.05250000208616257;0.23624999821186066;0.40687501430511475
1240;0.0;0.0;0.0;0.2117919921875;-0.15518400073051453;1.1624159812927246;0.0;0.0;0.0
1242;0.0;0.0;0.0;0.23131199181079865;-0.1512800008058548;1.1331360340118408;0.0;0.0;0.0
1244;0.0;0.0;0.0;0.2000799924135208;-0.15518400073051453;1.1331360340118408;0.0;0.0;0.0
1247;0.08759599924087524;-0.019276000559329987;0.9889319539070129;0.19227199256420135;-0.13566400110721588;1.1380159854888916;0.12250000238418579;0.23624999821186066;0.40687501430511475
1249;0.0;0.0;0.0;0.16884799301624298;-0.13566400110721588;1.1614400148391724;0.0;0.0;0.0
1251;0.0;0.0;0.0;0.18055999279022217;-0.15518400073051453;1.1380159854888916;0.0;0.0;0.0
1253;0.0;0.0;0.0;0.19227199256420135;-0.14737600088119507;1.1253279447555542;0.0;0.0;0.0
1255;0.08832799643278122;-0.01903199963271618;0.9894199967384338;0.2000799924135208;-0.1512800008058548;1.1497279405593872;0.12250000238418579;0.3018749952316284;0.40687501430511475
1257;0.0;0.0;0.0;0.19617599248886108;-0.14347200095653534;1.1331360340118408;0.0;0.0;0.0
1259;0.0;0.0;0.0;0.2117919921875;-0.1512800008058548;1.1419199705123901;0.0;0.0;0.0
1261;0.0;0.0;0.0;0.19227199256420135;-0.17080000042915344;1.1331360340118408;0.0;0.0;0.0
1264;0.08661999553442001;-0.01903199963271618;0.9903959631919861;0.2000799924135208;-0.1903200000524521;1.1497279405593872;0.12250000238418579;0.2318750023841858;0.4025000035762787
1266;0.0;0.0;0.0;0.19129599630832672;-0.1542080044746399;1.1575360298156738;0.0;0.0;0.0
1268;0.0;0.0;0.0;0.17958399653434753;-0.1542080044746399;1.1380159854888916;0.0;0.0;0.0
1270;0.0;0.0;0.0;0.19129599630832672;-0.14640000462532043;1.1419199705123901;0.0;0.0;0.0
1272;0.0878399983048439;-0.018543999642133713;0.9884439706802368;0.19129599630832672;-0.15030398964881897;1.1292319297790527;0.12250000238418579;0.2318750023841858;0.4025000035762787
1274;0.0;0.0;0.0;0.19129599630832672;-0.16201600432395935;1.1458239555358887;0.0;0.0;0.0
1276;0.0;0.0;0.0;0.23814399540424347;-0.17372798919677734;1.1331360340118408;0.0;0.0;0.0
1278;0.0;0.0;0.0;0.2147199958562851;-0.1542080044746399;1.1292319297790527;0.0;0.0;0.0
1281;0.08808399736881256;-0.01878799870610237;0.9894199967384338;0.187391996383667;-0.13859200477600098;1.1292319297790527;0.12250000238418579;0.22749999165534973;0.3981249928474426
1283;0.0;0.0;0.0;0.18836799263954163;-0.12004800140857697;1.1380159854888916;0.0;0.0;0.0
1285;0.0;0.0;0.0;0.19617599248886108;-0.1395680010318756;1.1497279405593872;0.0;0.0;0.0
1287;0.0;0.0;0.0;0.2000799924135208;-0.1512800008058548;1.1497279405593872;0.0;0.0;0.0
1289;0.08710800111293793;-0.018543999642133713;0.9901520013809204;0.2000799924135208;-0.15908800065517426;1.1458239555358887;0.05250000208616257;0.22749999165534973;0.3981249928474426
1291;0.0;0.0;0.0;0.16494399309158325;-0.15908800065517426;1.1175199747085571;0.0;0.0;0.0
1293;0.0;0.0;0.0;0.19617599248886108;-0.16299200057983398;1.1536319255828857;0.0;0.0;0.0
1296;0.0;0.0;0.0;0.20398399233818054;-0.15908800065517426;1.1575360298156738;0.0;0.0;0.0
1298;0.08808399736881256;-0.018300000578165054;0.9886879920959473;0.2000799924135208;-0.17080000042915344;1.1331360340118408;0.12250000238418579;0.1574999988079071;0.39375001192092896
1300;0.0;0.0;0.0;0.1844639927148819;-0.16299200057983398;1.1331360340118408;0.0;0.0;0.0
1302;0.0;0.0;0.0;0.21959999203681946;-0.1512800008058548;1.1575360298156738;0.0;0.0;0.0
1304;0.0;0.0;0.0;0.18055999279022217;-0.14347200095653534;1.1536319255828857;0.0;0.0;0.0
1306;0.0878399983048439;-0.01903199963271618;0.9889319539070129;0.2235039919614792;-0.15518400073051453;1.1458239555358887;0.048124998807907104;0.22749999165534973;0.39375001192092896
1308;0.0;0.0;0.0;0.19227199256420135;-0.15908800065517426;1.1575360298156738;0.0;0.0;0.0
1310;0.0;0.0;0.0;0.2235039919614792;-0.17470400035381317;1.1536319255828857;0.0;0.0;0.0
1313;0.0;0.0;0.0;0.19617599248886108;-0.17080000042915344;1.1497279405593872;0.0;0.0;0.0
1315;0.08735200017690659;-0.01878799870610237;0.9901520013809204;0.19617599248886108;-0.17470400035381317;1.1331360340118408;0.11812499910593033;0.22312499582767487;0.4593749940395355
1317;0.0;0.0;0.0;0.22252799570560455;-0.13468798995018005;1.1136159896850586;0.0;0.0;0.0
1319;0.0;0.0;0.0;0.17958399653434753;-0.14640000462532043;1.1497279405593872;0.0;0.0;0.0
1321;0.0;0.0;0.0;0.19519999623298645;-0.16201600432395935;1.1419199705123901;0.0;0.0;0.0
1323;0.08808399736881256;-0.019276000559329987;0.9886879920959473;0.18348799645900726;-0.16201600432395935;1.1575360298156738;0.048124998807907104;0.22312499582767487;0.4593749940395355
1326;0.0;0.0;0.0;0.21081599593162537;-0.13859200477600098;1.1497279405593872;0.0;0.0;0.0
1327;0.0;0.0;0.0;0.19129599630832672;-0.13468798995018005;1.1458239555358887;0.0;0.0;0.0
1330;0.0;0.0;0.0;0.18348799645900726;-0.16201600432395935;1.1419199705123901;0.0;0.0;0.0
1332;0.0878399983048439;-0.01903199963271618;0.98990797996521;0.19910399615764618;-0.13468798995018005;1.1575360298156738;0.048124998807907104;0.22312499582767487;0.45499998331069946
1334;0.0;0.0;0.0;0.187391996383667;-0.1698240041732788;1.1380159854888916;0.0;0.0;0.0
1336;0.0;0.0;0.0;0.19129599630832672;-0.16201600432395935;1.1458239555358887;0.0;0.0;0.0
1338;0.0;0.0;0.0;0.17177599668502808;-0.13468798995018005;1.1370400190353394;0.0;0.0;0.0
1340;0.08735200017690659;-0.019276000559329987;0.9901520013809204;0.187391996383667;-0.16201600432395935;1.1253279447555542;0.11812499910593033;0.22312499582767487;0.45499998331069946
1342;0.0;0.0;0.0;0.17177599668502808;-0.13859200477600098;1.1575360298156738;0.0;0.0;0.0
1344;0.0;0.0;0.0;0.187391996383667;-0.15811198949813843;1.1292319297790527;0.0;0.0;0.0
1347;0.0;0.0;0.0;0.21081599593162537;-0.15030398964881897;1.1175199747085571;0.0;0.0;0.0
1349;0.08759599924087524;-0.01903199963271618;0.9903959631919861;0.21862399578094482;-0.1542080044746399;1.1575360298156738;0.11812499910593033;0.21875;0.4506250023841858
1351;0.0;0.0;0.0;0.20788799226284027;-0.1512800008058548;1.1175199747085571;0.0;0.0;0.0
1353;0.0;0.0;0.0;0.2117919921875;-0.13566400110721588;1.1458239555358887;0.0;0.0;0.0
1355;0.0;0.0;0.0;0.18055999279022217;-0.1668960005044937;1.1292319297790527;0.0;0.0;0.0
1357;0.08808399736881256;-0.019763998687267303;0.9889319539070129;0.2117919921875;-0.14347200095653534;1.1497279405593872;0.048124998807907104;0.21875;0.4506250023841858
1359;0.0;0.0;0.0;0.18055999279022217;-0.1239520013332367;1.1253279447555542;0.0;0.0;0.0
1361;0.0;0.0;0.0;0.1844639927148819;-0.14737600088119507;1.1575360298156738;0.0;0.0;0.0
1364;0.0;0.0;0.0;0.18836799263954163;-0.1512800008058548;1.1458239555358887;0.0;0.0;0.0
1366;0.08735200017690659;-0.019276000559329987;0.9894199967384338;0.18836799263954163;-0.1395680010318756;1.1370400190353394;0.11812499910593033;0.21875;0.44624999165534973
1368;0.0;0.0;0.0;0.18836799263954163;-0.14737600088119507;1.1536319255828857;0.0;0.0;0.0
1370;0.0;0.0;0.0;0.19617599248886108;-0.17080000042915344;1.1536319255828857;0.0;0.0;0.0
1372;0.0;0.0;0.0;0.20398399233818054;-0.15518400073051453;1.1419199705123901;0.0;0.0;0.0
1374;0.08735200017690659;-0.01903199963271618;0.9891759753227234;0.20788799226284027;-0.16299200057983398;1.1419199705123901;0.11812499910593033;0.21875;0.44624999165534973
1376;0.0;0.0;0.0;0.1727519929409027;-0.1512800008058548;1.1214239597320557;0.0;0.0;0.0
1378;0.0;0.0;0.0;0.18836799263954163;-0.16299200057983398;1.1253279447555542;0.0;0.0;0.0
1381;0.0;0.0;0.0;0.17665599286556244;-0.12785600125789642;1.1292319297790527;0.0;0.0;0.0
1383;0.0878399983048439;-0.019276000559329987;0.9891759753227234;0.19617599248886108;-0.15908800065517426;1.1497279405593872;0.11812499910593033;0.21437500417232513;0.44187501072883606
1385;0.0;0.0;0.0;0.19519999623298645;-0.15030398964881897;1.1331360340118408;0.0;0.0;0.0
1387;0.0;0.0;0.0;0.19129599630832672;-0.1542080044746399;1.1419199705123901;0.0;0.0;0.0
1389;0.0;0.0;0.0;0.21081599593162537;-0.16201600432395935;1.1419199705123901;0.0;0.0;0.0
1391;0.08735200017690659;-0.01903199963271618;0.9896639585494995;0.19910399615764618;-0.16591998934745789;1.1575360298156738;0.11374999582767487;0.1443750113248825;0.37187501788139343
1393;0.0;0.0;0.0;0.2147199958562851;-0.16591998934745789;1.1419199705123901;0.0;0.0;0.0
1395;0.0;0.0;0.0;0.17958399653434753;-0.14640000462532043;1.1419199705123901;0.0;0.0;0.0
1398;0.0;0.0;0.0;0.17177599668502808;-0.15811198949813843;1.1614400148391724;0.0;0.0;0.0
1400;0.08710800111293793;-0.019519999623298645;0.9906399846076965;0.21081599593162537;-0.1698240041732788;1.1458239555358887;0.11374999582767487;0.21437500417232513;0.3675000071525574
1402;0.0;0.0;0.0;0.21959999203681946;-0.15908800065517426;1.1575360298156738;0.0;0.0;0.0
1404;0.0;0.0;0.0;0.17665599286556244;-0.17080000042915344;1.1175199747085571;0.0;0.0;0.0
1406;0.0;0.0;0.0;0.1727519929409027;-0.15908800065517426;1.1624159812927246;0.0;0.0;0.0
1408;0.08759599924087524;-0.019276000559329987;0.9901520013809204;0.19227199256420135;-0.14737600088119507;1.1458239555358887;0.04374999925494194;0.21437500417232513;0.3675000071525574
1410;0.0;0.0;0.0;0.2000799924135208;-0.15908800065517426;1.1214239597320557;0.0;0.0;0.0
1412;0.0;0.0;0.0;0.19617599248886108;-0.16299200057983398;1.1331360340118408;0.0;0.0;0.0
1415;0.0;0.0;0.0;0.19617599248886108;-0.16299200057983398;1.1741279363632202;0.0;0.0;0.0
1417;0.08857199549674988;-0.018300000578165054;0.9896639585494995;0.18836799263954163;-0.14737600088119507;1.1419199705123901;0.04374999925494194;0.21437500417232513;0.3631250262260437
1419;0.0;0.0;0.0;0.19519999623298645;-0.15030398964881897;1.1331360340118408;0.0;0.0;0.0
1421;0.0;0.0;0.0;0.187391996383667;-0.1424959897994995;1.1419199705123901;0.0;0.0;0.0
1423;0.0;0.0;0.0;0.18348799645900726;-0.14640000462532043;1.1497279405593872;0.0;0.0;0.0
1425;0.08661999553442001;-0.01878799870610237;0.9903959631919861;0.2030079960823059;-0.16201600432395935;1.1419199705123901;0.11374999582767487;0.2800000011920929;0.3631250262260437
1428;0.0;0.0;0.0;0.19519999623298645;-0.15811198949813843;1.1419199705123901;0.0;0.0;0.0
1429;0.0;0.0;0.0;0.2147199958562851;-0.14640000462532043;1.1419199705123901;0.0;0.0;0.0
1432;0.0;0.0;0.0;0.187391996383667;-0.13468798995018005;1.1458239555358887;0.0;0.0;0.0
1434;0.08759599924087524;-0.01903199963271618;0.98990797996521;0.18348799645900726;-0.14640000462532043;1.1292319297790527;0.11374999582767487;0.21000000834465027;0.3631250262260437
1436;0.0;0.0;0.0;0.19617599248886108;-0.13176000118255615;1.1419199705123901;0.0;0.0;0.0
1438;0.0;0.0;0.0;0.18836799263954163;-0.15908800065517426;1.1575360298156738;0.0;0.0;0.0
1440;0.0;0.0;0.0;0.2117919921875;-0.14737600088119507;1.1575360298156738;0.0;0.0;0.0
1442;0.08759599924087524;-0.018055999651551247;0.9896639585494995;0.20398399233818054;-0.15518400073051453;1.1419199705123901;0.11374999582767487;0.21000000834465027;0.35875001549720764
1444;0.0;0.0;0.0;0.21569599211215973;-0.15908800065517426;1.1331360340118408;0.0;0.0;0.0
1446;0.0;0.0;0.0;0.20398399233818054;-0.14347200095653534;1.1380159854888916;0.0;0.0;0.0
1449;0.0;0.0;0.0;0.19227199256420135;-0.1395680010318756;1.1497279405593872;0.0;0.0;0.0
1451;0.08637599647045135;-0.018543999642133713;0.9894199967384338;0.22740799188613892;-0.13176000118255615;1.1331360340118408;0.04374999925494194;0.2056249976158142;0.35875001549720764
1453;0.0;0.0;0.0;0.2117919921875;-0.1668960005044937;1.1331360340118408;0.0;0.0;0.0
1455;0.0;0.0;0.0;0.23131199181079865;-0.15908800065517426;1.1624159812927246;0.0;0.0;0.0
1457;0.0;0.0;0.0;0.2117919921875;-0.16299200057983398;1.1497279405593872;0.0;0.0;0.0
1459;0.08808399736881256;-0.01903199963271618;0.9891759753227234;0.2117919921875;-0.15518400073051453;1.1253279447555542;0.04374999925494194;0.2056249976158142;0.3543750047683716
1462;0.0;0.0;0.0;0.16884799301624298;-0.1512800008058548;1.1458239555358887;0.0;0.0;0.0
1464;0.0;0.0;0.0;0.18836799263954163;-0.1786080002784729;1.1380159854888916;0.0;0.0;0.0
1466;0.0;0.0;0.0;0.19227199256420135;-0.15908800065517426;1.1331360340118408;0.0;0.0;0.0
1468;0.08759599924087524;-0.01903199963271618;0.9896639585494995;0.18055999279022217;-0.15518400073051453;1.1419199705123901;0.11374999582767487;0.2056249976158142;0.3543750047683716
1470;0.0;0.0;0.0;0.187391996383667;-0.14640000462532043;1.1380159854888916;0.0;0.0;0.0
1472;0.0;0.0;0.0;0.18348799645900726;-0.16591998934745789;1.1497279405593872;0.0;0.0;0.0
1474;0.0;0.0;0.0;0.18348799645900726;-0.16201600432395935;1.1497279405593872;0.0;0.0;0.0
1476;0.08735200017690659;-0.01903199963271618;0.9894199967384338;0.20691199600696564;-0.16201600432395935;1.1331360340118408;0.04374999925494194;0.13562500476837158;0.28437501192092896
1478;0.0;0.0;0.0;0.1600639969110489;-0.1815359890460968;1.1458239555358887;0.0;0.0;0.0
1481;0.0;0.0;0.0;0.17958399653434753;-0.1424959897994995;1.1419199705123901;0.0;0.0;0.0
1483;0.0;0.0;0.0;0.187391996383667;-0.13859200477600098;1.1253279447555542;0.0;0.0;0.0
1485;0.08759599924087524;-0.01878799870610237;0.9894199967384338;0.19129599630832672;-0.14640000462532043;1.1458239555358887;0.039374999701976776;0.13562500476837158;0.3500000238418579
1487;0.0;0.0;0.0;0.19910399615764618;-0.1424959897994995;1.1419199705123901;0.0;0.0;0.0
1489;0.0;0.0;0.0;0.19910399615764618;-0.13078400492668152;1.1497279405593872;0.0;0.0;0.0
1491;0.0;0.0;0.0;0.19519999623298645;-0.13078400492668152;1.1458239555358887;0.0;0.0;0.0
1493;0.08686399459838867;-0.019276000559329987;0.9896639585494995;0.19129599630832672;-0.16591998934745789;1.1292319297790527;0.109375;0.20125000178813934;0.3500000238418579
1496;0.0;0.0;0.0;0.19519999623298645;-0.15811198949813843;1.1497279405593872;0.0;0.0;0.0
1498;0.0;0.0;0.0;0.18348799645900726;-0.15811198949813843;1.1536319255828857;0.0;0.0;0.0
1500;0.0;0.0;0.0;0.19519999623298645;-0.13859200477600098;1.1292319297790527;0.0;0.0;0.0
1502;0.08735200017690659;-0.019519999623298645;0.9901520013809204;0.2030079960823059;-0.1424959897994995;1.1292319297790527;0.109375;0.20125000178813934;0.4156250059604645
1504;0.0;0.0;0.0;0.20691199600696564;-0.1424959897994995;1.1419199705123901;0.0;0.0;0.0
1506;0.0;0.0;0.0;0.21862399578094482;-0.15030398964881897;1.1497279405593872;0.0;0.0;0.0
1508;0.0;0.0;0.0;0.21081599593162537;-0.1542080044746399;1.1419199705123901;0.0;0.0;0.0
1510;0.08686399459838867;-0.01903199963271618;0.9906399846076965;0.1756799966096878;-0.16201600432395935;1.1253279447555542;0.109375;0.20125000178813934;0.34562501311302185
1513;0.0;0.0;0.0;0.19519999623298645;-0.1698240041732788;1.1214239597320557;0.0;0.0;0.0
1515;0.0;0.0;0.0;0.1756799966096878;-0.1542080044746399;1.1536319255828857;0.0;0.0;0.0
1517;0.0;0.0;0.0;0.19129599630832672;-0.14640000462532043;1.1536319255828857;0.0;0.0;0.0
1519;0.08735200017690659;-0.01903199963271618;0.9894199967384338;0.2030079960823059;-0.15030398964881897;1.1497279405593872;0.039374999701976776;0.13125000894069672;0.34562501311302185
1521;0.0;0.0;0.0;0.18055999279022217;-0.14347200095653534;1.1497279405593872;0.0;0.0;0.0
1523;0.0;0.0;0.0;0.2117919921875;-0.15518400073051453;1.1380159854888916;0.0;0.0;0.0
1525;0.0;0.0;0.0;0.18836799263954163;-0.15518400073051453;1.1331360340118408;0.0;0.0;0.0
1527;0.08808399736881256;-0.01878799870610237;0.9903959631919861;0.19227199256420135;-0.15908800065517426;1.1458239555358887;0.109375;0.20125000178813934;0.3412500023841858
1530;0.0;0.0;0.0;0.2000799924135208;-0.14737600088119507;1.1331360340118408;0.0;0.0;0.0
1532;0.0;0.0;0.0;0.20398399233818054;-0.1668960005044937;1.1214239597320557;0.0;0.0;0.0
1534;0.0;0.0;0.0;0.15030398964881897;-0.15518400073051453;1.1458239555358887;0.0;0.0;0.0
1536;0.08735200017690659;-0.019276000559329987;0.98990797996521;0.1844639927148819;-0.17080000042915344;1.1497279405593872;0.039374999701976776;0.19687500596046448;0.3412500023841858
1538;0.0;0.0;0.0;0.17177599668502808;-0.14640000462532043;1.1575360298156738;0.0;0.0;0.0
1540;0.0;0.0;0.0;0.19519999623298645;-0.14640000462532043;1.1663199663162231;0.0;0.0;0.0
1542;0.0;0.0;0.0;0.19519999623298645;-0.1542080044746399;1.1419199705123901;0.0;0.0;0.0
1544;0.08808399736881256;-0.019276000559329987;0.9894199967384338;0.2147199958562851;-0.1542080044746399;1.1497279405593872;0.109375;0.19687500596046448;0.3368750214576721
1547;0.0;0.0;0.0;0.22252799570560455;-0.1268799901008606;1.1331360340118408;0.0;0.0;0.0
1549;0.0;0.0;0.0;0.20691199600696564;-0.13859200477600098;1.1253279447555542;0.0;0.0;0.0
1551;0.0;0.0;0.0;0.21081599593162537;-0.1424959897994995;1.1458239555358887;0.0;0.0;0.0
1553;0.0878399983048439;-0.01878799870610237;0.9896639585494995;0.19910399615764618;-0.13859200477600098;1.1419199705123901;0.109375;0.2668749988079071;0.40687501430511475
1555;0.0;0.0;0.0;0.17958399653434753;-0.13468798995018005;1.1419199705123901;0.0;0.0;0.0
1557;0.0;0.0;0.0;0.19910399615764618;-0.1698240041732788;1.134112000465393;0.0;0.0;0.0
1559;0.0;0.0;0.0;0.2030079960823059;-0.1542080044746399;1.1458239555358887;0.0;0.0;0.0
1561;0.08686399459838867;-0.019276000559329987;0.9901520013809204;0.18348799645900726;-0.14640000462532043;1.1497279405593872;0.039374999701976776;0.19687500596046448;0.3368750214576721
1564;0.0;0.0;0.0;0.18348799645900726;-0.1698240041732788;1.1253279447555542;0.0;0.0;0.0
1566;0.0;0.0;0.0;0.19910399615764618;-0.14640000462532043;1.1253279447555542;0.0;0.0;0.0
1568;0.0;0.0;0.0;0.20691199600696564;-0.12297599762678146;1.1458239555358887;0.0;0.0;0.0
1570;0.0878399983048439;-0.01903199963271618;0.9889319539070129;0.19129599630832672;-0.13468798995018005;1.1419199705123901;0.039374999701976776;0.19249999523162842;0.33250001072883606
1572;0.0;0.0;0.0;0.19617599248886108;-0.14737600088119507;1.1331360340118408;0.0;0.0;0.0
1574;0.0;0.0;0.0;0.20788799226284027;-0.15908800065517426;1.1419199705123901;0.0;0.0;0.0
1576;0.0;0.0;0.0;0.19227199256420135;-0.14347200095653534;1.1458239555358887;0.0;0.0;0.0
1578;0.08735200017690659;-0.01903199963271618;0.9896639585494995;0.20788799226284027;-0.17080000042915344;1.1331360340118408;0.10500000417232513;0.19249999523162842;0.33250001072883606
1581;0.0;0.0;0.0;0.1844639927148819;-0.17080000042915344;1.1497279405593872;0.0;0.0;0.0
1583;0.0;0.0;0.0;0.20788799226284027;-0.1668960005044937;1.1575360298156738;0.0;0.0;0.0
1585;0.0;0.0;0.0;0.21959999203681946;-0.14347200095653534;1.1419199705123901;0.0;0.0;0.0
1587;0.08710800111293793;-0.019276000559329987;0.9891759753227234;0.18836799263954163;-0.15908800065517426;1.1497279405593872;0.10500000417232513;0.12250000983476639;0.328125
1589;0.0;0.0;0.0;0.20398399233818054;-0.14347200095653534;1.1419199705123901;0.0;0.0;0.0
1591;0.0;0.0;0.0;0.20398399233818054;-0.14737600088119507;1.1292319297790527;0.0;0.0;0.0
1593;0.0;0.0;0.0;0.20398399233818054;-0.13566400110721588;1.1575360298156738;0.0;0.0;0.0
1595;0.0878399983048439;-0.01878799870610237;0.9891759753227234;0.19617599248886108;-0.14347200095653534;1.1497279405593872;0.03500000014901161;0.26249998807907104;0.328125
1598;0.0;0.0;0.0;0.19227199256420135;-0.1512800008058548;1.1536319255828857;0.0;0.0;0.0
1600;0.0;0.0;0.0;0.20398399233818054;-0.16299200057983398;1.1702239513397217;0.0;0.0;0.0
1602;0.0;0.0;0.0;0.17665599286556244;-0.17080000042915344;1.1331360340118408;0.0;0.0;0.0
1604;0.08759599924087524;-0.01878799870610237;0.9901520013809204;0.19227199256420135;-0.14737600088119507;1.1175199747085571;0.03500000014901161;0.19249999523162842;0.328125
1606;0.0;0.0;0.0;0.20788799226284027;-0.17470400035381317;1.1614400148391724;0.0;0.0;0.0
1608;0.0;0.0;0.0;0.1844639927148819;-0.15518400073051453;1.1331360340118408;0.0;0.0;0.0
1610;0.0;0.0;0.0;0.18055999279022217;-0.17080000042915344;1.1253279447555542;0.0;0.0;0.0
1612;0.08808399736881256;-0.01903199963271618;0.98990797996521;0.2000799924135208;-0.13566400110721588;1.1370400190353394;0.10500000417232513;0.11812500655651093;0.32375001907348633
1615;0.0;0.0;0.0;0.19227199256420135;-0.1668960005044937;1.1458239555358887;0.0;0.0;0.0
1617;0.0;0.0;0.0;0.1844639927148819;-0.15518400073051453;1.1380159854888916;0.0;0.0;0.0
1619;0.0;0.0;0.0;0.2117919921875;-0.13176000118255615;1.1458239555358887;0.0;0.0;0.0
1621;0.08759599924087524;-0.018300000578165054;0.9894199967384338;0.16884799301624298;-0.16299200057983398;1.1458239555358887;0.03500000014901161;0.2581250071525574;0.32375001907348633
1623;0.0;0.0;0.0;0.19129599630832672;-0.15811198949813843;1.1497279405593872;0.0;0.0;0.0
1625;0.0;0.0;0.0;0.20691199600696564;-0.13078400492668152;1.1253279447555542;0.0;0.0;0.0
1627;0.0;0.0;0.0;0.17177599668502808;-0.1815359890460968;1.1458239555358887;0.0;0.0;0.0
1629;0.08735200017690659;-0.01878799870610237;0.98990797996521;0.18348799645900726;-0.15811198949813843;1.1175199747085571;0.03500000014901161;0.18812499940395355;0.32375001907348633
1632;0.0;0.0;0.0;0.187391996383667;-0.15811198949813843;1.1419199705123901;0.0;0.0;0.0
1634;0.0;0.0;0.0;0.17958399653434753;-0.14640000462532043;1.1497279405593872;0.0;0.0;0.0
1636;0.0;0.0;0.0;0.21081599593162537;-0.13468798995018005;1.1292319297790527;0.0;0.0;0.0
1638;0.08759599924087524;-0.01878799870610237;0.9889319539070129;0.18348799645900726;-0.15030398964881897;1.1253279447555542;0.03500000014901161;0.18812499940395355;0.31937500834465027
1640;0.0;0.0;0.0;0.2000799924135208;-0.17470400035381317;1.1458239555358887;0.0;0.0;0.0
1642;0.0;0.0;0.0;0.18836799263954163;-0.14347200095653534;1.1458239555358887;0.0;0.0;0.0
1644;0.0;0.0;0.0;0.1844639927148819;-0.1512800008058548;1.1175199747085571;0.0;0.0;0.0
1646;0.08710800111293793;-0.01878799870610237;0.9894199967384338;0.2117919921875;-0.1512800008058548;1.1575360298156738;0.03500000014901161;0.2537499964237213;0.31937500834465027
1649;0.0;0.0;0.0;0.19227199256420135;-0.1786080002784729;1.1419199705123901;0.0;0.0;0.0
1651;0.0;0.0;0.0;0.19227199256420135;-0.1786080002784729;1.1380159854888916;0.0;0.0;0.0
1653;0.0;0.0;0.0;0.21959999203681946;-0.15518400073051453;1.1253279447555542;0.0;0.0;0.0
1655;0.08735200017690659;-0.019519999623298645;0.98990797996521;0.21569599211215973;-0.14737600088119507;1.1370400190353394;0.10500000417232513;0.1837500035762787;0.31937500834465027
1657;0.0;0.0;0.0;0.19227199256420135;-0.16299200057983398;1.1702239513397217;0.0;0.0;0.0
1659;0.0;0.0;0.0;0.1727519929409027;-0.16299200057983398;1.1419199705123901;0.0;0.0;0.0
1661;0.0;0.0;0.0;0.20398399233818054;-0.14737600088119507;1.1419199705123901;0.0;0.0;0.0
1663;0.08808399736881256;-0.019276000559329987;0.98990797996521;0.21569599211215973;-0.15518400073051453;1.1292319297790527;0.03500000014901161;0.11375001072883606;0.3149999976158142
1666;0.0;0.0;0.0;0.19617599248886108;-0.1512800008058548;1.1614400148391724;0.0;0.0;0.0
1668;0.0;0.0;0.0;0.18836799263954163;-0.18251200020313263;1.1331360340118408;0.0;0.0;0.0
1670;0.0;0.0;0.0;0.1571359932422638;-0.14347200095653534;1.1575360298156738;0.0;0.0;0.0
1672;0.08686399459838867;-0.019276000559329987;0.9906399846076965;0.19227199256420135;-0.1395680010318756;1.1253279447555542;0.10500000417232513;0.2537499964237213;0.3149999976158142
1674;0.0;0.0;0.0;0.18055999279022217;-0.16299200057983398;1.1419199705123901;0.0;0.0;0.0
1676;0.0;0.0;0.0;0.20788799226284027;-0.15908800065517426;1.1536319255828857;0.0;0.0;0.0
1678;0.0;0.0;0.0;0.20398399233818054;-0.17080000042915344;1.1458239555358887;0.0;0.0;0.0
1680;0.08759599924087524;-0.019519999623298645;0.98990797996521;0.2000799924135208;-0.15908800065517426;1.1575360298156738;0.03500000014901161;0.1837500035762787;0.24500001966953278
1683;0.0;0.0;0.0;0.19227199256420135;-0.14737600088119507;1.1214239597320557;0.0;0.0;0.0
1685;0.0;0.0;0.0;0.1844639927148819;-0.17470400035381317;1.1741279363632202;0.0;0.0;0.0
1687;0.0;0.0;0.0;0.20788799226284027;-0.15518400073051453;1.1497279405593872;0.0;0.0;0.0
1689;0.08710800111293793;-0.01903199963271618;0.9891759753227234;0.17665599286556244;-0.14737600088119507;1.1292319297790527;0.03500000014901161;0.17937499284744263;0.31062501668930054
1691;0.0;0.0;0.0;0.19129599630832672;-0.15811198949813843;1.1331360340118408;0.0;0.0;0.0
1693;0.0;0.0;0.0;0.19129599630832672;-0.14640000462532043;1.1663199663162231;0.0;0.0;0.0
1695;0.0;0.0;0.0;0.17958399653434753;-0.13078400492668152;1.1380159854888916;0.0;0.0;0.0
1697;0.08686399459838867;-0.019519999623298645;0.9896639585494995;0.20691199600696564;-0.1698240041732788;1.1458239555358887;0.03500000014901161;0.1093750074505806;0.31062501668930054
1700;0.0;0.0;0.0;0.187391996383667;-0.16201600432395935;1.1575360298156738;0.0;0.0;0.0
1702;0.0;0.0;0.0;0.2147199958562851;-0.12297599762678146;1.1419199705123901;0.0;0.0;0.0
1704;0.0;0.0;0.0;0.2147199958562851;-0.14640000462532043;1.1214239597320557;0.0;0.0;0.0
1706;0.08735200017690659;-0.01878799870610237;0.98990797996521;0.17177599668502808;-0.15811198949813843;1.1380159854888916;0.10062500089406967;0.17937499284744263;0.3062500059604645
1708;0.0;0.0;0.0;0.187391996383667;-0.16201600432395935;1.1497279405593872;0.0;0.0;0.0
1710;0.0;0.0;0.0;0.19519999623298645;-0.13468798995018005;1.1292319297790527;0.0;0.0;0.0
1712;0.0;0.0;0.0;0.20691199600696564;-0.1542080044746399;1.1536319255828857;0.0;0.0;0.0
1714;0.08808399736881256;-0.01903199963271618;0.9896639585494995;0.1756799966096878;-0.15030398964881897;1.1497279405593872;0.10062500089406967;0.17937499284744263;0.3062500059604645
1717;0.0;0.0;0.0;0.20691199600696564;-0.1698240041732788;1.1419199705123901;0.0;0.0;0.0
1719;0.0;0.0;0.0;0.19519999623298645;-0.1698240041732788;1.1575360298156738;0.0;0.0;0.0
1721;0.0;0.0;0.0;0.18348799645900726;-0.16201600432395935;1.1331360340118408;0.0;0.0;0.0
1723;0.08661999553442001;-0.019276000559329987;0.9901520013809204;0.20691199600696564;-0.1542080044746399;1.1370400190353394;0.030625000596046448;0.17937499284744263;0.3062500059604645
1725;0.0;0.0;0.0;0.2030079960823059;-0.11907199770212173;1.1458239555358887;0.0;0.0;0.0
1727;0.0;0.0;0.0;0.187391996383667;-0.13859200477600098;1.1419199705123901;0.0;0.0;0.0
1729;0.0;0.0;0.0;0.2030079960823059;-0.17372798919677734;1.1253279447555542;0.0;0.0;0.0
1731;0.08759599924087524;-0.01903199963271618;0.9901520013809204;0.20691199600696564;-0.13859200477600098;1.1136159896850586;0.10062500089406967;0.17499999701976776;0.3018749952316284
1734;0.0;0.0;0.0;0.19129599630832672;-0.13468798995018005;1.1331360340118408;0.0;0.0;0.0
1736;0.0;0.0;0.0;0.19519999623298645;-0.14640000462532043;1.1575360298156738;0.0;0.0;0.0
1738;0.0;0.0;0.0;0.19910399615764618;-0.15811198949813843;1.1458239555358887;0.0;0.0;0.0
1740;0.0878399983048439;-0.01878799870610237;0.9886879920959473;0.2030079960823059;-0.11907199770212173;1.1214239597320557;0.030625000596046448;0.2449999898672104;0.37187498807907104
1742;0.0;0.0;0.0;0.2000799924135208;-0.17080000042915344;1.1575360298156738;0.0;0.0;0.0
1744;0.0;0.0;0.0;0.19227199256420135;-0.16299200057983398;1.1497279405593872;0.0;0.0;0.0
1746;0.0;0.0;0.0;0.16884799301624298;-0.17080000042915344;1.1458239555358887;0.0;0.0;0.0
1748;0.08735200017690659;-0.019519999623298645;0.9891759753227234;0.19227199256420135;-0.13566400110721588;1.1370400190353394;0.10062500089406967;0.17499999701976776;0.3018749952316284
1751;0.0;0.0;0.0;0.2000799924135208;-0.17080000042915344;1.1575360298156738;0.0;0.0;0.0
1753;0.0;0.0;0.0;0.20788799226284027;-0.1512800008058548;1.1331360340118408;0.0;0.0;0.0
1755;0.0;0.0;0.0;0.2000799924135208;-0.15518400073051453;1.1458239555358887;0.0;0.0;0.0
1757;0.08735200017690659;-0.01903199963271618;0.9886879920959473;0.2000799924135208;-0.14737600088119507;1.1419199705123901;-0.039374999701976776;0.17499999701976776;0.29750001430511475
1759;0.0;0.0;0.0;0.21569599211215973;-0.14737600088119507;1.1214239597320557;0.0;0.0;0.0
1761;0.0;0.0;0.0;0.19227199256420135;-0.15908800065517426;1.1419199705123901;0.0;0.0;0.0
1763;0.0;0.0;0.0;0.2000799924135208;-0.1668960005044937;1.1458239555358887;0.0;0.0;0.0
1765;0.08710800111293793;-0.019276000559329987;0.9903959631919861;0.19617599248886108;-0.15518400073051453;1.1536319255828857;0.030625000596046448;0.17499999701976776;0.29750001430511475
1768;0.0;0.0;0.0;0.1844639927148819;-0.1512800008058548;1.1419199705123901;0.0;0.0;0.0
1770;0.0;0.0;0.0;0.18055999279022217;-0.1512800008058548;1.1292319297790527;0.0;0.0;0.0
1772;0.0;0.0;0.0;0.2000799924135208;-0.14737600088119507;1.1419199705123901;0.0;0.0;0.0
1774;0.08686399459838867;-0.01903199963271618;0.9901520013809204;0.20788799226284027;-0.14737600088119507;1.1419199705123901;0.10062500089406967;0.24062499403953552;0.29750001430511475
1776;0.0;0.0;0.0;0.2000799924135208;-0.13566400110721588;1.1458239555358887;0.0;0.0;0.0
1778;0.0;0.0;0.0;0.2117919921875;-0.15908800065517426;1.1292319297790527;0.0;0.0;0.0
1780;0.0;0.0;0.0;0.2000799924135208;-0.13176000118255615;1.1536319255828857;0.0;0.0;0.0
1782;0.08735200017690659;-0.01878799870610237;0.9894199967384338;0.2000799924135208;-0.15908800065517426;1.1292319297790527;0.10062500089406967;0.10062500834465027;0.2931250035762787
1785;0.0;0.0;0.0;0.19227199256420135;-0.1668960005044937;1.1331360340118408;0.0;0.0;0.0
1787;0.0;0.0;0.0;0.19227199256420135;-0.1668960005044937;1.1419199705123901;0.0;0.0;0.0
1789;0.0;0.0;0.0;0.20398399233818054;-0.13566400110721588;1.1614400148391724;0.0;0.0;0.0
1791;0.08686399459838867;-0.01878799870610237;0.9891759753227234;0.19227199256420135;-0.14737600088119507;1.1458239555358887;0.10062500089406967;0.1706250011920929;0.2931250035762787
1793;0.0;0.0;0.0;0.21862399578094482;-0.15030398964881897;1.1536319255828857;0.0;0.0;0.0
1795;0.0;0.0;0.0;0.19910399615764618;-0.1542080044746399;1.1497279405593872;0.0;0.0;0.0
1797;0.0;0.0;0.0;0.17177599668502808;-0.16201600432395935;1.1497279405593872;0.0;0.0;0.0
1799;0.08710800111293793;-0.019276000559329987;0.9896639585494995;0.19519999623298645;-0.16591998934745789;1.1458239555358887;0.10062500089406967;0.10062500834465027;0.2931250035762787
1802;0.0;0.0;0.0;0.18348799645900726;-0.14640000462532043;1.1458239555358887;0.0;0.0;0.0
1804;0.0;0.0;0.0;0.19910399615764618;-0.13468798995018005;1.1458239555358887;0.0;0.0;0.0
1806;0.0;0.0;0.0;0.2147199958562851;-0.15811198949813843;1.1458239555358887;0.0;0.0;0.0
1808;0.08686399459838867;-0.01878799870610237;0.9901520013809204;0.17958399653434753;-0.17763200402259827;1.1331360340118408;0.030625000596046448;0.1706250011920929;0.2887499928474426
1810;0.0;0.0;0.0;0.20788799226284027;-0.1512800008058548;1.1214239597320557;0.0;0.0;0.0
1812;0.0;0.0;0.0;0.1844639927148819;-0.13566400110721588;1.1536319255828857;0.0;0.0;0.0
1814;0.0;0.0;0.0;0.18836799263954163;-0.16299200057983398;1.1253279447555542;0.0;0.0;0.0
1816;0.0878399983048439;-0.019519999623298645;0.9894199967384338;0.19617599248886108;-0.14347200095653534;1.1253279447555542;0.16625000536441803;0.1706250011920929;0.2887499928474426
1819;0.0;0.0;0.0;0.18836799263954163;-0.12785600125789642;1.1458239555358887;0.0;0.0;0.0
1821;0.0;0.0;0.0;0.2000799924135208;-0.1512800008058548;1.1458239555358887;0.0;0.0;0.0
1823;0.0;0.0;0.0;0.20398399233818054;-0.1512800008058548;1.1380159854888916;0.0;0.0;0.0
1825;0.08735200017690659;-0.01878799870610237;0.98990797996521;0.1727519929409027;-0.15518400073051453;1.1458239555358887;0.09624999761581421;0.16624999046325684;0.2887499928474426
1827;0.0;0.0;0.0;0.2000799924135208;-0.12785600125789642;1.1214239597320557;0.0;0.0;0.0
1829;0.0;0.0;0.0;0.20788799226284027;-0.1395680010318756;1.1614400148391724;0.0;0.0;0.0
1831;0.0;0.0;0.0;0.2117919921875;-0.1668960005044937;1.1419199705123901;0.0;0.0;0.0
1834;0.08710800111293793;-0.01878799870610237;0.98990797996521;0.20788799226284027;-0.14347200095653534;1.1419199705123901;0.026250001043081284;0.23624998331069946;0.28437501192092896
1836;0.0;0.0;0.0;0.19227199256420135;-0.15908800065517426;1.1253279447555542;0.0;0.0;0.0
1838;0.0;0.0;0.0;0.19617599248886108;-0.13566400110721588;1.1370400190353394;0.0;0.0;0.0
1840;0.0;0.0;0.0;0.21569599211215973;-0.1512800008058548;1.1741279363632202;0.0;0.0;0.0
1842;0.08759599924087524;-0.01878799870610237;0.9894199967384338;0.21569599211215973;-0.1668960005044937;1.1331360340118408;0.026250001043081284;0.16624999046325684;0.28437501192092896
1844;0.0;0.0;0.0;0.19519999623298645;-0.1698240041732788;1.1380159854888916;0.0;0.0;0.0
1846;0.0;0.0;0.0;0.1756799966096878;-0.14640000462532043;1.1292319297790527;0.0;0.0;0.0
1848;0.0;0.0;0.0;0.19129599630832672;-0.17372798919677734;1.1380159854888916;0.0;0.0;0.0
1851;0.08759599924087524;-0.01903199963271618;0.9894199967384338;0.21081599593162537;-0.16201600432395935;1.1419199705123901;0.026250001043081284;0.16624999046325684;0.3543750047683716
1853;0.0;0.0;0.0;0.21081599593162537;-0.14640000462532043;1.1419199705123901;0.0;0.0;0.0
1855;0.0;0.0;0.0;0.21862399578094482;-0.15811198949813843;1.1497279405593872;0.0;0.0;0.0
1857;0.0;0.0;0.0;0.19129599630832672;-0.17763200402259827;1.1380159854888916;0.0;0.0;0.0
1859;0.08710800111293793;-0.01878799870610237;0.9896639585494995;0.22252799570560455;-0.14640000462532043;1.1253279447555542;0.09624999761581421;0.16187500953674316;0.2800000011920929
1861;0.0;0.0;0.0;0.1844639927148819;-0.1512800008058548;1.1536319255828857;0.0;0.0;0.0
1863;0.0;0.0;0.0;0.20788799226284027;-0.13176000118255615;1.1380159854888916;0.0;0.0;0.0
1865;0.0;0.0;0.0;0.2000799924135208;-0.1786080002784729;1.1214239597320557;0.0;0.0;0.0
1868;0.08808399736881256;-0.01878799870610237;0.9901520013809204;0.18836799263954163;-0.1668960005044937;1.1419199705123901;0.09624999761581421;0.16187500953674316;0.2800000011920929
1870;0.0;0.0;0.0;0.18836799263954163;-0.1668960005044937;1.1419199705123901;0.0;0.0;0.0
1872;0.0;0.0;0.0;0.18055999279022217;-0.15908800065517426;1.1419199705123901;0.0;0.0;0.0
1874;0.0;0.0;0.0;0.19227199256420135;-0.1395680010318756;1.1458239555358887;0.0;0.0;0.0
1876;0.08686399459838867;-0.018543999642133713;0.9901520013809204;0.1844639927148819;-0.15908800065517426;1.1370400190353394;0.09624999761581421;0.16187500953674316;0.2800000011920929
1878;0.0;0.0;0.0;0.17958399653434753;-0.1542080044746399;1.1419199705123901;0.0;0.0;0.0
1880;0.0;0.0;0.0;0.187391996383667;-0.13859200477600098;1.1497279405593872;0.0;0.0;0.0
1882;0.0;0.0;0.0;0.2030079960823059;-0.15811198949813843;1.1419199705123901;0.0;0.0;0.0
1885;0.08710800111293793;-0.01903199963271618;0.9901520013809204;0.20691199600696564;-0.16201600432395935;1.1292319297790527;0.09624999761581421;0.16187500953674316;0.27562499046325684
1887;0.0;0.0;0.0;0.187391996383667;-0.1542080044746399;1.1458239555358887;0.0;0.0;0.0
1889;0.0;0.0;0.0;0.19519999623298645;-0.115167997777462;1.1614400148391724;0.0;0.0;0.0
1891;0.0;0.0;0.0;0.187391996383667;-0.1424959897994995;1.1331360340118408;0.0;0.0;0.0
1893;0.08808399736881256;-0.018300000578165054;0.9896639585494995;0.16787199676036835;-0.16591998934745789;1.1009279489517212;0.09624999761581421;0.16187500953674316;0.27562499046325684
1895;0.0;0.0;0.0;0.2000799924135208;-0.15908800065517426;1.1380159854888916;0.0;0.0;0.0
1897;0.0;0.0;0.0;0.1844639927148819;-0.1395680010318756;1.1214239597320557;0.0;0.0;0.0
1899;0.0;0.0;0.0;0.16884799301624298;-0.17080000042915344;1.1497279405593872;0.0;0.0;0.0
1902;0.0878399983048439;-0.02000799961388111;0.9903959631919861;0.2000799924135208;-0.1395680010318756;1.1292319297790527;-0.04374999925494194;0.16187500953674316;0.27562499046325684
1904;0.0;0.0;0.0;0.20788799226284027;-0.14737600088119507;1.1575360298156738;0.0;0.0;0.0
1906;0.0;0.0;0.0;0.18836799263954163;-0.16299200057983398;1.1575360298156738;0.0;0.0;0.0
1908;0.0;0.0;0.0;0.17665599286556244;-0.15518400073051453;1.1331360340118408;0.0;0.0;0.0
1910;0.08808399736881256;-0.018543999642133713;0.98990797996521;0.1844639927148819;-0.1668960005044937;1.1292319297790527;0.09624999761581421;0.08750000596046448;0.27125000953674316
1912;0.0;0.0;0.0;0.2030079960823059;-0.15030398964881897;1.1292319297790527;0.0;0.0;0.0
1914;0.0;0.0;0.0;0.16396799683570862;-0.13078400492668152;1.1419199705123901;0.0;0.0;0.0
1916;0.0;0.0;0.0;0.187391996383667;-0.16201600432395935;1.1331360340118408;0.0;0.0;0.0
1919;0.08661999553442001;-0.01903199963271618;0.990884006023407;0.2030079960823059;-0.15030398964881897;1.1380159854888916;0.026250001043081284;0.22749999165534973;0.27125000953674316
1921;0.0;0.0;0.0;0.20691199600696564;-0.13078400492668152;1.1458239555358887;0.0;0.0;0.0
1923;0.0;0.0;0.0;0.19910399615764618;-0.15811198949813843;1.1419199705123901;0.0;0.0;0.0
1925;0.0;0.0;0.0;0.19129599630832672;-0.15030398964881897;1.1419199705123901;0.0;0.0;0.0
1927;0.08710800111293793;-0.018300000578165054;0.9901520013809204;0.19519999623298645;-0.15811198949813843;1.1458239555358887;0.09187500178813934;0.08750000596046448;0.3412500023841858
1929;0.0;0.0;0.0;0.21959999203681946;-0.14347200095653534;1.1575360298156738;0.0;0.0;0.0
1931;0.0;0.0;0.0;0.1844639927148819;-0.15908800065517426;1.1419199705123901;0.0;0.0;0.0
1933;0.0;0.0;0.0;0.20788799226284027;-0.15908800065517426;1.1331360340118408;0.0;0.0;0.0
1936;0.08759599924087524;-0.018543999642133713;0.9896639585494995;0.20398399233818054;-0.15518400073051453;1.1214239597320557;0.09187500178813934;0.1574999988079071;0.2668750286102295
1938;0.0;0.0;0.0;0.18055999279022217;-0.15518400073051453;1.1370400190353394;0.0;0.0;0.0
1940;0.0;0.0;0.0;0.19617599248886108;-0.14347200095653534;1.1663199663162231;0.0;0.0;0.0
1942;0.0;0.0;0.0;0.22740799188613892;-0.16299200057983398;1.1292319297790527;0.0;0.0;0.0
1944;0.08661999553442001;-0.01903199963271618;0.98990797996521;0.18836799263954163;-0.1668960005044937;1.1614400148391724;0.09187500178813934;0.1574999988079071;0.2668750286102295
1946;0.0;0.0;0.0;0.21862399578094482;-0.1815359890460968;1.1497279405593872;0.0;0.0;0.0
1948;0.0;0.0;0.0;0.19519999623298645;-0.1542080044746399;1.1497279405593872;0.0;0.0;0.0
1950;0.0;0.0;0.0;0.19910399615764618;-0.17372798919677734;1.1458239555358887;0.0;0.0;0.0
1953;0.08808399736881256;-0.01878799870610237;0.9896639585494995;0.187391996383667;-0.13468798995018005;1.1419199705123901;0.02187500149011612;0.08750000596046448;0.2668750286102295
1955;0.0;0.0;0.0;0.19129599630832672;-0.16201600432395935;1.1497279405593872;0.0;0.0;0.0
1957;0.0;0.0;0.0;0.17958399653434753;-0.1542080044746399;1.1458239555358887;0.0;0.0;0.0
1959;0.0;0.0;0.0;0.21862399578094482;-0.1542080044746399;1.1458239555358887;0.0;0.0;0.0
1961;0.08710800111293793;-0.01903199963271618;0.98990797996521;0.18348799645900726;-0.14640000462532043;1.1575360298156738;0.02187500149011612;0.1574999988079071;0.33249998092651367
1963;0.0;0.0;0.0;0.20788799226284027;-0.16299200057983398;1.1292319297790527;0.0;0.0;0.0
1965;0.0;0.0;0.0;0.18836799263954163;-0.16299200057983398;1.1331360340118408;0.0;0.0;0.0
1967;0.0;0.0;0.0;0.2235039919614792;-0.17470400035381317;1.1497279405593872;0.0;0.0;0.0
1970;0.08759599924087524;-0.018543999642133713;0.9891759753227234;0.18836799263954163;-0.14737600088119507;1.1614400148391724;0.02187500149011612;0.15312500298023224;0.26249998807907104
1972;0.0;0.0;0.0;0.19617599248886108;-0.1512800008058548;1.1497279405593872;0.0;0.0;0.0
1974;0.0;0.0;0.0;0.2000799924135208;-0.14737600088119507;1.1292319297790527;0.0;0.0;0.0
1976;0.0;0.0;0.0;0.18055999279022217;-0.15518400073051453;1.1370400190353394;0.0;0.0;0.0
1978;0.08832799643278122;-0.01903199963271618;0.9889319539070129;0.20398399233818054;-0.14737600088119507;1.1380159854888916;0.02187500149011612;0.15312500298023224;0.26249998807907104
1980;0.0;0.0;0.0;0.19227199256420135;-0.1786080002784729;1.1458239555358887;0.0;0.0;0.0
1982;0.0;0.0;0.0;0.18055999279022217;-0.15518400073051453;1.1497279405593872;0.0;0.0;0.0
1984;0.0;0.0;0.0;0.20398399233818054;-0.15518400073051453;1.1497279405593872;0.0;0.0;0.0
1987;0.08735200017690659;-0.01903199963271618;0.9894199967384338;0.20788799226284027;-0.14737600088119507;1.1419199705123901;0.02187500149011612;0.15312500298023224;0.26249998807907104
1989;0.0;0.0;0.0;0.19227199256420135;-0.15908800065517426;1.1497279405593872;0.0;0.0;0.0
1991;0.0;0.0;0.0;0.19227199256420135;-0.1512800008058548;1.1087360382080078;0.0;0.0;0.0
1993;0.0;0.0;0.0;0.20788799226284027;-0.1395680010318756;1.1536319255828857;0.0;0.0;0.0
1995;0.08759599924087524;-0.019519999623298645;0.9889319539070129;0.17665599286556244;-0.15908800065517426;1.1331360340118408;0.02187500149011612;0.15312500298023224;0.2581250071525574
1997;0.0;0.0;0.0;0.19227199256420135;-0.18251200020313263;1.1419199705123901;0.0;0.0;0.0
1999;0.0;0.0;0.0;0.19227199256420135;-0.15908800065517426;1.1292319297790527;0.0;0.0;0.0
2002;0.0;0.0;0.0;0.20788799226284027;-0.14737600088119507;1.1458239555358887;0.0;0.0;0.0
2004;0.08735200017690659;-0.019276000559329987;0.9891759753227234;0.20398399233818054;-0.13566400110721588;1.1536319255828857;0.02187500149011612;0.15312500298023224;0.328125
2006;0.0;0.0;0.0;0.17665599286556244;-0.14737600088119507;1.1380159854888916;0.0;0.0;0.0
2008;0.0;0.0;0.0;0.18055999279022217;-0.15908800065517426;1.1419199705123901;0.0;0.0;0.0
2010;0.0;0.0;0.0;0.1844639927148819;-0.1512800008058548;1.1380159854888916;0.0;0.0;0.0
2012;0.08710800111293793;-0.01903199963271618;0.9891759753227234;0.19617599248886108;-0.15518400073051453;1.1214239597320557;0.09187500178813934;0.14875000715255737;0.2581250071525574
2014;0.0;0.0;0.0;0.19129599630832672;-0.1698240041732788;1.1575360298156738;0.0;0.0;0.0
2017;0.0;0.0;0.0;0.20691199600696564;-0.1424959897994995;1.1419199705123901;0.0;0.0;0.0
2019;0.0;0.0;0.0;0.21081599593162537;-0.14640000462532043;1.1380159854888916;0.0;0.0;0.0
2021;0.08735200017690659;-0.019519999623298645;0.9906399846076965;0.187391996383667;-0.16591998934745789;1.1575360298156738;0.09187500178813934;0.14875000715255737;0.2537500262260437
2023;0.0;0.0;0.0;0.1756799966096878;-0.1424959897994995;1.1458239555358887;0.0;0.0;0.0
2025;0.0;0.0;0.0;0.19129599630832672;-0.1542080044746399;1.1419199705123901;0.0;0.0;0.0
2027;0.0;0.0;0.0;0.2030079960823059;-0.1542080044746399;1.1497279405593872;0.0;0.0;0.0
2029;0.08759599924087524;-0.01878799870610237;0.9891759753227234;0.19519999623298645;-0.1698240041732788;1.1370400190353394;0.09187500178813934;0.14875000715255737;0.2537500262260437
2031;0.0;0.0;0.0;0.19617599248886108;-0.1512800008058548;1.1624159812927246;0.0;0.0;0.0
2033;0.0;0.0;0.0;0.20788799226284027;-0.1512800008058548;1.1380159854888916;0.0;0.0;0.0
2036;0.0;0.0;0.0;0.19617599248886108;-0.1512800008058548;1.1380159854888916;0.0;0.0;0.0
2038;0.08637599647045135;-0.01878799870610237;0.98990797996521;0.19617599248886108;-0.17470400035381317;1.1536319255828857;0.09187500178813934;0.14875000715255737;0.2537500262260437
2040;0.0;0.0;0.0;0.19227199256420135;-0.13176000118255615;1.1136159896850586;0.0;0.0;0.0
2042;0.0;0.0;0.0;0.2000799924135208;-0.1668960005044937;1.1380159854888916;0.0;0.0;0.0
2044;0.0;0.0;0.0;0.19227199256420135;-0.15518400073051453;1.1536319255828857;0.0;0.0;0.0
2046;0.08686399459838867;-0.01878799870610237;0.9896639585494995;0.20788799226284027;-0.13176000118255615;1.1458239555358887;0.09187500178813934;0.07875001430511475;0.24937501549720764
2048;0.0;0.0;0.0;0.21081599593162537;-0.15811198949813843;1.1702239513397217;0.0;0.0;0.0
2050;0.0;0.0;0.0;0.1571359932422638;-0.1542080044746399;1.1331360340118408;0.0;0.0;0.0
2053;0.0;0.0;0.0;0.19129599630832672;-0.1542080044746399;1.1458239555358887;0.0;0.0;0.0
2055;0.08759599924087524;-0.018543999642133713;0.9891759753227234;0.19519999623298645;-0.15811198949813843;1.1458239555358887;0.02187500149011612;0.14875000715255737;0.24937501549720764
2057;0.0;0.0;0.0;0.2030079960823059;-0.1424959897994995;1.1419199705123901;0.0;0.0;0.0
2059;0.0;0.0;0.0;0.2030079960823059;-0.14640000462532043;1.1419199705123901;0.0;0.0;0.0
2061;0.0;0.0;0.0;0.19910399615764618;-0.16201600432395935;1.1497279405593872;0.0;0.0;0.0
2063;0.08710800111293793;-0.01903199963271618;0.9891759753227234;0.19519999623298645;-0.15030398964881897;1.1380159854888916;0.02187500149011612;0.14875000715255737;0.24937501549720764
2065;0.0;0.0;0.0;0.2000799924135208;-0.1395680010318756;1.1331360340118408;0.0;0.0;0.0
2067;0.0;0.0;0.0;0.19617599248886108;-0.15518400073051453;1.1214239597320557;0.0;0.0;0.0
2070;0.0;0.0;0.0;0.17665599286556244;-0.17080000042915344;1.1536319255828857;0.0;0.0;0.0
2072;0.08759599924087524;-0.01903199963271618;0.9901520013809204;0.2000799924135208;-0.17080000042915344;1.1497279405593872;0.02187500149011612;0.1443749964237213;0.24937501549720764
2074;0.0;0.0;0.0;0.20788799226284027;-0.15908800065517426;1.1419199705123901;0.0;0.0;0.0
2076;0.0;0.0;0.0;0.20398399233818054;-0.14347200095653534;1.1419199705123901;0.0;0.0;0.0
2078;0.0;0.0;0.0;0.16103999316692352;-0.13566400110721588;1.1497279405593872;0.0;0.0;0.0
2080;0.08710800111293793;-0.01878799870610237;0.98990797996521;0.2000799924135208;-0.1512800008058548;1.1614400148391724;0.08749999850988388;0.1443749964237213;0.17500001192092896
2082;0.0;0.0;0.0;0.18836799263954163;-0.16299200057983398;1.1458239555358887;0.0;0.0;0.0
2084;0.0;0.0;0.0;0.19227199256420135;-0.1512800008058548;1.1370400190353394;0.0;0.0;0.0
2087;0.0;0.0;0.0;0.19227199256420135;-0.1512800008058548;1.1614400148391724;0.0;0.0;0.0
2089;0.08710800111293793;-0.01878799870610237;0.9889319539070129;0.1727519929409027;-0.13566400110721588;1.1419199705123901;0.017499998211860657;0.07437500357627869;0.24500000476837158
2091;0.0;0.0;0.0;0.19617599248886108;-0.14347200095653534;1.1614400148391724;0.0;0.0;0.0
2093;0.0;0.0;0.0;0.19227199256420135;-0.16299200057983398;1.1497279405593872;0.0;0.0;0.0
2095;0.0;0.0;0.0;0.20788799226284027;-0.11614400148391724;1.1702239513397217;0.0;0.0;0.0
2097;0.08735200017690659;-0.01878799870610237;0.9894199967384338;0.1844639927148819;-0.15908800065517426;1.1780319213867188;0.017499998211860657;0.07437500357627869;0.24500000476837158
2100;0.0;0.0;0.0;0.20788799226284027;-0.15908800065517426;1.1419199705123901;0.0;0.0;0.0
2101;0.0;0.0;0.0;0.2117919921875;-0.1512800008058548;1.1380159854888916;0.0;0.0;0.0
2104;0.0;0.0;0.0;0.19617599248886108;-0.1512800008058548;1.1497279405593872;0.0;0.0;0.0
2106;0.08759599924087524;-0.01903199963271618;0.9894199967384338;0.20398399233818054;-0.12785600125789642;1.1575360298156738;0.08749999850988388;0.1443749964237213;0.24062500894069672
2108;0.0;0.0;0.0;0.1844639927148819;-0.1668960005044937;1.1536319255828857;0.0;0.0;0.0
2110;0.0;0.0;0.0;0.2000799924135208;-0.14737600088119507;1.1458239555358887;0.0;0.0;0.0
2112;0.0;0.0;0.0;0.18055999279022217;-0.17080000042915344;1.1253279447555542;0.0;0.0;0.0
2114;0.0878399983048439;-0.019519999623298645;0.98990797996521;0.19227199256420135;-0.14737600088119507;1.1331360340118408;0.08749999850988388;0.07437500357627869;0.24062500894069672
2116;0.0;0.0;0.0;0.19519999623298645;-0.1542080044746399;1.1380159854888916;0.0;0.0;0.0
2118;0.0;0.0;0.0;0.18348799645900726;-0.1698240041732788;1.1331360340118408;0.0;0.0;0.0
2121;0.0;0.0;0.0;0.187391996383667;-0.14640000462532043;1.1536319255828857;0.0;0.0;0.0
2123;0.08759599924087524;-0.018543999642133713;0.9896639585494995;0.19519999623298645;-0.12297599762678146;1.1331360340118408;0.017499998211860657;0.1443749964237213;0.24062500894069672
2125;0.0;0.0;0.0;0.21081599593162537;-0.16591998934745789;1.1536319255828857;0.0;0.0;0.0
2127;0.0;0.0;0.0;0.187391996383667;-0.16201600432395935;1.1380159854888916;0.0;0.0;0.0
2129;0.0;0.0;0.0;0.19519999623298645;-0.14640000462532043;1.1497279405593872;0.0;0.0;0.0
2131;0.08759599924087524;-0.019276000559329987;0.9894199967384338;0.21081599593162537;-0.14640000462532043;1.1497279405593872;0.017499998211860657;0.07437500357627869;0.24062500894069672
2134;0.0;0.0;0.0;0.19227199256420135;-0.16299200057983398;1.1419199705123901;0.0;0.0;0.0
2135;0.0;0.0;0.0;0.16494399309158325;-0.1395680010318756;1.1575360298156738;0.0;0.0;0.0
2138;0.0;0.0;0.0;0.21569599211215973;-0.13566400110721588;1.1458239555358887;0.0;0.0;0.0
2140;0.08759599924087524;-0.01903199963271618;0.9889319539070129;0.18836799263954163;-0.1786080002784729;1.1614400148391724;0.08749999850988388;0.14000000059604645;0.23625001311302185
2142;0.0;0.0;0.0;0.19227199256420135;-0.14737600088119507;1.1419199705123901;0.0;0.0;0.0
2144;0.0;0.0;0.0;0.21569599211215973;-0.1512800008058548;1.1458239555358887;0.0;0.0;0.0
2146;0.0;0.0;0.0;0.1844639927148819;-0.16299200057983398;1.1380159854888916;0.0;0.0;0.0
2148;0.08759599924087524;-0.019519999623298645;0.9894199967384338;0.18836799263954163;-0.1512800008058548;1.1575360298156738;0.08749999850988388;0.07000000774860382;0.23625001311302185
2151;0.0;0.0;0.0;0.21569599211215973;-0.14347200095653534;1.1458239555358887;0.0;0.0;0.0
2153;0.0;0.0;0.0;0.19617599248886108;-0.16299200057983398;1.1331360340118408;0.0;0.0;0.0
2155;0.0;0.0;0.0;0.20398399233818054;-0.1668960005044937;1.1292319297790527;0.0;0.0;0.0
2157;0.08759599924087524;-0.019763998687267303;0.9901520013809204;0.16103999316692352;-0.1668960005044937;1.1536319255828857;0.1574999988079071;0.07000000774860382;0.23625001311302185
2159;0.0;0.0;0.0;0.2000799924135208;-0.13176000118255615;1.1380159854888916;0.0;0.0;0.0
2161;0.0;0.0;0.0;0.20788799226284027;-0.14737600088119507;1.1497279405593872;0.0;0.0;0.0
2163;0.0;0.0;0.0;0.18055999279022217;-0.14737600088119507;1.1253279447555542;0.0;0.0;0.0
2165;0.08832799643278122;-0.01903199963271618;0.98990797996521;0.17665599286556244;-0.1512800008058548;1.1419199705123901;0.08749999850988388;0.14000000059604645;0.23625001311302185
2168;0.0;0.0;0.0;0.18836799263954163;-0.1395680010318756;1.1497279405593872;0.0;0.0;0.0
2170;0.0;0.0;0.0;0.20398399233818054;-0.1395680010318756;1.1380159854888916;0.0;0.0;0.0
2172;0.0;0.0;0.0;0.19617599248886108;-0.15518400073051453;1.1536319255828857;0.0;0.0;0.0
2174;0.08710800111293793;-0.019276000559329987;0.9903959631919861;0.2000799924135208;-0.1668960005044937;1.1380159854888916;0.017499998211860657;0.14000000059604645;0.2318750023841858
2176;0.0;0.0;0.0;0.18836799263954163;-0.15518400073051453;1.1575360298156738;0.0;0.0;0.0
2178;0.0;0.0;0.0;0.17665599286556244;-0.1395680010318756;1.1536319255828857;0.0;0.0;0.0
2180;0.0;0.0;0.0;0.20788799226284027;-0.14737600088119507;1.1497279405593872;0.0;0.0;0.0
2182;0.08759599924087524;-0.01878799870610237;0.9894199967384338;0.18836799263954163;-0.14737600088119507;1.1575360298156738;0.08749999850988388;0.07000000774860382;0.2318750023841858
2185;0.0;0.0;0.0;0.18055999279022217;-0.1512800008058548;1.1253279447555542;0.0;0.0;0.0
2187;0.0;0.0;0.0;0.2000799924135208;-0.14347200095653534;1.1458239555358887;0.0;0.0;0.0
2189;0.0;0.0;0.0;0.19617599248886108;-0.14347200095653534;1.1331360340118408;0.0;0.0;0.0
2191;0.0878399983048439;-0.01903199963271618;0.9886879920959473;0.17665599286556244;-0.14347200095653534;1.1380159854888916;0.017499998211860657;0.14000000059604645;0.2318750023841858
2193;0.0;0.0;0.0;0.19617599248886108;-0.15518400073051453;1.1292319297790527;0.0;0.0;0.0
2195;0.0;0.0;0.0;0.18055999279022217;-0.15908800065517426;1.1458239555358887;0.0;0.0;0.0
2197;0.0;0.0;0.0;0.1727519929409027;-0.14737600088119507;1.1380159854888916;0.0;0.0;0.0
2199;0.08759599924087524;-0.01878799870610237;0.9903959631919861;0.20398399233818054;-0.1512800008058548;1.1458239555358887;0.017499998211860657;0.13562500476837158;0.29750001430511475
2202;0.0;0.0;0.0;0.17177599668502808;-0.1542080044746399;1.1292319297790527;0.0;0.0;0.0
2204;0.0;0.0;0.0;0.21081599593162537;-0.15030398964881897;1.1331360340118408;0.0;0.0;0.0
2206;0.0;0.0;0.0;0.19129599630832672;-0.1424959897994995;1.1624159812927246;0.0;0.0;0.0
2208;0.08735200017690659;-0.019276000559329987;0.9889319539070129;0.2030079960823059;-0.16591998934745789;1.1419199705123901;0.08312499523162842;0.06562501192092896;0.22750002145767212
2210;0.0;0.0;0.0;0.21081599593162537;-0.16591998934745789;1.1419199705123901;0.0;0.0;0.0
2212;0.0;0.0;0.0;0.19910399615764618;-0.1542080044746399;1.1419199705123901;0.0;0.0;0.0
2214;0.0;0.0;0.0;0.1756799966096878;-0.13859200477600098;1.1331360340118408;0.0;0.0;0.0
2216;0.0878399983048439;-0.018543999642133713;0.9903959631919861;0.18348799645900726;-0.13078400492668152;1.1292319297790527;0.08312499523162842;0.13562500476837158;0.22750002145767212
2219;0.0;0.0;0.0;0.2117919921875;-0.14347200095653534;1.1419199705123901;0.0;0.0;0.0
2221;0.0;0.0;0.0;0.21569599211215973;-0.12785600125789642;1.1575360298156738;0.0;0.0;0.0
2223;0.0;0.0;0.0;0.19227199256420135;-0.16299200057983398;1.1331360340118408;0.0;0.0;0.0
2225;0.08686399459838867;-0.019276000559329987;0.9896639585494995;0.18836799263954163;-0.13176000118255615;1.1536319255828857;0.08312499523162842;0.2056249976158142;0.29750001430511475
2227;0.0;0.0;0.0;0.18836799263954163;-0.15518400073051453;1.1614400148391724;0.0;0.0;0.0
2229;0.0;0.0;0.0;0.20788799226284027;-0.1512800008058548;1.1458239555358887;0.0;0.0;0.0
2231;0.0;0.0;0.0;0.18055999279022217;-0.1395680010318756;1.1419199705123901;0.0;0.0;0.0
2233;0.08808399736881256;-0.01903199963271618;0.9894199967384338;0.20398399233818054;-0.14737600088119507;1.1380159854888916;0.15312500298023224;0.06562501192092896;0.22312501072883606
2236;0.0;0.0;0.0;0.19227199256420135;-0.15908800065517426;1.1175199747085571;0.0;0.0;0.0
2238;0.0;0.0;0.0;0.21569599211215973;-0.16299200057983398;1.1331360340118408;0.0;0.0;0.0
2240;0.0;0.0;0.0;0.2000799924135208;-0.1512800008058548;1.1370400190353394;0.0;0.0;0.0
2242;0.08710800111293793;-0.01903199963271618;0.98990797996521;0.16494399309158325;-0.15518400073051453;1.1292319297790527;0.08312499523162842;0.13562500476837158;0.22312501072883606
2244;0.0;0.0;0.0;0.19617599248886108;-0.17470400035381317;1.1370400190353394;0.0;0.0;0.0
2246;0.0;0.0;0.0;0.20398399233818054;-0.15518400073051453;1.1331360340118408;0.0;0.0;0.0
2248;0.0;0.0;0.0;0.20398399233818054;-0.17080000042915344;1.1253279447555542;0.0;0.0;0.0
2250;0.08710800111293793;-0.019276000559329987;0.98990797996521;0.18055999279022217;-0.1395680010318756;1.1214239597320557;0.08312499523162842;0.13562500476837158;0.22312501072883606
2253;0.0;0.0;0.0;0.20398399233818054;-0.1395680010318756;1.1497279405593872;0.0;0.0;0.0
2255;0.0;0.0;0.0;0.19227199256420135;-0.1395680010318756;1.1331360340118408;0.0;0.0;0.0
2257;0.0;0.0;0.0;0.18836799263954163;-0.14347200095653534;1.1458239555358887;0.0;0.0;0.0
2259;0.08808399736881256;-0.019276000559329987;0.9886879920959473;0.18836799263954163;-0.1395680010318756;1.1575360298156738;0.08312499523162842;0.13124999403953552;0.22312501072883606
2261;0.0;0.0;0.0;0.21569599211215973;-0.1512800008058548;1.1536319255828857;0.0;0.0;0.0
2263;0.0;0.0;0.0;0.16494399309158325;-0.1512800008058548;1.1497279405593872;0.0;0.0;0.0
2265;0.0;0.0;0.0;0.20788799226284027;-0.1512800008058548;1.1614400148391724;0.0;0.0;0.0
2267;0.08735200017690659;-0.019276000559329987;0.9891759753227234;0.19617599248886108;-0.15518400073051453;1.1331360340118408;0.08312499523162842;0.061250001192092896;0.21875
2270;0.0;0.0;0.0;0.2000799924135208;-0.14347200095653534;1.1458239555358887;0.0;0.0;0.0
2272;0.0;0.0;0.0;0.20788799226284027;-0.1512800008058548;1.1292319297790527;0.0;0.0;0.0
2274;0.0;0.0;0.0;0.1844639927148819;-0.14737600088119507;1.1497279405593872;0.0;0.0;0.0
2276;0.08735200017690659;-0.01903199963271618;0.98990797996521;0.19617599248886108;-0.14347200095653534;1.1380159854888916;0.08312499523162842;0.13124999403953552;0.21875
2278;0.0;0.0;0.0;0.19227199256420135;-0.17080000042915344;1.1419199705123901;0.0;0.0;0.0
2280;0.0;0.0;0.0;0.19617599248886108;-0.15908800065517426;1.1419199705123901;0.0;0.0;0.0
2282;0.0;0.0;0.0;0.19617599248886108;-0.18641600012779236;1.1497279405593872;0.0;0.0;0.0
2284;0.0878399983048439;-0.019276000559329987;0.9886879920959473;0.19227199256420135;-0.14737600088119507;1.1419199705123901;0.08312499523162842;0.13124999403953552;0.21875
2287;0.0;0.0;0.0;0.2000799924135208;-0.1668960005044937;1.1497279405593872;0.0;0.0;0.0
2289;0.0;0.0;0.0;0.2117919921875;-0.1395680010318756;1.1331360340118408;0.0;0.0;0.0
2291;0.0;0.0;0.0;0.1844639927148819;-0.15518400073051453;1.1497279405593872;0.0;0.0;0.0
2293;0.08686399459838867;-0.019276000559329987;0.9894199967384338;0.1844639927148819;-0.1786080002784729;1.1419199705123901;0.07874999940395355;0.061250001192092896;0.21875
2295;0.0;0.0;0.0;0.20788799226284027;-0.1512800008058548;1.1458239555358887;0.0;0.0;0.0
2297;0.0;0.0;0.0;0.1844639927148819;-0.1668960005044937;1.1458239555358887;0.0;0.0;0.0
2299;0.0;0.0;0.0;0.2000799924135208;-0.15908800065517426;1.1702239513397217;0.0;0.0;0.0
2301;0.0878399983048439;-0.018300000578165054;0.9894199967384338;0.18836799263954163;-0.15518400073051453;1.1292319297790527;0.008749999105930328;0.13124999403953552;0.28437501192092896
2304;0.0;0.0;0.0;0.21569599211215973;-0.1668960005044937;1.1419199705123901;0.0;0.0;0.0
2306;0.0;0.0;0.0;0.21569599211215973;-0.1512800008058548;1.1419199705123901;0.0;0.0;0.0
2308;0.0;0.0;0.0;0.2000799924135208;-0.15908800065517426;1.1614400148391724;0.0;0.0;0.0
2310;0.0861319974064827;-0.019519999623298645;0.9896639585494995;0.18836799263954163;-0.15518400073051453;1.1458239555358887;0.07874999940395355;0.20124998688697815;0.1443750262260437
2312;0.0;0.0;0.0;0.2000799924135208;-0.14737600088119507;1.1419199705123901;0.0;0.0;0.0
2314;0.0;0.0;0.0;0.2117919921875;-0.13566400110721588;1.1380159854888916;0.0;0.0;0.0
2316;0.0;0.0;0.0;0.20398399233818054;-0.14347200095653534;1.1419199705123901;0.0;0.0;0.0
2318;0.08759599924087524;-0.01878799870610237;0.9896639585494995;0.19617599248886108;-0.16299200057983398;1.1419199705123901;0.07874999940395355;0.13124999403953552;0.21437501907348633
2321;0.0;0.0;0.0;0.2117919921875;-0.1786080002784729;1.1536319255828857;0.0;0.0;0.0
2323;0.0;0.0;0.0;0.1844639927148819;-0.15908800065517426;1.1575360298156738;0.0;0.0;0.0
2325;0.0;0.0;0.0;0.16884799301624298;-0.17470400035381317;1.1458239555358887;0.0;0.0;0.0
2327;0.08735200017690659;-0.01878799870610237;0.9896639585494995;0.18836799263954163;-0.1395680010318756;1.1497279405593872;0.008749999105930328;0.12687499821186066;0.28437501192092896
2329;0.0;0.0;0.0;0.16103999316692352;-0.16299200057983398;1.1536319255828857;0.0;0.0;0.0
2331;0.0;0.0;0.0;0.18836799263954163;-0.1512800008058548;1.1253279447555542;0.0;0.0;0.0
2333;0.0;0.0;0.0;0.2000799924135208;-0.15518400073051453;1.1458239555358887;0.0;0.0;0.0
2335;0.08710800111293793;-0.018543999642133713;0.98990797996521;0.2000799924135208;-0.14347200095653534;1.1575360298156738;-0.061250001192092896;0.12687499821186066;0.14000001549720764
2338;0.0;0.0;0.0;0.20788799226284027;-0.11224000155925751;1.1370400190353394;0.0;0.0;0.0
2340;0.0;0.0;0.0;0.2000799924135208;-0.17080000042915344;1.1331360340118408;0.0;0.0;0.0
2342;0.0;0.0;0.0;0.20788799226284027;-0.15518400073051453;1.1497279405593872;0.0;0.0;0.0
2344;0.08710800111293793;-0.01878799870610237;0.9896639585494995;0.19227199256420135;-0.14347200095653534;1.1419199705123901;0.07874999940395355;0.12687499821186066;0.21000000834465027
2346;0.0;0.0;0.0;0.20788799226284027;-0.14737600088119507;1.1458239555358887;0.0;0.0;0.0
2348;0.0;0.0;0.0;0.19227199256420135;-0.13566400110721588;1.1380159854888916;0.0;0.0;0.0
2350;0.0;0.0;0.0;0.20398399233818054;-0.17080000042915344;1.1331360340118408;0.0;0.0;0.0
2352;0.08735200017690659;-0.01878799870610237;0.9896639585494995;0.21569599211215973;-0.14347200095653534;1.1458239555358887;0.07874999940395355;0.12687499821186066;0.21000000834465027
2355;0.0;0.0;0.0;0.2147199958562851;-0.13859200477600098;1.1458239555358887;0.0;0.0;0.0
2357;0.0;0.0;0.0;0.19519999623298645;-0.16201600432395935;1.1614400148391724;0.0;0.0;0.0
2359;0.0;0.0;0.0;0.19129599630832672;-0.16591998934745789;1.1663199663162231;0.0;0.0;0.0
2361;0.08808399736881256;-0.019519999623298645;0.98990797996521;0.18348799645900726;-0.1424959897994995;1.1458239555358887;0.07874999940395355;0.12687499821186066;0.21000000834465027
2363;0.0;0.0;0.0;0.1756799966096878;-0.1542080044746399;1.1458239555358887;0.0;0.0;0.0
2365;0.0;0.0;0.0;0.18348799645900726;-0.1698240041732788;1.1575360298156738;0.0;0.0;0.0
2367;0.0;0.0;0.0;0.20691199600696564;-0.15811198949813843;1.1419199705123901;0.0;0.0;0.0
2369;0.08661999553442001;-0.01878799870610237;0.98990797996521;0.19519999623298645;-0.16201600432395935;1.1614400148391724;0.07874999940395355;0.12687499821186066;0.2056249976158142
2372;0.0;0.0;0.0;0.2000799924135208;-0.1668960005044937;1.1419199705123901;0.0;0.0;0.0
2374;0.0;0.0;0.0;0.2000799924135208;-0.14347200095653534;1.1497279405593872;0.0;0.0;0.0
2376;0.0;0.0;0.0;0.2000799924135208;-0.1395680010318756;1.1536319255828857;0.0;0.0;0.0
