Timestamp(ms);LG-Accel x(g);LG-Accel y(g);LG-Accel z(g);HG-Accel x(g);HG-Accel y(g);HG-Accel z(g);Gyro x(dps);Gyro y(dps);Gyro z(dps)
65;0.0;0.0;0.0;0.18934398889541626;-0.1571359932422638;1.1438720226287842;0.0;0.0;0.0
68;0.0;0.0;0.0;0.20495998859405518;-0.13371199369430542;1.1516799926757812;0.0;0.0;0.0
70;0.0;0.0;0.0;0.19324800372123718;-0.13761599361896515;1.1477760076522827;0.0;0.0;0.0
72;0.0;0.0;0.0;0.1815359890460968;-0.14932799339294434;1.139967918395996;0.0;0.0;0.0
74;0.0;0.0;0.0;0.18251200020313263;-0.16494399309158325;1.1233760118484497;0.0;0.0;0.0
76;0.0;0.0;0.0;0.20495998859405518;-0.1668960005044937;1.140944004058838;0.0;0.0;0.0
78;0.0;0.0;0.0;0.19324800372123718;-0.16299200057983398;1.156559944152832;0.0;0.0;0.0
80;0.0;0.0;0.0;0.2088640034198761;-0.14737600088119507;1.148751974105835;0.0;0.0;0.0
82;0.08588799834251404;-0.019519999623298645;0.9891759753227234;0.18934398889541626;-0.16299200057983398;1.140944004058838;0.0;0.0;0.0
85;0.0;0.0;0.0;0.18934398889541626;-0.14737600088119507;1.1204479932785034;0.0;0.0;0.0
87;0.0;0.0;0.0;0.18934398889541626;-0.1395680010318756;1.1448479890823364;0.0;0.0;0.0
89;0.0;0.0;0.0;0.18544000387191772;-0.16299200057983398;1.156559944152832;0.0;0.0;0.0
91;0.08417999744415283;-0.02000799961388111;0.9901520013809204;0.19324800372123718;-0.1668960005044937;1.132159948348999;0.0;0.0;0.0
93;0.0;0.0;0.0;0.19617599248886108;-0.14347200095653534;1.140944004058838;0.0;0.0;0.0
95;0.0;0.0;0.0;0.17665599286556244;-0.15908800065517426;1.140944004058838;0.0;0.0;0.0
97;0.0;0.0;0.0;0.17665599286556244;-0.13566400110721588;1.1370400190353394;0.0;0.0;0.0
99;0.0849120020866394;-0.02000799961388111;0.9906399846076965;0.1844639927148819;-0.1512800008058548;1.132159948348999;0.0;0.0;0.0
102;0.0;0.0;0.0;0.19617599248886108;-0.14347200095653534;1.140944004058838;0.0;0.0;0.0
104;0.0;0.0;0.0;0.21569599211215973;-0.17470400035381317;1.1448479890823364;0.0;0.0;0.0
106;0.0;0.0;0.0;0.2000799924135208;-0.15908800065517426;1.124351978302002;0.0;0.0;0.0
108;0.08540000021457672;-0.02000799961388111;0.9891759753227234;0.21959999203681946;-0.12785600125789642;1.1526559591293335;0.0;0.0;0.0
110;0.0;0.0;0.0;0.20495998859405518;-0.17470400035381317;1.148751974105835;0.0;0.0;0.0
112;0.0;0.0;0.0;0.1815359890460968;-0.16299200057983398;1.1370400190353394;0.0;0.0;0.0
114;0.0;0.0;0.0;0.19715198874473572;-0.15518400073051453;1.1282559633255005;0.0;0.0;0.0
116;0.08393599838018417;-0.019763998687267303;0.9901520013809204;0.19324800372123718;-0.1395680010318756;1.148751974105835;0.0;0.0;0.0
119;0.0;0.0;0.0;0.20105600357055664;-0.15908800065517426;1.140944004058838;0.0;0.0;0.0
121;0.0;0.0;0.0;0.2088640034198761;-0.16299200057983398;1.1360639333724976;0.0;0.0;0.0
123;0.0;0.0;0.0;0.19715198874473572;-0.1512800008058548;1.1282559633255005;0.0;0.0;0.0
125;0.0832040011882782;-0.020495999604463577;0.9906399846076965;0.18934398889541626;-0.16299200057983398;1.1526559591293335;0.07000000029802322;0.21000000834465027;0.49000000953674316
127;0.0;0.0;0.0;0.18544000387191772;-0.16299200057983398;1.1770559549331665;0.0;0.0;0.0
129;0.0;0.0;0.0;0.20105600357055664;-0.13566400110721588;1.165343999862671;0.0;0.0;0.0
131;0.0;0.0;0.0;0.18544000387191772;-0.1512800008058548;1.1370400190353394;0.0;0.0;0.0
133;0.08369199931621552;-0.02025200054049492;0.9889319539070129;0.20105600357055664;-0.15518400073051453;1.1165440082550049;0.14000000059604645;0.14000000059604645;0.5600000023841858
136;0.0;0.0;0.0;0.20495998859405518;-0.17470400035381317;1.148751974105835;0.0;0.0;0.0
138;0.0;0.0;0.0;0.19324800372123718;-0.15518400073051453;1.156559944152832;0.0;0.0;0.0
140;0.0;0.0;0.0;0.19715198874473572;-0.13176000118255615;1.1360639333724976;0.0;0.0;0.0
142;0.0849120020866394;-0.019519999623298645;0.9884439706802368;0.21276798844337463;-0.1786080002784729;1.1282559633255005;0.07000000029802322;0.21000000834465027;0.5600000023841858
144;0.0;0.0;0.0;0.18836799263954163;-0.15518400073051453;1.1370400190353394;0.0;0.0;0.0
146;0.0;0.0;0.0;0.20788799226284027;-0.12785600125789642;1.1165440082550049;0.0;0.0;0.0
148;0.0;0.0;0.0;0.2000799924135208;-0.13566400110721588;1.1526559591293335;0.0;0.0;0.0
151;0.08588799834251404;-0.020495999604463577;0.9889319539070129;0.19227199256420135;-0.14737600088119507;1.148751974105835;0.07000000029802322;0.3499999940395355;0.5600000023841858
153;0.0;0.0;0.0;0.19617599248886108;-0.1395680010318756;1.1526559591293335;0.0;0.0;0.0
155;0.0;0.0;0.0;0.20788799226284027;-0.16299200057983398;1.1448479890823364;0.0;0.0;0.0
157;0.0;0.0;0.0;0.20788799226284027;-0.13566400110721588;1.156559944152832;0.0;0.0;0.0
159;0.08442399650812149;-0.02147199958562851;0.98990797996521;0.19227199256420135;-0.16299200057983398;1.1282559633255005;0.0;0.3499999940395355;0.49000000953674316
161;0.0;0.0;0.0;0.19715198874473572;-0.1512800008058548;1.148751974105835;0.0;0.0;0.0
163;0.0;0.0;0.0;0.18544000387191772;-0.1668960005044937;1.140944004058838;0.0;0.0;0.0
165;0.0;0.0;0.0;0.21276798844337463;-0.17080000042915344;1.1448479890823364;0.0;0.0;0.0
168;0.08369199931621552;-0.020739998668432236;0.9911279678344727;0.20105600357055664;-0.14347200095653534;1.1282559633255005;0.14000000059604645;0.21000000834465027;0.49000000953674316
170;0.0;0.0;0.0;0.20495998859405518;-0.14347200095653534;1.1204479932785034;0.0;0.0;0.0
172;0.0;0.0;0.0;0.20105600357055664;-0.16299200057983398;1.156559944152832;0.0;0.0;0.0
174;0.0;0.0;0.0;0.19715198874473572;-0.1512800008058548;1.1526559591293335;0.0;0.0;0.0
176;0.0861319974064827;-0.019519999623298645;0.9894199967384338;0.18544000387191772;-0.1668960005044937;1.132159948348999;0.14000000059604645;0.21000000834465027;0.49000000953674316
178;0.0;0.0;0.0;0.18055999279022217;-0.1512800008058548;1.156559944152832;0.0;0.0;0.0
180;0.0;0.0;0.0;0.17665599286556244;-0.17080000042915344;1.1360639333724976;0.0;0.0;0.0
182;0.0;0.0;0.0;0.19227199256420135;-0.15518400073051453;1.148751974105835;0.0;0.0;0.0
185;0.08515600115060806;-0.020739998668432236;0.9879559874534607;0.19617599248886108;-0.16299200057983398;1.1282559633255005;0.14000000059604645;0.21000000834465027;0.49000000953674316
187;0.0;0.0;0.0;0.16884799301624298;-0.1512800008058548;1.1204479932785034;0.0;0.0;0.0
189;0.0;0.0;0.0;0.19617599248886108;-0.14737600088119507;1.124351978302002;0.0;0.0;0.0
191;0.0;0.0;0.0;0.19617599248886108;-0.14347200095653534;1.1204479932785034;0.0;0.0;0.0
193;0.08540000021457672;-0.019519999623298645;0.9882000088691711;0.20788799226284027;-0.14347200095653534;1.1448479890823364;0.14000000059604645;0.3499999940395355;0.49000000953674316
195;0.0;0.0;0.0;0.2000799924135208;-0.14737600088119507;1.1526559591293335;0.0;0.0;0.0
197;0.0;0.0;0.0;0.2117919921875;-0.14737600088119507;1.1448479890823364;0.0;0.0;0.0
199;0.0;0.0;0.0;0.17665599286556244;-0.16299200057983398;1.124351978302002;0.0;0.0;0.0
202;0.08442399650812149;-0.020495999604463577;0.9896639585494995;0.18055999279022217;-0.12785600125789642;1.156559944152832;0.07000000029802322;0.2800000011920929;0.49000000953674316
204;0.0;0.0;0.0;0.18055999279022217;-0.16299200057983398;1.156559944152832;0.0;0.0;0.0
206;0.0;0.0;0.0;0.18836799263954163;-0.15908800065517426;1.1448479890823364;0.0;0.0;0.0
208;0.0;0.0;0.0;0.19617599248886108;-0.1786080002784729;1.148751974105835;0.0;0.0;0.0
210;0.08515600115060806;-0.02000799961388111;0.98990797996521;0.2000799924135208;-0.12004800140857697;1.1526559591293335;0.14000000059604645;0.21000000834465027;0.5600000023841858
212;0.0;0.0;0.0;0.17372798919677734;-0.15908800065517426;1.1282559633255005;0.0;0.0;0.0
214;0.0;0.0;0.0;0.1815359890460968;-0.16299200057983398;1.132159948348999;0.0;0.0;0.0
216;0.0;0.0;0.0;0.1815359890460968;-0.1512800008058548;1.132159948348999;0.0;0.0;0.0
219;0.08515600115060806;-0.019763998687267303;0.9896639585494995;0.19324800372123718;-0.14347200095653534;1.132159948348999;0.07000000029802322;0.2800000011920929;0.49000000953674316
221;0.0;0.0;0.0;0.17763200402259827;-0.16299200057983398;1.140944004058838;0.0;0.0;0.0
223;0.0;0.0;0.0;0.18934398889541626;-0.1786080002784729;1.140944004058838;0.0;0.0;0.0
225;0.0;0.0;0.0;0.2088640034198761;-0.15518400073051453;1.1526559591293335;0.0;0.0;0.0
227;0.08393599838018417;-0.020739998668432236;0.9894199967384338;0.20495998859405518;-0.1668960005044937;1.1604639291763306;0.07000000029802322;0.2800000011920929;0.49000000953674316
229;0.0;0.0;0.0;0.18544000387191772;-0.18251200020313263;1.1526559591293335;0.0;0.0;0.0
231;0.0;0.0;0.0;0.17763200402259827;-0.1395680010318756;1.148751974105835;0.0;0.0;0.0
233;0.0;0.0;0.0;0.20105600357055664;-0.1668960005044937;1.165343999862671;0.0;0.0;0.0
236;0.08417999744415283;-0.020739998668432236;0.9896639585494995;0.21276798844337463;-0.1512800008058548;1.124351978302002;0.14000000059604645;0.21000000834465027;0.5600000023841858
238;0.0;0.0;0.0;0.21667200326919556;-0.15518400073051453;1.132159948348999;0.0;0.0;0.0
240;0.0;0.0;0.0;0.21276798844337463;-0.17080000042915344;1.132159948348999;0.0;0.0;0.0
242;0.0;0.0;0.0;0.19715198874473572;-0.17080000042915344;1.140944004058838;0.0;0.0;0.0
244;0.08466799557209015;-0.020495999604463577;0.9889319539070129;0.1698240041732788;-0.14347200095653534;1.148751974105835;0.14000000059604645;0.21000000834465027;0.5600000023841858
246;0.0;0.0;0.0;0.21569599211215973;-0.15908800065517426;1.1370400190353394;0.0;0.0;0.0
248;0.0;0.0;0.0;0.1844639927148819;-0.1668960005044937;1.140944004058838;0.0;0.0;0.0
250;0.0;0.0;0.0;0.18055999279022217;-0.15518400073051453;1.148751974105835;0.0;0.0;0.0
253;0.08466799557209015;-0.02000799961388111;0.9882000088691711;0.1727519929409027;-0.15518400073051453;1.1448479890823364;0.14000000059604645;0.2800000011920929;0.49000000953674316
255;0.0;0.0;0.0;0.2117919921875;-0.1395680010318756;1.1448479890823364;0.0;0.0;0.0
257;0.0;0.0;0.0;0.19227199256420135;-0.1668960005044937;1.132159948348999;0.0;0.0;0.0
259;0.0;0.0;0.0;0.2000799924135208;-0.14737600088119507;1.1526559591293335;0.0;0.0;0.0
261;0.08466799557209015;-0.02000799961388111;0.9886879920959473;0.2117919921875;-0.13176000118255615;1.132159948348999;0.14000000059604645;0.2800000011920929;0.49000000953674316
263;0.0;0.0;0.0;0.18055999279022217;-0.16299200057983398;1.132159948348999;0.0;0.0;0.0
265;0.0;0.0;0.0;0.19617599248886108;-0.15908800065517426;1.140944004058838;0.0;0.0;0.0
267;0.0;0.0;0.0;0.1844639927148819;-0.15908800065517426;1.148751974105835;0.0;0.0;0.0
270;0.08369199931621552;-0.02025200054049492;0.9906399846076965;0.20788799226284027;-0.14737600088119507;1.140944004058838;0.07000000029802322;0.3499999940395355;0.49000000953674316
272;0.0;0.0;0.0;0.19227199256420135;-0.1239520013332367;1.124351978302002;0.0;0.0;0.0
274;0.0;0.0;0.0;0.20788799226284027;-0.16299200057983398;1.1448479890823364;0.0;0.0;0.0
276;0.0;0.0;0.0;0.19617599248886108;-0.17080000042915344;1.1204479932785034;0.0;0.0;0.0
278;0.08417999744415283;-0.020983999595046043;0.9913719892501831;0.17665599286556244;-0.13566400110721588;1.1448479890823364;0.07000000029802322;0.2800000011920929;0.49000000953674316
280;0.0;0.0;0.0;0.20398399233818054;-0.12785600125789642;1.140944004058838;0.0;0.0;0.0
282;0.0;0.0;0.0;0.1844639927148819;-0.1395680010318756;1.1360639333724976;0.0;0.0;0.0
284;0.0;0.0;0.0;0.1844639927148819;-0.1395680010318756;1.1448479890823364;0.0;0.0;0.0
287;0.08442399650812149;-0.02025200054049492;0.9896639585494995;0.20398399233818054;-0.15908800065517426;1.1448479890823364;0.14000000059604645;0.14000000059604645;0.49000000953674316
289;0.0;0.0;0.0;0.1727519929409027;-0.1668960005044937;1.1165440082550049;0.0;0.0;0.0
291;0.0;0.0;0.0;0.1844639927148819;-0.1668960005044937;1.140944004058838;0.0;0.0;0.0
293;0.0;0.0;0.0;0.19227199256420135;-0.15908800065517426;1.1282559633255005;0.0;0.0;0.0
295;0.08564399927854538;-0.02025200054049492;0.9894199967384338;0.20788799226284027;-0.14737600088119507;1.140944004058838;0.21000000834465027;0.21000000834465027;0.49000000953674316
297;0.0;0.0;0.0;0.21569599211215973;-0.17080000042915344;1.132159948348999;0.0;0.0;0.0
299;0.0;0.0;0.0;0.20788799226284027;-0.14737600088119507;1.1360639333724976;0.0;0.0;0.0
301;0.0;0.0;0.0;0.21569599211215973;-0.16299200057983398;1.1370400190353394;0.0;0.0;0.0
304;0.08515600115060806;-0.020495999604463577;0.9886879920959473;0.20788799226284027;-0.1668960005044937;1.1448479890823364;0.07000000029802322;0.2800000011920929;0.49000000953674316
306;0.0;0.0;0.0;0.1727519929409027;-0.1668960005044937;1.1448479890823364;0.0;0.0;0.0
308;0.0;0.0;0.0;0.17665599286556244;-0.15518400073051453;1.1448479890823364;0.0;0.0;0.0
310;0.0;0.0;0.0;0.2000799924135208;-0.1512800008058548;1.1448479890823364;0.0;0.0;0.0
312;0.08442399650812149;-0.02122800052165985;0.9889319539070129;0.1844639927148819;-0.16299200057983398;1.1370400190353394;0.07000000029802322;0.2800000011920929;0.49000000953674316
314;0.0;0.0;0.0;0.19227199256420135;-0.15518400073051453;1.132159948348999;0.0;0.0;0.0
316;0.0;0.0;0.0;0.18055999279022217;-0.16299200057983398;1.140944004058838;0.0;0.0;0.0
319;0.0;0.0;0.0;0.16884799301624298;-0.14347200095653534;1.132159948348999;0.0;0.0;0.0
321;0.08564399927854538;-0.020739998668432236;0.9891759753227234;0.18055999279022217;-0.14347200095653534;1.1448479890823364;0.14000000059604645;0.2800000011920929;0.49000000953674316
323;0.0;0.0;0.0;0.19227199256420135;-0.15518400073051453;1.140944004058838;0.0;0.0;0.0
325;0.0;0.0;0.0;0.20788799226284027;-0.1668960005044937;1.1370400190353394;0.0;0.0;0.0
327;0.0;0.0;0.0;0.1844639927148819;-0.1668960005044937;1.132159948348999;0.0;0.0;0.0
329;0.08417999744415283;-0.020739998668432236;0.9903959631919861;0.1844639927148819;-0.16299200057983398;1.140944004058838;0.14000000059604645;0.2800000011920929;0.5600000023841858
331;0.0;0.0;0.0;0.19617599248886108;-0.1395680010318756;1.1526559591293335;0.0;0.0;0.0
333;0.0;0.0;0.0;0.18055999279022217;-0.17470400035381317;1.1282559633255005;0.0;0.0;0.0
336;0.0;0.0;0.0;0.21569599211215973;-0.15908800065517426;1.148751974105835;0.0;0.0;0.0
338;0.08417999744415283;-0.019276000559329987;0.9901520013809204;0.1727519929409027;-0.14737600088119507;1.148751974105835;0.14000000059604645;0.14000000059604645;0.49000000953674316
340;0.0;0.0;0.0;0.2235039919614792;-0.15518400073051453;1.124351978302002;0.0;0.0;0.0
342;0.0;0.0;0.0;0.1844639927148819;-0.16299200057983398;1.124351978302002;0.0;0.0;0.0
344;0.0;0.0;0.0;0.21569599211215973;-0.1512800008058548;1.1448479890823364;0.0;0.0;0.0
346;0.08442399650812149;-0.019276000559329987;0.9884439706802368;0.1571359932422638;-0.1395680010318756;1.1370400190353394;0.14000000059604645;0.21000000834465027;0.49000000953674316
348;0.0;0.0;0.0;0.2000799924135208;-0.1512800008058548;1.148751974105835;0.0;0.0;0.0
350;0.0;0.0;0.0;0.18055999279022217;-0.1668960005044937;1.1614400148391724;0.0;0.0;0.0
353;0.0;0.0;0.0;0.20398399233818054;-0.17080000042915344;1.140944004058838;0.0;0.0;0.0
355;0.08417999744415283;-0.019519999623298645;0.9889319539070129;0.20398399233818054;-0.15908800065517426;1.1282559633255005;0.07000000029802322;0.3499999940395355;0.49000000953674316
357;0.0;0.0;0.0;0.2117919921875;-0.14347200095653534;1.140944004058838;0.0;0.0;0.0
359;0.0;0.0;0.0;0.1844639927148819;-0.1512800008058548;1.1448479890823364;0.0;0.0;0.0
361;0.0;0.0;0.0;0.18055999279022217;-0.14347200095653534;1.1360639333724976;0.0;0.0;0.0
363;0.08442399650812149;-0.02000799961388111;0.9894199967384338;0.2000799924135208;-0.1668960005044937;1.1526559591293335;0.07000000029802322;0.2800000011920929;0.49000000953674316
365;0.0;0.0;0.0;0.19617599248886108;-0.15908800065517426;1.1526559591293335;0.0;0.0;0.0
367;0.0;0.0;0.0;0.20398399233818054;-0.13176000118255615;1.140944004058838;0.0;0.0;0.0
370;0.0;0.0;0.0;0.20788799226284027;-0.12785600125789642;1.140944004058838;0.0;0.0;0.0
372;0.08515600115060806;-0.02000799961388111;0.9894199967384338;0.1844639927148819;-0.15518400073051453;1.1526559591293335;0.14000000059604645;0.2800000011920929;0.49000000953674316
374;0.0;0.0;0.0;0.19617599248886108;-0.1668960005044937;1.1526559591293335;0.0;0.0;0.0
376;0.0;0.0;0.0;0.19617599248886108;-0.13176000118255615;1.148751974105835;0.0;0.0;0.0
378;0.0;0.0;0.0;0.19227199256420135;-0.13566400110721588;1.1360639333724976;0.0;0.0;0.0
380;0.08564399927854538;-0.02025200054049492;0.9896639585494995;0.18055999279022217;-0.1512800008058548;1.1282559633255005;0.0;0.2800000011920929;0.42000001668930054
382;0.0;0.0;0.0;0.20398399233818054;-0.15518400073051453;1.1614400148391724;0.0;0.0;0.0
384;0.0;0.0;0.0;0.18055999279022217;-0.16299200057983398;1.1360639333724976;0.0;0.0;0.0
387;0.0;0.0;0.0;0.1844639927148819;-0.14347200095653534;1.148751974105835;0.0;0.0;0.0
389;0.08515600115060806;-0.019763998687267303;0.9903959631919861;0.18055999279022217;-0.1395680010318756;1.148751974105835;0.07000000029802322;0.2800000011920929;0.5600000023841858
391;0.0;0.0;0.0;0.16103999316692352;-0.17470400035381317;1.1448479890823364;0.0;0.0;0.0
393;0.0;0.0;0.0;0.18055999279022217;-0.15908800065517426;1.140944004058838;0.0;0.0;0.0
395;0.0;0.0;0.0;0.19227199256420135;-0.14737600088119507;1.1526559591293335;0.0;0.0;0.0
397;0.08466799557209015;-0.019763998687267303;0.9901520013809204;0.20788799226284027;-0.15518400073051453;1.148751974105835;0.07000000029802322;0.3499999940395355;0.49000000953674316
399;0.0;0.0;0.0;0.2000799924135208;-0.14737600088119507;1.1448479890823364;0.0;0.0;0.0
401;0.0;0.0;0.0;0.19617599248886108;-0.1512800008058548;1.140944004058838;0.0;0.0;0.0
404;0.0;0.0;0.0;0.22740799188613892;-0.13566400110721588;1.132159948348999;0.0;0.0;0.0
406;0.08417999744415283;-0.019763998687267303;0.9894199967384338;0.19617599248886108;-0.16299200057983398;1.1360639333724976;0.14000000059604645;0.2800000011920929;0.49000000953674316
408;0.0;0.0;0.0;0.19227199256420135;-0.12785600125789642;1.1448479890823364;0.0;0.0;0.0
410;0.0;0.0;0.0;0.19227199256420135;-0.1512800008058548;1.1360639333724976;0.0;0.0;0.0
412;0.0;0.0;0.0;0.18836799263954163;-0.1395680010318756;1.148751974105835;0.0;0.0;0.0
414;0.08515600115060806;-0.020739998668432236;0.9884439706802368;0.20788799226284027;-0.14737600088119507;1.132159948348999;0.07000000029802322;0.21000000834465027;0.49000000953674316
417;0.0;0.0;0.0;0.16494399309158325;-0.17470400035381317;1.1448479890823364;0.0;0.0;0.0
418;0.0;0.0;0.0;0.16494399309158325;-0.15908800065517426;1.1360639333724976;0.0;0.0;0.0
421;0.0;0.0;0.0;0.19617599248886108;-0.1668960005044937;1.156559944152832;0.0;0.0;0.0
423;0.08442399650812149;-0.020739998668432236;0.98990797996521;0.20398399233818054;-0.1786080002784729;1.1448479890823364;0.07000000029802322;0.3499999940395355;0.5600000023841858
425;0.0;0.0;0.0;0.20788799226284027;-0.17080000042915344;1.156559944152832;0.0;0.0;0.0
427;0.0;0.0;0.0;0.1844639927148819;-0.16299200057983398;1.1370400190353394;0.0;0.0;0.0
429;0.0;0.0;0.0;0.19617599248886108;-0.15908800065517426;1.1526559591293335;0.0;0.0;0.0
431;0.08442399650812149;-0.02000799961388111;0.990884006023407;0.18055999279022217;-0.1395680010318756;1.1614400148391724;0.14000000059604645;0.2800000011920929;0.49000000953674316
433;0.0;0.0;0.0;0.2000799924135208;-0.1395680010318756;1.1370400190353394;0.0;0.0;0.0
435;0.0;0.0;0.0;0.20398399233818054;-0.14347200095653534;1.140944004058838;0.0;0.0;0.0
438;0.0;0.0;0.0;0.19227199256420135;-0.1395680010318756;1.1526559591293335;0.0;0.0;0.0
440;0.08417999744415283;-0.020739998668432236;0.990884006023407;0.19227199256420135;-0.15908800065517426;1.1204479932785034;0.14000000059604645;0.3499999940395355;0.49000000953674316
442;0.0;0.0;0.0;0.2117919921875;-0.1395680010318756;1.156559944152832;0.0;0.0;0.0
444;0.0;0.0;0.0;0.2000799924135208;-0.15518400073051453;1.132159948348999;0.0;0.0;0.0
446;0.0;0.0;0.0;0.1844639927148819;-0.15908800065517426;1.124351978302002;0.0;0.0;0.0
448;0.08417999744415283;-0.020495999604463577;0.9891759753227234;0.19617599248886108;-0.17080000042915344;1.1526559591293335;0.14000000059604645;0.21000000834465027;0.49000000953674316
450;0.0;0.0;0.0;0.17665599286556244;-0.1395680010318756;1.1448479890823364;0.0;0.0;0.0
452;0.0;0.0;0.0;0.19617599248886108;-0.15908800065517426;1.124351978302002;0.0;0.0;0.0
455;0.0;0.0;0.0;0.20398399233818054;-0.1395680010318756;1.1526559591293335;0.0;0.0;0.0
457;0.08588799834251404;-0.020495999604463577;0.9884439706802368;0.18055999279022217;-0.14347200095653534;1.132159948348999;0.21000000834465027;0.14000000059604645;0.49000000953674316
459;0.0;0.0;0.0;0.20788799226284027;-0.15518400073051453;1.140944004058838;0.0;0.0;0.0
461;0.0;0.0;0.0;0.19617599248886108;-0.1512800008058548;1.148751974105835;0.0;0.0;0.0
463;0.0;0.0;0.0;0.16884799301624298;-0.15908800065517426;1.1370400190353394;0.0;0.0;0.0
465;0.08564399927854538;-0.02000799961388111;0.9874680042266846;0.19227199256420135;-0.13566400110721588;1.1282559633255005;0.07000000029802322;0.21000000834465027;0.49000000953674316
467;0.0;0.0;0.0;0.19227199256420135;-0.1512800008058548;1.1370400190353394;0.0;0.0;0.0
469;0.0;0.0;0.0;0.2117919921875;-0.14347200095653534;1.156559944152832;0.0;0.0;0.0
472;0.0;0.0;0.0;0.19617599248886108;-0.15518400073051453;1.1526559591293335;0.0;0.0;0.0
474;0.08466799557209015;-0.02000799961388111;0.9884439706802368;0.2117919921875;-0.14737600088119507;1.1526559591293335;0.07000000029802322;0.3499999940395355;0.49000000953674316
476;0.0;0.0;0.0;0.20398399233818054;-0.16299200057983398;1.1448479890823364;0.0;0.0;0.0
478;0.0;0.0;0.0;0.19617599248886108;-0.1668960005044937;1.156559944152832;0.0;0.0;0.0
480;0.0;0.0;0.0;0.2117919921875;-0.1395680010318756;1.132159948348999;0.0;0.0;0.0
482;0.08466799557209015;-0.02000799961388111;0.9903959631919861;0.19227199256420135;-0.15908800065517426;1.132159948348999;0.07000000029802322;0.3499999940395355;0.49000000953674316
485;0.0;0.0;0.0;0.1844639927148819;-0.14737600088119507;1.148751974105835;0.0;0.0;0.0
487;0.0;0.0;0.0;0.19227199256420135;-0.16299200057983398;1.1448479890823364;0.0;0.0;0.0
489;0.0;0.0;0.0;0.1844639927148819;-0.13566400110721588;1.132159948348999;0.0;0.0;0.0
491;0.08442399650812149;-0.020495999604463577;0.9903959631919861;0.19617599248886108;-0.15518400073051453;1.173151969909668;0.14000000059604645;0.21000000834465027;0.49000000953674316
493;0.0;0.0;0.0;0.18836799263954163;-0.1512800008058548;1.1282559633255005;0.0;0.0;0.0
495;0.0;0.0;0.0;0.17665599286556244;-0.1395680010318756;1.1448479890823364;0.0;0.0;0.0
497;0.0;0.0;0.0;0.2000799924135208;-0.17470400035381317;1.1204479932785034;0.0;0.0;0.0
499;0.08564399927854538;-0.020739998668432236;0.9896639585494995;0.1844639927148819;-0.14737600088119507;1.124351978302002;0.14000000059604645;0.21000000834465027;0.49000000953674316
502;0.0;0.0;0.0;0.19227199256420135;-0.15518400073051453;1.1448479890823364;0.0;0.0;0.0
504;0.0;0.0;0.0;0.19617599248886108;-0.1903200000524521;1.1604639291763306;0.0;0.0;0.0
506;0.0;0.0;0.0;0.2000799924135208;-0.1395680010318756;1.1165440082550049;0.0;0.0;0.0
508;0.08515600115060806;-0.02000799961388111;0.9894199967384338;0.19227199256420135;-0.1512800008058548;1.1526559591293335;0.07000000029802322;0.3499999940395355;0.49000000953674316
510;0.0;0.0;0.0;0.19617599248886108;-0.1668960005044937;1.1282559633255005;0.0;0.0;0.0
512;0.0;0.0;0.0;0.18836799263954163;-0.1512800008058548;1.148751974105835;0.0;0.0;0.0
514;0.0;0.0;0.0;0.16884799301624298;-0.16299200057983398;1.1448479890823364;0.0;0.0;0.0
516;0.08466799557209015;-0.02000799961388111;0.9889319539070129;0.20398399233818054;-0.1512800008058548;1.140944004058838;0.07000000029802322;0.2800000011920929;0.5600000023841858
519;0.0;0.0;0.0;0.1844639927148819;-0.15908800065517426;1.140944004058838;0.0;0.0;0.0
521;0.0;0.0;0.0;0.20398399233818054;-0.10833600163459778;1.140944004058838;0.0;0.0;0.0
523;0.0;0.0;0.0;0.1844639927148819;-0.14737600088119507;1.132159948348999;0.0;0.0;0.0
525;0.08466799557209015;-0.019763998687267303;0.9889319539070129;0.18836799263954163;-0.17470400035381317;1.156559944152832;0.14000000059604645;0.2800000011920929;0.49000000953674316
527;0.0;0.0;0.0;0.1844639927148819;-0.15518400073051453;1.148751974105835;0.0;0.0;0.0
529;0.0;0.0;0.0;0.20398399233818054;-0.1512800008058548;1.148751974105835;0.0;0.0;0.0
531;0.0;0.0;0.0;0.17665599286556244;-0.16299200057983398;1.132159948348999;0.0;0.0;0.0
533;0.08466799557209015;-0.019519999623298645;0.9896639585494995;0.1844639927148819;-0.13176000118255615;1.1526559591293335;0.14000000059604645;0.2800000011920929;0.49000000953674316
536;0.0;0.0;0.0;0.18836799263954163;-0.1512800008058548;1.132159948348999;0.0;0.0;0.0
538;0.0;0.0;0.0;0.18055999279022217;-0.17080000042915344;1.132159948348999;0.0;0.0;0.0
540;0.0;0.0;0.0;0.16494399309158325;-0.17080000042915344;1.1526559591293335;0.0;0.0;0.0
542;0.08515600115060806;-0.020495999604463577;0.98990797996521;0.18836799263954163;-0.13566400110721588;1.1448479890823364;0.07000000029802322;0.2800000011920929;0.49000000953674316
544;0.0;0.0;0.0;0.21569599211215973;-0.14347200095653534;1.156559944152832;0.0;0.0;0.0
546;0.0;0.0;0.0;0.19617599248886108;-0.15908800065517426;1.1360639333724976;0.0;0.0;0.0
548;0.0;0.0;0.0;0.20398399233818054;-0.15518400073051453;1.1370400190353394;0.0;0.0;0.0
550;0.08466799557209015;-0.020495999604463577;0.990884006023407;0.19617599248886108;-0.1512800008058548;1.1282559633255005;0.14000000059604645;0.2800000011920929;0.49000000953674316
553;0.0;0.0;0.0;0.20788799226284027;-0.16299200057983398;1.1448479890823364;0.0;0.0;0.0
555;0.0;0.0;0.0;0.2117919921875;-0.1395680010318756;1.1204479932785034;0.0;0.0;0.0
557;0.0;0.0;0.0;0.2117919921875;-0.17080000042915344;1.140944004058838;0.0;0.0;0.0
559;0.08442399650812149;-0.020739998668432236;0.9891759753227234;0.19227199256420135;-0.17080000042915344;1.165343999862671;0.14000000059604645;0.21000000834465027;0.49000000953674316
561;0.0;0.0;0.0;0.2117919921875;-0.16299200057983398;1.156559944152832;0.0;0.0;0.0
563;0.0;0.0;0.0;0.17665599286556244;-0.16299200057983398;1.140944004058838;0.0;0.0;0.0
565;0.0;0.0;0.0;0.18836799263954163;-0.17080000042915344;1.1370400190353394;0.0;0.0;0.0
567;0.0849120020866394;-0.02000799961388111;0.9894199967384338;0.1844639927148819;-0.14347200095653534;1.1360639333724976;0.07000000029802322;0.2800000011920929;0.49000000953674316
570;0.0;0.0;0.0;0.21569599211215973;-0.1512800008058548;1.140944004058838;0.0;0.0;0.0
572;0.0;0.0;0.0;0.18055999279022217;-0.14347200095653534;1.148751974105835;0.0;0.0;0.0
574;0.0;0.0;0.0;0.2117919921875;-0.1395680010318756;1.1448479890823364;0.0;0.0;0.0
576;0.08417999744415283;-0.02025200054049492;0.98990797996521;0.1844639927148819;-0.14347200095653534;1.1282559633255005;0.07000000029802322;0.2800000011920929;0.49000000953674316
578;0.0;0.0;0.0;0.20788799226284027;-0.1512800008058548;1.124351978302002;0.0;0.0;0.0
580;0.0;0.0;0.0;0.19617599248886108;-0.14737600088119507;1.1604639291763306;0.0;0.0;0.0
582;0.0;0.0;0.0;0.20788799226284027;-0.15518400073051453;1.1448479890823364;0.0;0.0;0.0
584;0.08393599838018417;-0.02025200054049492;0.9901520013809204;0.19227199256420135;-0.14737600088119507;1.1282559633255005;0.14000000059604645;0.2800000011920929;0.49000000953674316
587;0.0;0.0;0.0;0.20398399233818054;-0.1512800008058548;1.124351978302002;0.0;0.0;0.0
589;0.0;0.0;0.0;0.2000799924135208;-0.17080000042915344;1.1448479890823364;0.0;0.0;0.0
591;0.0;0.0;0.0;0.2117919921875;-0.12785600125789642;1.1360639333724976;0.0;0.0;0.0
593;0.08466799557209015;-0.02000799961388111;0.9891759753227234;0.19617599248886108;-0.14347200095653534;1.165343999862671;0.14000000059604645;0.3499999940395355;0.49000000953674316
595;0.0;0.0;0.0;0.18055999279022217;-0.1668960005044937;1.1526559591293335;0.0;0.0;0.0
597;0.0;0.0;0.0;0.21959999203681946;-0.12785600125789642;1.156559944152832;0.0;0.0;0.0
599;0.0;0.0;0.0;0.16591998934745789;-0.16299200057983398;1.1448479890823364;0.0;0.0;0.0
601;0.08442399650812149;-0.020495999604463577;0.9903959631919861;0.19227199256420135;-0.14347200095653534;1.1526559591293335;0.07000000029802322;0.2800000011920929;0.49000000953674316
604;0.0;0.0;0.0;0.2000799924135208;-0.15518400073051453;1.1448479890823364;0.0;0.0;0.0
606;0.0;0.0;0.0;0.19227199256420135;-0.1512800008058548;1.1526559591293335;0.0;0.0;0.0
608;0.0;0.0;0.0;0.1844639927148819;-0.13566400110721588;1.1448479890823364;0.0;0.0;0.0
610;0.08466799557209015;-0.019763998687267303;0.9891759753227234;0.19227199256420135;-0.15518400073051453;1.140944004058838;0.14000000059604645;0.14000000059604645;0.49000000953674316
612;0.0;0.0;0.0;0.21959999203681946;-0.1668960005044937;1.1604639291763306;0.0;0.0;0.0
614;0.0;0.0;0.0;0.18836799263954163;-0.16299200057983398;1.1526559591293335;0.0;0.0;0.0
616;0.0;0.0;0.0;0.17665599286556244;-0.16299200057983398;1.140944004058838;0.0;0.0;0.0
618;0.08564399927854538;-0.019276000559329987;0.9889319539070129;0.21569599211215973;-0.17470400035381317;1.1282559633255005;0.14000000059604645;0.21000000834465027;0.49000000953674316
621;0.0;0.0;0.0;0.20398399233818054;-0.15518400073051453;1.1282559633255005;0.0;0.0;0.0
623;0.0;0.0;0.0;0.18836799263954163;-0.13566400110721588;1.1370400190353394;0.0;0.0;0.0
625;0.0;0.0;0.0;0.20788799226284027;-0.15518400073051453;1.148751974105835;0.0;0.0;0.0
627;0.08588799834251404;-0.019763998687267303;0.9891759753227234;0.17665599286556244;-0.1512800008058548;1.124351978302002;0.14000000059604645;0.2800000011920929;0.49000000953674316
629;0.0;0.0;0.0;0.18836799263954163;-0.15518400073051453;1.1604639291763306;0.0;0.0;0.0
631;0.0;0.0;0.0;0.20398399233818054;-0.14737600088119507;1.132159948348999;0.0;0.0;0.0
633;0.0;0.0;0.0;0.18055999279022217;-0.14737600088119507;1.140944004058838;0.0;0.0;0.0
635;0.08540000021457672;-0.020495999604463577;0.9896639585494995;0.19617599248886108;-0.1512800008058548;1.148751974105835;0.07000000029802322;0.2800000011920929;0.49000000953674316
638;0.0;0.0;0.0;0.19617599248886108;-0.14737600088119507;1.148751974105835;0.0;0.0;0.0
640;0.0;0.0;0.0;0.20398399233818054;-0.16299200057983398;1.1282559633255005;0.0;0.0;0.0
642;0.0;0.0;0.0;0.18055999279022217;-0.1512800008058548;1.1282559633255005;0.0;0.0;0.0
644;0.08417999744415283;-0.02025200054049492;0.98990797996521;0.16103999316692352;-0.15908800065517426;1.156559944152832;0.14000000059604645;0.2800000011920929;0.49000000953674316
646;0.0;0.0;0.0;0.18055999279022217;-0.16299200057983398;1.1448479890823364;0.0;0.0;0.0
648;0.0;0.0;0.0;0.20398399233818054;-0.14737600088119507;1.1282559633255005;0.0;0.0;0.0
650;0.0;0.0;0.0;0.19227199256420135;-0.13566400110721588;1.148751974105835;0.0;0.0;0.0
652;0.0849120020866394;-0.020495999604463577;0.9896639585494995;0.2117919921875;-0.16299200057983398;1.1282559633255005;0.07000000029802322;0.2800000011920929;0.49000000953674316
655;0.0;0.0;0.0;0.2000799924135208;-0.1512800008058548;1.1604639291763306;0.0;0.0;0.0
657;0.0;0.0;0.0;0.18836799263954163;-0.14347200095653534;1.1604639291763306;0.0;0.0;0.0
659;0.0;0.0;0.0;0.21569599211215973;-0.14737600088119507;1.1604639291763306;0.0;0.0;0.0
661;0.0849120020866394;-0.02000799961388111;0.9891759753227234;0.19227199256420135;-0.1512800008058548;1.1448479890823364;0.14000000059604645;0.2800000011920929;0.49000000953674316
663;0.0;0.0;0.0;0.19227199256420135;-0.16299200057983398;1.132159948348999;0.0;0.0;0.0
665;0.0;0.0;0.0;0.18836799263954163;-0.14347200095653534;1.1448479890823364;0.0;0.0;0.0
667;0.0;0.0;0.0;0.19227199256420135;-0.1512800008058548;1.1526559591293335;0.0;0.0;0.0
669;0.08466799557209015;-0.020739998668432236;0.9889319539070129;0.18836799263954163;-0.16299200057983398;1.165343999862671;0.14000000059604645;0.2800000011920929;0.49000000953674316
672;0.0;0.0;0.0;0.17665599286556244;-0.1668960005044937;1.1370400190353394;0.0;0.0;0.0
674;0.0;0.0;0.0;0.18055999279022217;-0.1512800008058548;1.1282559633255005;0.0;0.0;0.0
676;0.0;0.0;0.0;0.20788799226284027;-0.15518400073051453;1.1360639333724976;0.0;0.0;0.0
678;0.08393599838018417;-0.02000799961388111;0.9894199967384338;0.18055999279022217;-0.15518400073051453;1.140944004058838;0.14000000059604645;0.2800000011920929;0.49000000953674316
680;0.0;0.0;0.0;0.19227199256420135;-0.1395680010318756;1.140944004058838;0.0;0.0;0.0
682;0.0;0.0;0.0;0.16494399309158325;-0.1512800008058548;1.140944004058838;0.0;0.0;0.0
684;0.0;0.0;0.0;0.18055999279022217;-0.18251200020313263;1.1604639291763306;0.0;0.0;0.0
686;0.08515600115060806;-0.020495999604463577;0.9891759753227234;0.18836799263954163;-0.14737600088119507;1.1282559633255005;0.07000000029802322;0.21000000834465027;0.42000001668930054
689;0.0;0.0;0.0;0.2000799924135208;-0.16299200057983398;1.1204479932785034;0.0;0.0;0.0
691;0.0;0.0;0.0;0.1844639927148819;-0.1512800008058548;1.1526559591293335;0.0;0.0;0.0
693;0.0;0.0;0.0;0.17665599286556244;-0.15908800065517426;1.165343999862671;0.0;0.0;0.0
695;0.08442399650812149;-0.02000799961388111;0.9894199967384338;0.1844639927148819;-0.13176000118255615;1.132159948348999;0.07000000029802322;0.2800000011920929;0.49000000953674316
697;0.0;0.0;0.0;0.17665599286556244;-0.14347200095653534;1.132159948348999;0.0;0.0;0.0
699;0.0;0.0;0.0;0.17665599286556244;-0.15908800065517426;1.132159948348999;0.0;0.0;0.0
701;0.0;0.0;0.0;0.1844639927148819;-0.15908800065517426;1.1370400190353394;0.0;0.0;0.0
703;0.0849120020866394;-0.020983999595046043;0.990884006023407;0.20398399233818054;-0.1512800008058548;1.148751974105835;0.07000000029802322;0.2800000011920929;0.49000000953674316
706;0.0;0.0;0.0;0.21569599211215973;-0.1786080002784729;1.140944004058838;0.0;0.0;0.0
708;0.0;0.0;0.0;0.17665599286556244;-0.1512800008058548;1.1448479890823364;0.0;0.0;0.0
710;0.0;0.0;0.0;0.20398399233818054;-0.13176000118255615;1.148751974105835;0.0;0.0;0.0
712;0.08393599838018417;-0.020739998668432236;0.9894199967384338;0.19227199256420135;-0.1512800008058548;1.1448479890823364;0.07000000029802322;0.2800000011920929;0.49000000953674316
714;0.0;0.0;0.0;0.2117919921875;-0.1668960005044937;1.1604639291763306;0.0;0.0;0.0
716;0.0;0.0;0.0;0.1844639927148819;-0.17470400035381317;1.132159948348999;0.0;0.0;0.0
718;0.0;0.0;0.0;0.18836799263954163;-0.1512800008058548;1.132159948348999;0.0;0.0;0.0
720;0.08417999744415283;-0.02000799961388111;0.9894199967384338;0.1571359932422638;-0.17080000042915344;1.173151969909668;0.14000000059604645;0.21000000834465027;0.49000000953674316
723;0.0;0.0;0.0;0.20788799226284027;-0.1668960005044937;1.124351978302002;0.0;0.0;0.0
725;0.0;0.0;0.0;0.2117919921875;-0.18641600012779236;1.1282559633255005;0.0;0.0;0.0
727;0.0;0.0;0.0;0.19227199256420135;-0.1512800008058548;1.1370400190353394;0.0;0.0;0.0
729;0.08466799557209015;-0.02000799961388111;0.9889319539070129;0.18836799263954163;-0.14737600088119507;1.140944004058838;0.07000000029802322;0.2800000011920929;0.49000000953674316
731;0.0;0.0;0.0;0.21569599211215973;-0.1512800008058548;1.148751974105835;0.0;0.0;0.0
733;0.0;0.0;0.0;0.18055999279022217;-0.1668960005044937;1.1448479890823364;0.0;0.0;0.0
735;0.0;0.0;0.0;0.2117919921875;-0.16299200057983398;1.148751974105835;0.0;0.0;0.0
737;0.08515600115060806;-0.02025200054049492;0.9886879920959473;0.19617599248886108;-0.15518400073051453;1.1282559633255005;0.07000000029802322;0.2800000011920929;0.5600000023841858
740;0.0;0.0;0.0;0.2000799924135208;-0.17080000042915344;1.1526559591293335;0.0;0.0;0.0
742;0.0;0.0;0.0;0.19227199256420135;-0.16299200057983398;1.148751974105835;0.0;0.0;0.0
744;0.0;0.0;0.0;0.19227199256420135;-0.17080000042915344;1.1370400190353394;0.0;0.0;0.0
746;0.08417999744415283;-0.02025200054049492;0.9891759753227234;0.19227199256420135;-0.1395680010318756;1.140944004058838;0.07000000029802322;0.2800000011920929;0.49000000953674316
748;0.0;0.0;0.0;0.18055999279022217;-0.18641600012779236;1.1360639333724976;0.0;0.0;0.0
750;0.0;0.0;0.0;0.20788799226284027;-0.15908800065517426;1.165343999862671;0.0;0.0;0.0
752;0.0;0.0;0.0;0.1844639927148819;-0.1395680010318756;1.1614400148391724;0.0;0.0;0.0
754;0.08515600115060806;-0.020495999604463577;0.9891759753227234;0.20788799226284027;-0.16299200057983398;1.1038559675216675;0.14000000059604645;0.2800000011920929;0.42000001668930054
757;0.0;0.0;0.0;0.20398399233818054;-0.1668960005044937;1.1604639291763306;0.0;0.0;0.0
759;0.0;0.0;0.0;0.16884799301624298;-0.1668960005044937;1.1604639291763306;0.0;0.0;0.0
761;0.0;0.0;0.0;0.2117919921875;-0.15908800065517426;1.124351978302002;0.0;0.0;0.0
763;0.08515600115060806;-0.020495999604463577;0.9891759753227234;0.19227199256420135;-0.1395680010318756;1.1282559633255005;0.14000000059604645;0.2800000011920929;0.49000000953674316
765;0.0;0.0;0.0;0.20398399233818054;-0.15518400073051453;1.148751974105835;0.0;0.0;0.0
767;0.0;0.0;0.0;0.18836799263954163;-0.15518400073051453;1.140944004058838;0.0;0.0;0.0
769;0.0;0.0;0.0;0.19227199256420135;-0.17470400035381317;1.140944004058838;0.0;0.0;0.0
771;0.0849120020866394;-0.02025200054049492;0.9894199967384338;0.2000799924135208;-0.1668960005044937;1.132159948348999;0.14000000059604645;0.2800000011920929;0.5600000023841858
774;0.0;0.0;0.0;0.17665599286556244;-0.14347200095653534;1.1526559591293335;0.0;0.0;0.0
776;0.0;0.0;0.0;0.18055999279022217;-0.1668960005044937;1.1370400190353394;0.0;0.0;0.0
778;0.0;0.0;0.0;0.19227199256420135;-0.16299200057983398;1.124351978302002;0.0;0.0;0.0
780;0.08564399927854538;-0.02025200054049492;0.9889319539070129;0.18836799263954163;-0.15908800065517426;1.148751974105835;0.07000000029802322;0.2800000011920929;0.49000000953674316
782;0.0;0.0;0.0;0.2117919921875;-0.1395680010318756;1.148751974105835;0.0;0.0;0.0
784;0.0;0.0;0.0;0.2000799924135208;-0.15518400073051453;1.148751974105835;0.0;0.0;0.0
786;0.0;0.0;0.0;0.16884799301624298;-0.15908800065517426;1.148751974105835;0.0;0.0;0.0
788;0.08515600115060806;-0.02000799961388111;0.9886879920959473;0.19227199256420135;-0.13176000118255615;1.132159948348999;0.07000000029802322;0.2800000011920929;0.49000000953674316
791;0.0;0.0;0.0;0.2000799924135208;-0.15518400073051453;1.1282559633255005;0.0;0.0;0.0
793;0.0;0.0;0.0;0.17665599286556244;-0.1512800008058548;1.140944004058838;0.0;0.0;0.0
795;0.0;0.0;0.0;0.2235039919614792;-0.18251200020313263;1.1165440082550049;0.0;0.0;0.0
797;0.08515600115060806;-0.020983999595046043;0.9903959631919861;0.19617599248886108;-0.1512800008058548;1.148751974105835;0.07000000029802322;0.3499999940395355;0.49000000953674316
799;0.0;0.0;0.0;0.18836799263954163;-0.1786080002784729;1.1370400190353394;0.0;0.0;0.0
801;0.0;0.0;0.0;0.18836799263954163;-0.18251200020313263;1.132159948348999;0.0;0.0;0.0
803;0.0;0.0;0.0;0.23131199181079865;-0.15908800065517426;1.1370400190353394;0.0;0.0;0.0
805;0.08442399650812149;-0.020495999604463577;0.9906399846076965;0.1844639927148819;-0.1395680010318756;1.132159948348999;0.07000000029802322;0.2800000011920929;0.49000000953674316
808;0.0;0.0;0.0;0.1844639927148819;-0.1668960005044937;1.140944004058838;0.0;0.0;0.0
810;0.0;0.0;0.0;0.19227199256420135;-0.14737600088119507;1.148751974105835;0.0;0.0;0.0
812;0.0;0.0;0.0;0.20398399233818054;-0.14737600088119507;1.1165440082550049;0.0;0.0;0.0
814;0.0849120020866394;-0.019763998687267303;0.98990797996521;0.16884799301624298;-0.1512800008058548;1.1448479890823364;0.14000000059604645;0.21000000834465027;0.42000001668930054
816;0.0;0.0;0.0;0.19617599248886108;-0.13566400110721588;1.1526559591293335;0.0;0.0;0.0
818;0.0;0.0;0.0;0.21569599211215973;-0.16299200057983398;1.156559944152832;0.0;0.0;0.0
820;0.0;0.0;0.0;0.19617599248886108;-0.15908800065517426;1.1526559591293335;0.0;0.0;0.0
823;0.08369199931621552;-0.02025200054049492;0.9896639585494995;0.19227199256420135;-0.15518400073051453;1.148751974105835;0.07000000029802322;0.3499999940395355;0.49000000953674316
825;0.0;0.0;0.0;0.21569599211215973;-0.15908800065517426;1.1448479890823364;0.0;0.0;0.0
827;0.0;0.0;0.0;0.18055999279022217;-0.14737600088119507;1.1448479890823364;0.0;0.0;0.0
829;0.0;0.0;0.0;0.20398399233818054;-0.15908800065517426;1.1038559675216675;0.0;0.0;0.0
831;0.08369199931621552;-0.02000799961388111;0.98990797996521;0.19227199256420135;-0.15908800065517426;1.1282559633255005;0.07000000029802322;0.2800000011920929;0.49000000953674316
833;0.0;0.0;0.0;0.20788799226284027;-0.16299200057983398;1.1526559591293335;0.0;0.0;0.0
835;0.0;0.0;0.0;0.1844639927148819;-0.14347200095653534;1.107759952545166;0.0;0.0;0.0
837;0.0;0.0;0.0;0.18836799263954163;-0.1239520013332367;1.1448479890823364;0.0;0.0;0.0
840;0.08295999467372894;-0.020495999604463577;0.9889319539070129;0.1844639927148819;-0.17080000042915344;1.148751974105835;0.14000000059604645;0.21000000834465027;0.49000000953674316
842;0.0;0.0;0.0;0.18836799263954163;-0.1668960005044937;1.140944004058838;0.0;0.0;0.0
844;0.0;0.0;0.0;0.21959999203681946;-0.14347200095653534;1.1204479932785034;0.0;0.0;0.0
846;0.0;0.0;0.0;0.19617599248886108;-0.14737600088119507;1.132159948348999;0.0;0.0;0.0
848;0.08564399927854538;-0.019763998687267303;0.9891759753227234;0.2117919921875;-0.14737600088119507;1.1526559591293335;0.14000000059604645;0.2800000011920929;0.49000000953674316
850;0.0;0.0;0.0;0.19617599248886108;-0.14737600088119507;1.1165440082550049;0.0;0.0;0.0
852;0.0;0.0;0.0;0.17665599286556244;-0.16299200057983398;1.1282559633255005;0.0;0.0;0.0
854;0.0;0.0;0.0;0.2117919921875;-0.15908800065517426;1.1448479890823364;0.0;0.0;0.0
857;0.08588799834251404;-0.020495999604463577;0.9911279678344727;0.21569599211215973;-0.1512800008058548;1.165343999862671;0.07000000029802322;0.3499999940395355;0.49000000953674316
859;0.0;0.0;0.0;0.22740799188613892;-0.15518400073051453;1.1282559633255005;0.0;0.0;0.0
861;0.0;0.0;0.0;0.18055999279022217;-0.13566400110721588;1.165343999862671;0.0;0.0;0.0
863;0.0;0.0;0.0;0.20788799226284027;-0.17470400035381317;1.148751974105835;0.0;0.0;0.0
865;0.08222799748182297;-0.02147199958562851;0.9903959631919861;0.18836799263954163;-0.1668960005044937;1.124351978302002;0.14000000059604645;0.14000000059604645;0.49000000953674316
867;0.0;0.0;0.0;0.1844639927148819;-0.1512800008058548;1.1526559591293335;0.0;0.0;0.0
869;0.0;0.0;0.0;0.18836799263954163;-0.15518400073051453;1.140944004058838;0.0;0.0;0.0
871;0.0;0.0;0.0;0.19227199256420135;-0.1512800008058548;1.148751974105835;0.0;0.0;0.0
874;0.08735200017690659;-0.02000799961388111;0.9884439706802368;0.2000799924135208;-0.1903200000524521;1.148751974105835;0.14000000059604645;0.14000000059604645;0.49000000953674316
876;0.0;0.0;0.0;0.20398399233818054;-0.1512800008058548;1.124351978302002;0.0;0.0;0.0
878;0.0;0.0;0.0;0.18055999279022217;-0.12785600125789642;1.1370400190353394;0.0;0.0;0.0
880;0.0;0.0;0.0;0.2235039919614792;-0.1668960005044937;1.132159948348999;0.0;0.0;0.0
882;0.08588799834251404;-0.02025200054049492;0.9877119660377502;0.1844639927148819;-0.1512800008058548;1.1204479932785034;0.07000000029802322;0.49000000953674316;0.49000000953674316
884;0.0;0.0;0.0;0.18055999279022217;-0.15518400073051453;1.156559944152832;0.0;0.0;0.0
886;0.0;0.0;0.0;0.1844639927148819;-0.17470400035381317;1.124351978302002;0.0;0.0;0.0
888;0.0;0.0;0.0;0.1844639927148819;-0.16299200057983398;1.140944004058838;0.0;0.0;0.0
891;0.08247199654579163;-0.02025200054049492;0.9903959631919861;0.16884799301624298;-0.14737600088119507;1.1282559633255005;0.07000000029802322;0.3499999940395355;0.49000000953674316
893;0.0;0.0;0.0;0.19227199256420135;-0.18251200020313263;1.1370400190353394;0.0;0.0;0.0
895;0.0;0.0;0.0;0.17665599286556244;-0.1668960005044937;1.148751974105835;0.0;0.0;0.0
897;0.0;0.0;0.0;0.19227199256420135;-0.17080000042915344;1.148751974105835;0.0;0.0;0.0
899;0.08515600115060806;-0.019763998687267303;0.98990797996521;0.20788799226284027;-0.18251200020313263;1.140944004058838;0.14000000059604645;0.21000000834465027;0.49000000953674316
901;0.0;0.0;0.0;0.19617599248886108;-0.14347200095653534;1.148751974105835;0.0;0.0;0.0
903;0.0;0.0;0.0;0.19227199256420135;-0.14347200095653534;1.1526559591293335;0.0;0.0;0.0
905;0.0;0.0;0.0;0.1844639927148819;-0.1395680010318756;1.1204479932785034;0.0;0.0;0.0
908;0.08710800111293793;-0.01903199963271618;0.9891759753227234;0.19227199256420135;-0.15908800065517426;1.1282559633255005;0.14000000059604645;0.3499999940395355;0.49000000953674316
910;0.0;0.0;0.0;0.18055999279022217;-0.17080000042915344;1.1448479890823364;0.0;0.0;0.0
912;0.0;0.0;0.0;0.16494399309158325;-0.13176000118255615;1.1370400190353394;0.0;0.0;0.0
914;0.0;0.0;0.0;0.18836799263954163;-0.1512800008058548;1.1526559591293335;0.0;0.0;0.0
916;0.08369199931621552;-0.02025200054049492;0.9911279678344727;0.2000799924135208;-0.1786080002784729;1.1448479890823364;0.14000000059604645;0.3499999940395355;0.49000000953674316
918;0.0;0.0;0.0;0.18836799263954163;-0.1395680010318756;1.148751974105835;0.0;0.0;0.0
920;0.0;0.0;0.0;0.20398399233818054;-0.1395680010318756;1.156559944152832;0.0;0.0;0.0
922;0.0;0.0;0.0;0.1844639927148819;-0.17470400035381317;1.1526559591293335;0.0;0.0;0.0
925;0.08417999744415283;-0.02000799961388111;0.9903959631919861;0.2117919921875;-0.18251200020313263;1.132159948348999;0.14000000059604645;0.07000000029802322;0.4856249988079071
927;0.0;0.0;0.0;0.19617599248886108;-0.1668960005044937;1.1526559591293335;0.0;0.0;0.0
929;0.0;0.0;0.0;0.18055999279022217;-0.1512800008058548;1.156559944152832;0.0;0.0;0.0
931;0.0;0.0;0.0;0.1844639927148819;-0.1512800008058548;1.1282559633255005;0.0;0.0;0.0
933;0.0861319974064827;-0.020495999604463577;0.9889319539070129;0.20398399233818054;-0.13566400110721588;1.1360639333724976;0.07000000029802322;0.21000000834465027;0.4856249988079071
935;0.0;0.0;0.0;0.2000799924135208;-0.17080000042915344;1.1604639291763306;0.0;0.0;0.0
937;0.0;0.0;0.0;0.19617599248886108;-0.14347200095653534;1.165343999862671;0.0;0.0;0.0
939;0.0;0.0;0.0;0.14932799339294434;-0.15908800065517426;1.1282559633255005;0.0;0.0;0.0
942;0.0849120020866394;-0.020739998668432236;0.98990797996521;0.21959999203681946;-0.16299200057983398;1.132159948348999;0.14000000059604645;0.3499999940395355;0.48125001788139343
944;0.0;0.0;0.0;0.19227199256420135;-0.14347200095653534;1.1448479890823364;0.0;0.0;0.0
946;0.0;0.0;0.0;0.1844639927148819;-0.15908800065517426;1.1448479890823364;0.0;0.0;0.0
948;0.0;0.0;0.0;0.19227199256420135;-0.15518400073051453;1.140944004058838;0.0;0.0;0.0
950;0.08344800025224686;-0.02000799961388111;0.9894199967384338;0.18055999279022217;-0.13176000118255615;1.124351978302002;0.07000000029802322;0.27562499046325684;0.48125001788139343
952;0.0;0.0;0.0;0.19617599248886108;-0.15518400073051453;1.156559944152832;0.0;0.0;0.0
954;0.0;0.0;0.0;0.20788799226284027;-0.15908800065517426;1.1360639333724976;0.0;0.0;0.0
956;0.0;0.0;0.0;0.19227199256420135;-0.14347200095653534;1.140944004058838;0.0;0.0;0.0
959;0.0849120020866394;-0.02025200054049492;0.9891759753227234;0.18055999279022217;-0.1668960005044937;1.148751974105835;0.07000000029802322;0.2056250125169754;0.546875
961;0.0;0.0;0.0;0.18055999279022217;-0.16299200057983398;1.148751974105835;0.0;0.0;0.0
963;0.0;0.0;0.0;0.2117919921875;-0.14737600088119507;1.140944004058838;0.0;0.0;0.0
965;0.0;0.0;0.0;0.21569599211215973;-0.1512800008058548;1.1370400190353394;0.0;0.0;0.0
967;0.0861319974064827;-0.02000799961388111;0.9886879920959473;0.19617599248886108;-0.16299200057983398;1.1526559591293335;0.07000000029802322;0.34562498331069946;0.4768750071525574
969;0.0;0.0;0.0;0.18055999279022217;-0.15518400073051453;1.1526559591293335;0.0;0.0;0.0
971;0.0;0.0;0.0;0.20398399233818054;-0.16299200057983398;1.165343999862671;0.0;0.0;0.0
973;0.0;0.0;0.0;0.1727519929409027;-0.15908800065517426;1.1370400190353394;0.0;0.0;0.0
976;0.08344800025224686;-0.02000799961388111;0.9911279678344727;0.16494399309158325;-0.15518400073051453;1.140944004058838;0.07000000029802322;0.27125000953674316;0.5425000190734863
978;0.0;0.0;0.0;0.21569599211215973;-0.16299200057983398;1.1370400190353394;0.0;0.0;0.0
980;0.0;0.0;0.0;0.16884799301624298;-0.1512800008058548;1.1448479890823364;0.0;0.0;0.0
982;0.0;0.0;0.0;0.1844639927148819;-0.1395680010318756;1.148751974105835;0.0;0.0;0.0
984;0.08466799557209015;-0.02000799961388111;0.9901520013809204;0.2000799924135208;-0.1786080002784729;1.132159948348999;0.14000000059604645;0.20125000178813934;0.46812501549720764
986;0.0;0.0;0.0;0.21569599211215973;-0.14737600088119507;1.1360639333724976;0.0;0.0;0.0
988;0.0;0.0;0.0;0.19617599248886108;-0.17080000042915344;1.140944004058838;0.0;0.0;0.0
991;0.0;0.0;0.0;0.16884799301624298;-0.15908800065517426;1.1331360340118408;0.0;0.0;0.0
993;0.08564399927854538;-0.020495999604463577;0.9894199967384338;0.1844639927148819;-0.15908800065517426;1.148751974105835;0.06562499701976776;0.27125000953674316;0.46812501549720764
995;0.0;0.0;0.0;0.1844639927148819;-0.17470400035381317;1.148751974105835;0.0;0.0;0.0
997;0.0;0.0;0.0;0.20788799226284027;-0.14737600088119507;1.1448479890823364;0.0;0.0;0.0
999;0.0;0.0;0.0;0.1844639927148819;-0.1668960005044937;1.1604639291763306;0.0;0.0;0.0
1001;0.08564399927854538;-0.020495999604463577;0.98990797996521;0.2000799924135208;-0.15908800065517426;1.148751974105835;0.06562499701976776;0.2668749988079071;0.4637500047683716
1003;0.0;0.0;0.0;0.18055999279022217;-0.17470400035381317;1.132159948348999;0.0;0.0;0.0
1005;0.0;0.0;0.0;0.20398399233818054;-0.15908800065517426;1.156559944152832;0.0;0.0;0.0
1008;0.0;0.0;0.0;0.2117919921875;-0.1239520013332367;1.1370400190353394;0.0;0.0;0.0
1010;0.08515600115060806;-0.020739998668432236;0.9901520013809204;0.17665599286556244;-0.16299200057983398;1.156559944152832;0.06562499701976776;0.2668749988079071;0.4637500047683716
1012;0.0;0.0;0.0;0.1844639927148819;-0.14347200095653534;1.132159948348999;0.0;0.0;0.0
1014;0.0;0.0;0.0;0.19227199256420135;-0.1668960005044937;1.132159948348999;0.0;0.0;0.0
1016;0.0;0.0;0.0;0.18055999279022217;-0.1668960005044937;1.124351978302002;0.0;0.0;0.0
1018;0.08466799557209015;-0.02025200054049492;0.98990797996521;0.1844639927148819;-0.16299200057983398;1.1370400190353394;0.13562500476837158;0.2668749988079071;0.4593750238418579
1020;0.0;0.0;0.0;0.19617599248886108;-0.17470400035381317;1.124351978302002;0.0;0.0;0.0
1022;0.0;0.0;0.0;0.21569599211215973;-0.15518400073051453;1.140944004058838;0.0;0.0;0.0
1025;0.0;0.0;0.0;0.17665599286556244;-0.17470400035381317;1.165343999862671;0.0;0.0;0.0
1027;0.0849120020866394;-0.020495999604463577;0.9903959631919861;0.18055999279022217;-0.1512800008058548;1.140944004058838;0.06562499701976776;0.33249998092651367;0.4593750238418579
1029;0.0;0.0;0.0;0.19617599248886108;-0.15518400073051453;1.1448479890823364;0.0;0.0;0.0
1031;0.0;0.0;0.0;0.1844639927148819;-0.18251200020313263;1.140944004058838;0.0;0.0;0.0
1033;0.0;0.0;0.0;0.20788799226284027;-0.15518400073051453;1.148751974105835;0.0;0.0;0.0
1035;0.08369199931621552;-0.020983999595046043;0.9894199967384338;0.18055999279022217;-0.1512800008058548;1.1370400190353394;0.06562499701976776;0.1925000101327896;0.45500001311302185
1037;0.0;0.0;0.0;0.18836799263954163;-0.1786080002784729;1.132159948348999;0.0;0.0;0.0
1039;0.0;0.0;0.0;0.18836799263954163;-0.1512800008058548;1.124351978302002;0.0;0.0;0.0
1042;0.0;0.0;0.0;0.19617599248886108;-0.15518400073051453;1.148751974105835;0.0;0.0;0.0
1044;0.08515600115060806;-0.019763998687267303;0.9896639585494995;0.18055999279022217;-0.14737600088119507;1.1448479890823364;0.13562500476837158;0.1925000101327896;0.45500001311302185
1046;0.0;0.0;0.0;0.19227199256420135;-0.18251200020313263;1.124351978302002;0.0;0.0;0.0
1048;0.0;0.0;0.0;0.18836799263954163;-0.14737600088119507;1.1282559633255005;0.0;0.0;0.0
1050;0.0;0.0;0.0;0.20398399233818054;-0.1668960005044937;1.140944004058838;0.0;0.0;0.0
1052;0.0849120020866394;-0.019763998687267303;0.9882000088691711;0.21959999203681946;-0.16299200057983398;1.1126400232315063;-0.0043750000186264515;0.33249998092651367;0.4506250023841858
1054;0.0;0.0;0.0;0.1844639927148819;-0.1668960005044937;1.173151969909668;0.0;0.0;0.0
1056;0.0;0.0;0.0;0.1727519929409027;-0.1512800008058548;1.1614400148391724;0.0;0.0;0.0
1059;0.0;0.0;0.0;0.1727519929409027;-0.15908800065517426;1.1370400190353394;0.0;0.0;0.0
1061;0.08417999744415283;-0.02025200054049492;0.9901520013809204;0.18836799263954163;-0.1786080002784729;1.1526559591293335;0.06562499701976776;0.2581250071525574;0.4506250023841858
1063;0.0;0.0;0.0;0.2000799924135208;-0.15518400073051453;1.1282559633255005;0.0;0.0;0.0
1065;0.0;0.0;0.0;0.1844639927148819;-0.14737600088119507;1.1448479890823364;0.0;0.0;0.0
1067;0.0;0.0;0.0;0.19617599248886108;-0.1668960005044937;1.124351978302002;0.0;0.0;0.0
1069;0.08442399650812149;-0.02000799961388111;0.9901520013809204;0.18055999279022217;-0.14737600088119507;1.1370400190353394;0.13562500476837158;0.2581250071525574;0.4462500214576721
1071;0.0;0.0;0.0;0.19617599248886108;-0.16299200057983398;1.1282559633255005;0.0;0.0;0.0
1073;0.0;0.0;0.0;0.19227199256420135;-0.17080000042915344;1.124351978302002;0.0;0.0;0.0
1076;0.0;0.0;0.0;0.1844639927148819;-0.16299200057983398;1.1448479890823364;0.0;0.0;0.0
1078;0.0849120020866394;-0.02025200054049492;0.9889319539070129;0.18836799263954163;-0.1512800008058548;1.1282559633255005;0.06562499701976776;0.18812501430511475;0.4462500214576721
1080;0.0;0.0;0.0;0.2117919921875;-0.15518400073051453;1.148751974105835;0.0;0.0;0.0
1082;0.0;0.0;0.0;0.2000799924135208;-0.16299200057983398;1.132159948348999;0.0;0.0;0.0
1084;0.0;0.0;0.0;0.20398399233818054;-0.19422399997711182;1.1604639291763306;0.0;0.0;0.0
1086;0.08564399927854538;-0.02000799961388111;0.9894199967384338;0.18836799263954163;-0.16299200057983398;1.132159948348999;-0.0043750000186264515;0.32374998927116394;0.44187501072883606
1088;0.0;0.0;0.0;0.17665599286556244;-0.1786080002784729;1.132159948348999;0.0;0.0;0.0
1090;0.0;0.0;0.0;0.18055999279022217;-0.1239520013332367;1.1448479890823364;0.0;0.0;0.0
1093;0.0;0.0;0.0;0.18836799263954163;-0.1668960005044937;1.1526559591293335;0.0;0.0;0.0
1095;0.08417999744415283;-0.02000799961388111;0.9901520013809204;0.16103999316692352;-0.17080000042915344;1.1360639333724976;0.13124999403953552;0.32374998927116394;0.44187501072883606
1097;0.0;0.0;0.0;0.19617599248886108;-0.1786080002784729;1.1448479890823364;0.0;0.0;0.0
1099;0.0;0.0;0.0;0.18055999279022217;-0.15518400073051453;1.1448479890823364;0.0;0.0;0.0
1101;0.0;0.0;0.0;0.2000799924135208;-0.16299200057983398;1.132159948348999;0.0;0.0;0.0
1103;0.08466799557209015;-0.020739998668432236;0.9894199967384338;0.19227199256420135;-0.13176000118255615;1.132159948348999;0.13124999403953552;0.1837500035762787;0.4375
1105;0.0;0.0;0.0;0.1844639927148819;-0.14737600088119507;1.124351978302002;0.0;0.0;0.0
1107;0.0;0.0;0.0;0.18836799263954163;-0.15908800065517426;1.132159948348999;0.0;0.0;0.0
1110;0.0;0.0;0.0;0.21569599211215973;-0.1512800008058548;1.1448479890823364;0.0;0.0;0.0
1112;0.08661999553442001;-0.02000799961388111;0.9884439706802368;0.19227199256420135;-0.1512800008058548;1.132159948348999;0.061250001192092896;0.2537499964237213;0.4375
1114;0.0;0.0;0.0;0.19617599248886108;-0.13176000118255615;1.140944004058838;0.0;0.0;0.0
1116;0.0;0.0;0.0;0.19227199256420135;-0.1395680010318756;1.1282559633255005;0.0;0.0;0.0
1118;0.0;0.0;0.0;0.16591998934745789;-0.15518400073051453;1.140944004058838;0.0;0.0;0.0
1120;0.08564399927854538;-0.02025200054049492;0.9901520013809204;0.19227199256420135;-0.16299200057983398;1.132159948348999;0.061250001192092896;0.3193749785423279;0.503125011920929
1122;0.0;0.0;0.0;0.18055999279022217;-0.1786080002784729;1.132159948348999;0.0;0.0;0.0
1124;0.0;0.0;0.0;0.18836799263954163;-0.1512800008058548;1.1448479890823364;0.0;0.0;0.0
1127;0.0;0.0;0.0;0.20398399233818054;-0.15518400073051453;1.140944004058838;0.0;0.0;0.0
1129;0.08344800025224686;-0.019763998687267303;0.9913719892501831;0.19227199256420135;-0.17080000042915344;1.1370400190353394;0.061250001192092896;0.24937500059604645;0.43312501907348633
1131;0.0;0.0;0.0;0.18055999279022217;-0.15908800065517426;1.1526559591293335;0.0;0.0;0.0
1133;0.0;0.0;0.0;0.17665599286556244;-0.15908800065517426;1.124351978302002;0.0;0.0;0.0
1135;0.0;0.0;0.0;0.20398399233818054;-0.15908800065517426;1.1448479890823364;0.0;0.0;0.0
1137;0.08442399650812149;-0.02025200054049492;0.98990797996521;0.20398399233818054;-0.1512800008058548;1.1204479932785034;0.061250001192092896;0.109375;0.4987500011920929
1140;0.0;0.0;0.0;0.18836799263954163;-0.16299200057983398;1.1448479890823364;0.0;0.0;0.0
1141;0.0;0.0;0.0;0.1844639927148819;-0.1512800008058548;1.1370400190353394;0.0;0.0;0.0
1144;0.0;0.0;0.0;0.2117919921875;-0.16299200057983398;1.140944004058838;0.0;0.0;0.0
1146;0.08540000021457672;-0.02000799961388111;0.9882000088691711;0.21569599211215973;-0.15908800065517426;1.1604639291763306;0.13124999403953552;0.24937500059604645;0.42875000834465027
1148;0.0;0.0;0.0;0.18836799263954163;-0.13566400110721588;1.140944004058838;0.0;0.0;0.0
1150;0.0;0.0;0.0;0.1844639927148819;-0.14737600088119507;1.1282559633255005;0.0;0.0;0.0
1152;0.0;0.0;0.0;0.20398399233818054;-0.15908800065517426;1.132159948348999;0.0;0.0;0.0
1154;0.08417999744415283;-0.02025200054049492;0.9894199967384338;0.16884799301624298;-0.16299200057983398;1.1360639333724976;0.061250001192092896;0.3149999976158142;0.4243749976158142
1157;0.0;0.0;0.0;0.1727519929409027;-0.15908800065517426;1.1448479890823364;0.0;0.0;0.0
1159;0.0;0.0;0.0;0.20398399233818054;-0.15518400073051453;1.1360639333724976;0.0;0.0;0.0
1161;0.0;0.0;0.0;0.17665599286556244;-0.15518400073051453;1.140944004058838;0.0;0.0;0.0
1163;0.0849120020866394;-0.020495999604463577;0.98990797996521;0.18055999279022217;-0.14737600088119507;1.165343999862671;0.061250001192092896;0.24500000476837158;0.4243749976158142
1165;0.0;0.0;0.0;0.18836799263954163;-0.1239520013332367;1.1448479890823364;0.0;0.0;0.0
1167;0.0;0.0;0.0;0.19227199256420135;-0.1395680010318756;1.1526559591293335;0.0;0.0;0.0
1169;0.0;0.0;0.0;0.18836799263954163;-0.15908800065517426;1.1604639291763306;0.0;0.0;0.0
1171;0.08442399650812149;-0.02000799961388111;0.9903959631919861;0.19617599248886108;-0.1512800008058548;1.1204479932785034;0.13124999403953552;0.24500000476837158;0.42000001668930054
1174;0.0;0.0;0.0;0.19227199256420135;-0.14347200095653534;1.1370400190353394;0.0;0.0;0.0
1176;0.0;0.0;0.0;0.21569599211215973;-0.1512800008058548;1.140944004058838;0.0;0.0;0.0
1178;0.0;0.0;0.0;0.19227199256420135;-0.15518400073051453;1.140944004058838;0.0;0.0;0.0
1180;0.08442399650812149;-0.020983999595046043;0.9901520013809204;0.1844639927148819;-0.1395680010318756;1.140944004058838;0.12687499821186066;0.24062499403953552;0.42000001668930054
1182;0.0;0.0;0.0;0.18055999279022217;-0.1786080002784729;1.156559944152832;0.0;0.0;0.0
1184;0.0;0.0;0.0;0.17665599286556244;-0.14347200095653534;1.1448479890823364;0.0;0.0;0.0
1186;0.0;0.0;0.0;0.19617599248886108;-0.14737600088119507;1.1370400190353394;0.0;0.0;0.0
1188;0.08466799557209015;-0.02025200054049492;0.9901520013809204;0.1844639927148819;-0.1512800008058548;1.156559944152832;0.05687499791383743;0.24062499403953552;0.4156250059604645
1191;0.0;0.0;0.0;0.19617599248886108;-0.14347200095653534;1.1370400190353394;0.0;0.0;0.0
1193;0.0;0.0;0.0;0.1727519929409027;-0.17080000042915344;1.140944004058838;0.0;0.0;0.0
1195;0.0;0.0;0.0;0.19227199256420135;-0.1512800008058548;1.148751974105835;0.0;0.0;0.0
1197;0.08515600115060806;-0.020495999604463577;0.9889319539070129;0.18055999279022217;-0.15518400073051453;1.140944004058838;0.05687499791383743;0.24062499403953552;0.4156250059604645
1199;0.0;0.0;0.0;0.18055999279022217;-0.14347200095653534;1.1360639333724976;0.0;0.0;0.0
1201;0.0;0.0;0.0;0.2000799924135208;-0.15908800065517426;1.1370400190353394;0.0;0.0;0.0
1203;0.0;0.0;0.0;0.2000799924135208;-0.18251200020313263;1.1448479890823364;0.0;0.0;0.0
1205;0.0849120020866394;-0.02025200054049492;0.9894199967384338;0.2000799924135208;-0.1668960005044937;1.140944004058838;0.05687499791383743;0.24062499403953552;0.4112499952316284
1208;0.0;0.0;0.0;0.20398399233818054;-0.14737600088119507;1.1526559591293335;0.0;0.0;0.0
1210;0.0;0.0;0.0;0.19617599248886108;-0.16299200057983398;1.1448479890823364;0.0;0.0;0.0
1212;0.0;0.0;0.0;0.21959999203681946;-0.16299200057983398;1.1370400190353394;0.0;0.0;0.0
1214;0.08417999744415283;-0.02000799961388111;0.9901520013809204;0.19227199256420135;-0.17470400035381317;1.1448479890823364;0.05687499791383743;0.3062500059604645;0.4112499952316284
1216;0.0;0.0;0.0;0.2117919921875;-0.17470400035381317;1.1448479890823364;0.0;0.0;0.0
1218;0.0;0.0;0.0;0.19227199256420135;-0.1512800008058548;1.156559944152832;0.0;0.0;0.0
1220;0.0;0.0;0.0;0.2000799924135208;-0.17470400035381317;1.1526559591293335;0.0;0.0;0.0
1222;0.08466799557209015;-0.02000799961388111;0.9903959631919861;0.20788799226284027;-0.1668960005044937;1.1370400190353394;0.19687500596046448;0.16625000536441803;0.40687501430511475
1225;0.0;0.0;0.0;0.18836799263954163;-0.13176000118255615;1.148751974105835;0.0;0.0;0.0
1227;0.0;0.0;0.0;0.1844639927148819;-0.1668960005044937;1.1165440082550049;0.0;0.0;0.0
1229;0.0;0.0;0.0;0.2000799924135208;-0.1512800008058548;1.1370400190353394;0.0;0.0;0.0
1231;0.08540000021457672;-0.020495999604463577;0.9903959631919861;0.20788799226284027;-0.1395680010318756;1.1165440082550049;0.05687499791383743;0.23624999821186066;0.40687501430511475
1233;0.0;0.0;0.0;0.19227199256420135;-0.17470400035381317;1.140944004058838;0.0;0.0;0.0
1235;0.0;0.0;0.0;0.19617599248886108;-0.1668960005044937;1.1448479890823364;0.0;0.0;0.0
1237;0.0;0.0;0.0;0.19617599248886108;-0.1512800008058548;1.132159948348999;0.0;0.0;0.0
1239;0.08417999744415283;-0.02122800052165985;0.990884006023407;0.18836799263954163;-0.16299200057983398;1.156559944152832;0.05687499791383743;0.2318750023841858;0.4025000035762787
1241;0.0;0.0;0.0;0.16884799301624298;-0.14347200095653534;1.140944004058838;0.0;0.0;0.0
1244;0.0;0.0;0.0;0.19617599248886108;-0.14347200095653534;1.1448479890823364;0.0;0.0;0.0
1246;0.0;0.0;0.0;0.20398399233818054;-0.1512800008058548;1.1370400190353394;0.0;0.0;0.0
1248;0.08466799557209015;-0.020495999604463577;0.9901520013809204;0.20788799226284027;-0.1512800008058548;1.124351978302002;0.12687499821186066;0.16187500953674316;0.4025000035762787
1250;0.0;0.0;0.0;0.18836799263954163;-0.15518400073051453;1.140944004058838;0.0;0.0;0.0
1252;0.0;0.0;0.0;0.17665599286556244;-0.14737600088119507;1.1526559591293335;0.0;0.0;0.0
1254;0.0;0.0;0.0;0.18055999279022217;-0.14737600088119507;1.132159948348999;0.0;0.0;0.0
1256;0.08588799834251404;-0.02025200054049492;0.9889319539070129;0.18836799263954163;-0.15908800065517426;1.1282559633255005;0.12687499821186066;0.2318750023841858;0.46812498569488525
1259;0.0;0.0;0.0;0.20398399233818054;-0.14347200095653534;1.124351978302002;0.0;0.0;0.0
1261;0.0;0.0;0.0;0.17665599286556244;-0.1512800008058548;1.1360639333724976;0.0;0.0;0.0
1263;0.0;0.0;0.0;0.1844639927148819;-0.1668960005044937;1.132159948348999;0.0;0.0;0.0
1265;0.08442399650812149;-0.02025200054049492;0.98990797996521;0.18836799263954163;-0.17470400035381317;1.1370400190353394;0.05687499791383743;0.37187501788139343;0.3981249928474426
1267;0.0;0.0;0.0;0.1844639927148819;-0.15518400073051453;1.140944004058838;0.0;0.0;0.0
1269;0.0;0.0;0.0;0.2000799924135208;-0.1395680010318756;1.156559944152832;0.0;0.0;0.0
1271;0.0;0.0;0.0;0.2000799924135208;-0.15518400073051453;1.1448479890823364;0.0;0.0;0.0
1273;0.08344800025224686;-0.02122800052165985;0.9911279678344727;0.2000799924135208;-0.14347200095653534;1.1692479848861694;0.12250000238418579;0.22749999165534973;0.39375001192092896
1276;0.0;0.0;0.0;0.2000799924135208;-0.12785600125789642;1.1370400190353394;0.0;0.0;0.0
1278;0.0;0.0;0.0;0.19227199256420135;-0.17470400035381317;1.1204479932785034;0.0;0.0;0.0
1280;0.0;0.0;0.0;0.19617599248886108;-0.15518400073051453;1.1360639333724976;0.0;0.0;0.0
1282;0.0849120020866394;-0.020495999604463577;0.9894199967384338;0.18836799263954163;-0.15908800065517426;1.1526559591293335;0.12250000238418579;0.22749999165534973;0.39375001192092896
1284;0.0;0.0;0.0;0.16884799301624298;-0.14347200095653534;1.1604639291763306;0.0;0.0;0.0
1286;0.0;0.0;0.0;0.19617599248886108;-0.1395680010318756;1.1448479890823364;0.0;0.0;0.0
1288;0.0;0.0;0.0;0.2000799924135208;-0.15908800065517426;1.1604639291763306;0.0;0.0;0.0
1290;0.08417999744415283;-0.02000799961388111;0.98990797996521;0.2117919921875;-0.15518400073051453;1.124351978302002;0.12250000238418579;0.22749999165534973;0.39375001192092896
1293;0.0;0.0;0.0;0.20398399233818054;-0.13176000118255615;1.156559944152832;0.0;0.0;0.0
1295;0.0;0.0;0.0;0.1844639927148819;-0.1512800008058548;1.1448479890823364;0.0;0.0;0.0
1297;0.0;0.0;0.0;0.19227199256420135;-0.15908800065517426;1.148751974105835;0.0;0.0;0.0
1299;0.0849120020866394;-0.02025200054049492;0.9896639585494995;0.18055999279022217;-0.16299200057983398;1.1282559633255005;0.12250000238418579;0.2931250035762787;0.3893750011920929
1301;0.0;0.0;0.0;0.16494399309158325;-0.15518400073051453;1.1204479932785034;0.0;0.0;0.0
1303;0.0;0.0;0.0;0.18055999279022217;-0.15518400073051453;1.148751974105835;0.0;0.0;0.0
1305;0.0;0.0;0.0;0.19227199256420135;-0.12785600125789642;1.1448479890823364;0.0;0.0;0.0
1307;0.08417999744415283;-0.020495999604463577;0.9894199967384338;0.1844639927148819;-0.1395680010318756;1.132159948348999;0.12250000238418579;0.2931250035762787;0.3893750011920929
1310;0.0;0.0;0.0;0.20398399233818054;-0.1668960005044937;1.1370400190353394;0.0;0.0;0.0
1312;0.0;0.0;0.0;0.19617599248886108;-0.17080000042915344;1.1448479890823364;0.0;0.0;0.0
1314;0.0;0.0;0.0;0.2000799924135208;-0.1512800008058548;1.1360639333724976;0.0;0.0;0.0
1316;0.08442399650812149;-0.020739998668432236;0.990884006023407;0.2000799924135208;-0.16299200057983398;1.140944004058838;0.05250000208616257;0.22312499582767487;0.38499999046325684
1318;0.0;0.0;0.0;0.19227199256420135;-0.13176000118255615;1.1360639333724976;0.0;0.0;0.0
1320;0.0;0.0;0.0;0.22740799188613892;-0.14347200095653534;1.156559944152832;0.0;0.0;0.0
1322;0.0;0.0;0.0;0.16494399309158325;-0.14737600088119507;1.1448479890823364;0.0;0.0;0.0
1324;0.08564399927854538;-0.019276000559329987;0.98990797996521;0.19617599248886108;-0.15518400073051453;1.1360639333724976;0.12250000238418579;0.2931250035762787;0.45499998331069946
1327;0.0;0.0;0.0;0.18836799263954163;-0.15908800065517426;1.1448479890823364;0.0;0.0;0.0
1329;0.0;0.0;0.0;0.19227199256420135;-0.1395680010318756;1.140944004058838;0.0;0.0;0.0
1331;0.0;0.0;0.0;0.2000799924135208;-0.15518400073051453;1.173151969909668;0.0;0.0;0.0
1333;0.08515600115060806;-0.02025200054049492;0.990884006023407;0.19227199256420135;-0.14347200095653534;1.1448479890823364;-0.017500000074505806;0.2887499928474426;0.38062500953674316
1335;0.0;0.0;0.0;0.20398399233818054;-0.16299200057983398;1.1526559591293335;0.0;0.0;0.0
1337;0.0;0.0;0.0;0.1727519929409027;-0.15908800065517426;1.1370400190353394;0.0;0.0;0.0
1339;0.0;0.0;0.0;0.19617599248886108;-0.1668960005044937;1.148751974105835;0.0;0.0;0.0
1341;0.08344800025224686;-0.020495999604463577;0.9918599724769592;0.17665599286556244;-0.1512800008058548;1.132159948348999;0.12250000238418579;0.2887499928474426;0.38062500953674316
1344;0.0;0.0;0.0;0.16884799301624298;-0.1512800008058548;1.1526559591293335;0.0;0.0;0.0
1346;0.0;0.0;0.0;0.18836799263954163;-0.14737600088119507;1.156559944152832;0.0;0.0;0.0
1348;0.0;0.0;0.0;0.19617599248886108;-0.17470400035381317;1.156559944152832;0.0;0.0;0.0
1350;0.08564399927854538;-0.02000799961388111;0.9889319539070129;0.20788799226284027;-0.1395680010318756;1.1448479890823364;0.11812499910593033;0.008749999105930328;0.3762499988079071
1352;0.0;0.0;0.0;0.18836799263954163;-0.17470400035381317;1.1370400190353394;0.0;0.0;0.0
1354;0.0;0.0;0.0;0.19617599248886108;-0.1903200000524521;1.1526559591293335;0.0;0.0;0.0
1356;0.0;0.0;0.0;0.18836799263954163;-0.15518400073051453;1.1448479890823364;0.0;0.0;0.0
1358;0.08759599924087524;-0.019276000559329987;0.9894199967384338;0.1844639927148819;-0.19422399997711182;1.132159948348999;0.11812499910593033;0.3543750047683716;0.3762499988079071
1361;0.0;0.0;0.0;0.1727519929409027;-0.1512800008058548;1.1526559591293335;0.0;0.0;0.0
1363;0.0;0.0;0.0;0.19227199256420135;-0.15518400073051453;1.140944004058838;0.0;0.0;0.0
1365;0.0;0.0;0.0;0.2117919921875;-0.19422399997711182;1.124351978302002;0.0;0.0;0.0
1367;0.08149600028991699;-0.020983999595046043;0.9916160106658936;0.18055999279022217;-0.1395680010318756;1.140944004058838;-0.02187499962747097;0.3543750047683716;0.37187501788139343
1369;0.0;0.0;0.0;0.19227199256420135;-0.1512800008058548;1.1204479932785034;0.0;0.0;0.0
1371;0.0;0.0;0.0;0.2000799924135208;-0.1512800008058548;1.1448479890823364;0.0;0.0;0.0
1373;0.0;0.0;0.0;0.2000799924135208;-0.17470400035381317;1.1448479890823364;0.0;0.0;0.0
1375;0.08466799557209015;-0.02000799961388111;0.98990797996521;0.2000799924135208;-0.15518400073051453;1.140944004058838;0.18812501430511475;0.004375003278255463;0.44187501072883606
1378;0.0;0.0;0.0;0.18836799263954163;-0.15908800065517426;1.1204479932785034;0.0;0.0;0.0
1380;0.0;0.0;0.0;0.18055999279022217;-0.1668960005044937;1.132159948348999;0.0;0.0;0.0
1382;0.0;0.0;0.0;0.21569599211215973;-0.14737600088119507;1.1370400190353394;0.0;0.0;0.0
1384;0.08735200017690659;-0.019763998687267303;0.9879559874534607;0.17665599286556244;-0.14347200095653534;1.1360639333724976;0.18812501430511475;0.1443750113248825;0.37187501788139343
1386;0.0;0.0;0.0;0.18836799263954163;-0.15518400073051453;1.148751974105835;0.0;0.0;0.0
1388;0.0;0.0;0.0;0.17665599286556244;-0.15518400073051453;1.1526559591293335;0.0;0.0;0.0
1390;0.0;0.0;0.0;0.18836799263954163;-0.15518400073051453;1.140944004058838;0.0;0.0;0.0
1392;0.08540000021457672;-0.019763998687267303;0.9884439706802368;0.18836799263954163;-0.13176000118255615;1.1448479890823364;0.048124998807907104;0.3543750047683716;0.3675000071525574
1395;0.0;0.0;0.0;0.20398399233818054;-0.1786080002784729;1.124351978302002;0.0;0.0;0.0
1397;0.0;0.0;0.0;0.1844639927148819;-0.17080000042915344;1.1526559591293335;0.0;0.0;0.0
1399;0.0;0.0;0.0;0.19617599248886108;-0.14347200095653534;1.156559944152832;0.0;0.0;0.0
1401;0.0832040011882782;-0.02147199958562851;0.9896639585494995;0.16494399309158325;-0.1512800008058548;1.1448479890823364;0.048124998807907104;0.2800000011920929;0.3675000071525574
1403;0.0;0.0;0.0;0.20788799226284027;-0.16299200057983398;1.156559944152832;0.0;0.0;0.0
1405;0.0;0.0;0.0;0.19617599248886108;-0.16299200057983398;1.165343999862671;0.0;0.0;0.0
1407;0.0;0.0;0.0;0.18836799263954163;-0.16299200057983398;1.140944004058838;0.0;0.0;0.0
1409;0.08564399927854538;-0.020983999595046043;0.98990797996521;0.2000799924135208;-0.15518400073051453;1.1448479890823364;0.11812499910593033;0.14000001549720764;0.3631250262260437
1412;0.0;0.0;0.0;0.2000799924135208;-0.15518400073051453;1.1448479890823364;0.0;0.0;0.0
1414;0.0;0.0;0.0;0.1844639927148819;-0.16299200057983398;1.1370400190353394;0.0;0.0;0.0
1416;0.0;0.0;0.0;0.21569599211215973;-0.1512800008058548;1.1370400190353394;0.0;0.0;0.0
1418;0.08588799834251404;-0.02000799961388111;0.9891759753227234;0.17665599286556244;-0.1668960005044937;1.1370400190353394;0.048124998807907104;0.21000000834465027;0.3631250262260437
1420;0.0;0.0;0.0;0.20398399233818054;-0.14347200095653534;1.1448479890823364;0.0;0.0;0.0
1422;0.0;0.0;0.0;0.18836799263954163;-0.15908800065517426;1.156559944152832;0.0;0.0;0.0
1424;0.0;0.0;0.0;0.1844639927148819;-0.14347200095653534;1.132159948348999;0.0;0.0;0.0
1426;0.08442399650812149;-0.02025200054049492;0.9906399846076965;0.1844639927148819;-0.1395680010318756;1.1282559633255005;0.04374999925494194;0.21000000834465027;0.35875001549720764
1429;0.0;0.0;0.0;0.1844639927148819;-0.14347200095653534;1.140944004058838;0.0;0.0;0.0
1431;0.0;0.0;0.0;0.20788799226284027;-0.16299200057983398;1.1204479932785034;0.0;0.0;0.0
1433;0.0;0.0;0.0;0.19227199256420135;-0.1668960005044937;1.156559944152832;0.0;0.0;0.0
1435;0.08442399650812149;-0.020739998668432236;0.98990797996521;0.17665599286556244;-0.15908800065517426;1.1126400232315063;0.04374999925494194;0.13562500476837158;0.35875001549720764
1437;0.0;0.0;0.0;0.19227199256420135;-0.15908800065517426;1.156559944152832;0.0;0.0;0.0
1439;0.0;0.0;0.0;0.21569599211215973;-0.14737600088119507;1.148751974105835;0.0;0.0;0.0
1441;0.0;0.0;0.0;0.16494399309158325;-0.14347200095653534;1.156559944152832;0.0;0.0;0.0
1443;0.08466799557209015;-0.02000799961388111;0.9894199967384338;0.20398399233818054;-0.1512800008058548;1.148751974105835;-0.026250001043081284;0.27562499046325684;0.35875001549720764
1446;0.0;0.0;0.0;0.20398399233818054;-0.1512800008058548;1.132159948348999;0.0;0.0;0.0
1448;0.0;0.0;0.0;0.2000799924135208;-0.1786080002784729;1.1448479890823364;0.0;0.0;0.0
1450;0.0;0.0;0.0;0.1844639927148819;-0.1239520013332367;1.1448479890823364;0.0;0.0;0.0
1452;0.08247199654579163;-0.02122800052165985;0.98990797996521;0.19617599248886108;-0.15908800065517426;1.1282559633255005;0.11374999582767487;0.2056249976158142;0.3543750047683716
1454;0.0;0.0;0.0;0.19617599248886108;-0.15518400073051453;1.1604639291763306;0.0;0.0;0.0
1456;0.0;0.0;0.0;0.20398399233818054;-0.14347200095653534;1.1448479890823364;0.0;0.0;0.0
1458;0.0;0.0;0.0;0.2117919921875;-0.15518400073051453;1.132159948348999;0.0;0.0;0.0
1461;0.08344800025224686;-0.02000799961388111;0.9884439706802368;0.19227199256420135;-0.16299200057983398;1.1282559633255005;0.1837500035762787;-0.004375003278255463;0.3543750047683716
1463;0.0;0.0;0.0;0.19617599248886108;-0.13176000118255615;1.148751974105835;0.0;0.0;0.0
1465;0.0;0.0;0.0;0.2000799924135208;-0.15908800065517426;1.1282559633255005;0.0;0.0;0.0
1467;0.0;0.0;0.0;0.18055999279022217;-0.1512800008058548;1.132159948348999;0.0;0.0;0.0
1469;0.08686399459838867;-0.019519999623298645;0.9869799613952637;0.19617599248886108;-0.15908800065517426;1.1448479890823364;0.04374999925494194;0.2056249976158142;0.3500000238418579
1471;0.0;0.0;0.0;0.18836799263954163;-0.15908800065517426;1.148751974105835;0.0;0.0;0.0
1473;0.0;0.0;0.0;0.2000799924135208;-0.1395680010318756;1.148751974105835;0.0;0.0;0.0
1475;0.0;0.0;0.0;0.1727519929409027;-0.15908800065517426;1.1282559633255005;0.0;0.0;0.0
1477;0.08393599838018417;-0.020739998668432236;0.9903959631919861;0.1844639927148819;-0.1512800008058548;1.156559944152832;-0.026250001043081284;0.5512499809265137;0.3500000238418579
1480;0.0;0.0;0.0;0.17665599286556244;-0.1668960005044937;1.1448479890823364;0.0;0.0;0.0
1482;0.0;0.0;0.0;0.1727519929409027;-0.14347200095653534;1.148751974105835;0.0;0.0;0.0
1484;0.0;0.0;0.0;0.17665599286556244;-0.15518400073051453;1.140944004058838;0.0;0.0;0.0
1486;0.08149600028991699;-0.022204000502824783;0.9921039938926697;0.2117919921875;-0.14347200095653534;1.132159948348999;0.11374999582767487;0.20125000178813934;0.3500000238418579
1488;0.0;0.0;0.0;0.2117919921875;-0.14737600088119507;1.140944004058838;0.0;0.0;0.0
1490;0.0;0.0;0.0;0.21569599211215973;-0.15518400073051453;1.140944004058838;0.0;0.0;0.0
1492;0.0;0.0;0.0;0.18055999279022217;-0.14737600088119507;1.1448479890823364;0.0;0.0;0.0
1495;0.08515600115060806;-0.020983999595046043;0.9884439706802368;0.20398399233818054;-0.15908800065517426;1.140944004058838;0.11374999582767487;-0.07874999940395355;0.34562501311302185
1497;0.0;0.0;0.0;0.2000799924135208;-0.17080000042915344;1.132159948348999;0.0;0.0;0.0
1499;0.0;0.0;0.0;0.19617599248886108;-0.15908800065517426;1.1282559633255005;0.0;0.0;0.0
1501;0.0;0.0;0.0;0.20398399233818054;-0.15908800065517426;1.140944004058838;0.0;0.0;0.0
1503;0.0878399983048439;-0.01903199963271618;0.9882000088691711;0.21569599211215973;-0.17470400035381317;1.140944004058838;0.04374999925494194;0.27125000953674316;0.34562501311302185
1505;0.0;0.0;0.0;0.18055999279022217;-0.1512800008058548;1.1370400190353394;0.0;0.0;0.0
1507;0.0;0.0;0.0;0.19617599248886108;-0.16299200057983398;1.148751974105835;0.0;0.0;0.0
1509;0.0;0.0;0.0;0.1844639927148819;-0.15518400073051453;1.156559944152832;0.0;0.0;0.0
1512;0.08417999744415283;-0.02000799961388111;0.990884006023407;0.17665599286556244;-0.17080000042915344;1.1448479890823364;-0.09624999761581421;0.4768750071525574;0.4112499952316284
1514;0.0;0.0;0.0;0.1844639927148819;-0.1395680010318756;1.1448479890823364;0.0;0.0;0.0
1516;0.0;0.0;0.0;0.19617599248886108;-0.15518400073051453;1.1282559633255005;0.0;0.0;0.0
1518;0.0;0.0;0.0;0.2000799924135208;-0.16299200057983398;1.156559944152832;0.0;0.0;0.0
1520;0.08271599560976028;-0.020983999595046043;0.990884006023407;0.17665599286556244;-0.17080000042915344;1.1282559633255005;0.04374999925494194;0.19687500596046448;0.3412500023841858
1522;0.0;0.0;0.0;0.18055999279022217;-0.1512800008058548;1.140944004058838;0.0;0.0;0.0
1524;0.0;0.0;0.0;0.18055999279022217;-0.15908800065517426;1.140944004058838;0.0;0.0;0.0
1526;0.0;0.0;0.0;0.2000799924135208;-0.15518400073051453;1.1614400148391724;0.0;0.0;0.0
1529;0.08515600115060806;-0.020495999604463577;0.9901520013809204;0.2000799924135208;-0.17080000042915344;1.132159948348999;0.11374999582767487;0.05687499791383743;0.4112499952316284
1531;0.0;0.0;0.0;0.19617599248886108;-0.1395680010318756;1.140944004058838;0.0;0.0;0.0
1533;0.0;0.0;0.0;0.18055999279022217;-0.1512800008058548;1.132159948348999;0.0;0.0;0.0
1535;0.0;0.0;0.0;0.18055999279022217;-0.16299200057983398;1.165343999862671;0.0;0.0;0.0
1537;0.08637599647045135;-0.02000799961388111;0.9882000088691711;0.1844639927148819;-0.17080000042915344;1.124351978302002;0.11374999582767487;0.12687501311302185;0.3368750214576721
1539;0.0;0.0;0.0;0.1727519929409027;-0.1668960005044937;1.132159948348999;0.0;0.0;0.0
1541;0.0;0.0;0.0;0.16884799301624298;-0.14737600088119507;1.1282559633255005;0.0;0.0;0.0
1543;0.0;0.0;0.0;0.1844639927148819;-0.14737600088119507;1.1448479890823364;0.0;0.0;0.0
1546;0.08540000021457672;-0.02025200054049492;0.9891759753227234;0.19227199256420135;-0.17080000042915344;1.1370400190353394;0.04374999925494194;0.26249998807907104;0.3368750214576721
1548;0.0;0.0;0.0;0.19227199256420135;-0.1395680010318756;1.140944004058838;0.0;0.0;0.0
1550;0.0;0.0;0.0;0.2000799924135208;-0.1395680010318756;1.165343999862671;0.0;0.0;0.0
1552;0.0;0.0;0.0;0.2000799924135208;-0.16299200057983398;1.1448479890823364;0.0;0.0;0.0
1554;0.0861319974064827;-0.020739998668432236;0.9901520013809204;0.20788799226284027;-0.1395680010318756;1.140944004058838;0.04374999925494194;0.19249999523162842;0.33250001072883606
1556;0.0;0.0;0.0;0.19227199256420135;-0.17080000042915344;1.1448479890823364;0.0;0.0;0.0
1558;0.0;0.0;0.0;0.20788799226284027;-0.17470400035381317;1.1370400190353394;0.0;0.0;0.0
1560;0.0;0.0;0.0;0.20788799226284027;-0.1512800008058548;1.1282559633255005;0.0;0.0;0.0
1563;0.08515600115060806;-0.020739998668432236;0.9911279678344727;0.2000799924135208;-0.15518400073051453;1.1370400190353394;0.039374999701976776;0.19249999523162842;0.33250001072883606
1565;0.0;0.0;0.0;0.22740799188613892;-0.14347200095653534;1.107759952545166;0.0;0.0;0.0
1567;0.0;0.0;0.0;0.2000799924135208;-0.17080000042915344;1.132159948348999;0.0;0.0;0.0
1569;0.0;0.0;0.0;0.19227199256420135;-0.18641600012779236;1.1526559591293335;0.0;0.0;0.0
1571;0.08540000021457672;-0.02025200054049492;0.9903959631919861;0.1844639927148819;-0.15518400073051453;1.1370400190353394;0.109375;0.05250000208616257;0.33250001072883606
1573;0.0;0.0;0.0;0.21959999203681946;-0.15518400073051453;1.132159948348999;0.0;0.0;0.0
1575;0.0;0.0;0.0;0.19617599248886108;-0.17080000042915344;1.156559944152832;0.0;0.0;0.0
1577;0.0;0.0;0.0;0.19227199256420135;-0.17080000042915344;1.140944004058838;0.0;0.0;0.0
1580;0.08710800111293793;-0.019276000559329987;0.9896639585494995;0.2117919921875;-0.15518400073051453;1.1370400190353394;0.109375;0.12250000983476639;0.328125
1582;0.0;0.0;0.0;0.18836799263954163;-0.17470400035381317;1.1204479932785034;0.0;0.0;0.0
1584;0.0;0.0;0.0;0.19617599248886108;-0.1395680010318756;1.132159948348999;0.0;0.0;0.0
1586;0.0;0.0;0.0;0.18836799263954163;-0.1668960005044937;1.1360639333724976;0.0;0.0;0.0
1588;0.0861319974064827;-0.02000799961388111;0.9894199967384338;0.20398399233818054;-0.1512800008058548;1.148751974105835;0.039374999701976776;0.328125;0.328125
1590;0.0;0.0;0.0;0.19617599248886108;-0.1786080002784729;1.140944004058838;0.0;0.0;0.0
1592;0.0;0.0;0.0;0.2000799924135208;-0.14347200095653534;1.1360639333724976;0.0;0.0;0.0
1594;0.0;0.0;0.0;0.20788799226284027;-0.16299200057983398;1.1448479890823364;0.0;0.0;0.0
1597;0.08393599838018417;-0.02000799961388111;0.9916160106658936;0.18055999279022217;-0.15908800065517426;1.1370400190353394;0.039374999701976776;0.2581250071525574;0.32375001907348633
1599;0.0;0.0;0.0;0.20398399233818054;-0.17080000042915344;1.1526559591293335;0.0;0.0;0.0
1601;0.0;0.0;0.0;0.1844639927148819;-0.15908800065517426;1.1692479848861694;0.0;0.0;0.0
1603;0.0;0.0;0.0;0.17665599286556244;-0.16299200057983398;1.1448479890823364;0.0;0.0;0.0
1605;0.08417999744415283;-0.02000799961388111;0.990884006023407;0.20398399233818054;-0.16299200057983398;1.140944004058838;0.109375;0.11812500655651093;0.32375001907348633
1607;0.0;0.0;0.0;0.17665599286556244;-0.1395680010318756;1.140944004058838;0.0;0.0;0.0
1609;0.0;0.0;0.0;0.2000799924135208;-0.1512800008058548;1.1448479890823364;0.0;0.0;0.0
1611;0.0;0.0;0.0;0.2000799924135208;-0.14347200095653534;1.132159948348999;0.0;0.0;0.0
1614;0.08540000021457672;-0.019519999623298645;0.9879559874534607;0.19617599248886108;-0.16299200057983398;1.1370400190353394;0.109375;0.048124998807907104;0.32375001907348633
1616;0.0;0.0;0.0;0.20788799226284027;-0.1668960005044937;1.1448479890823364;0.0;0.0;0.0
1618;0.0;0.0;0.0;0.20788799226284027;-0.17080000042915344;1.140944004058838;0.0;0.0;0.0
1620;0.0;0.0;0.0;0.19227199256420135;-0.1668960005044937;1.1204479932785034;0.0;0.0;0.0
1622;0.08564399927854538;-0.02000799961388111;0.9877119660377502;0.2000799924135208;-0.15518400073051453;1.1165440082550049;0.039374999701976776;0.2581250071525574;0.31937500834465027
1624;0.0;0.0;0.0;0.1844639927148819;-0.15518400073051453;1.1370400190353394;0.0;0.0;0.0
1626;0.0;0.0;0.0;0.19617599248886108;-0.1395680010318756;1.148751974105835;0.0;0.0;0.0
1628;0.0;0.0;0.0;0.2117919921875;-0.14347200095653534;1.140944004058838;0.0;0.0;0.0
1631;0.08247199654579163;-0.020495999604463577;0.9896639585494995;0.1844639927148819;-0.1668960005044937;1.1448479890823364;-0.030625000596046448;0.39375001192092896;0.3893750011920929
1633;0.0;0.0;0.0;0.20398399233818054;-0.1903200000524521;1.148751974105835;0.0;0.0;0.0
1635;0.0;0.0;0.0;0.19227199256420135;-0.17080000042915344;1.1360639333724976;0.0;0.0;0.0
1637;0.0;0.0;0.0;0.2117919921875;-0.16299200057983398;1.1360639333724976;0.0;0.0;0.0
1639;0.08247199654579163;-0.021715998649597168;0.9906399846076965;0.2000799924135208;-0.17470400035381317;1.1614400148391724;0.039374999701976776;0.1837500035762787;0.31937500834465027
1641;0.0;0.0;0.0;0.2000799924135208;-0.1395680010318756;1.1692479848861694;0.0;0.0;0.0
1643;0.0;0.0;0.0;0.18836799263954163;-0.17080000042915344;1.1282559633255005;0.0;0.0;0.0
1645;0.0;0.0;0.0;0.19227199256420135;-0.1668960005044937;1.1360639333724976;0.0;0.0;0.0
1648;0.08417999744415283;-0.020495999604463577;0.9889319539070129;0.2000799924135208;-0.1512800008058548;1.1165440082550049;0.109375;0.11375001072883606;0.3149999976158142
1650;0.0;0.0;0.0;0.21569599211215973;-0.16299200057983398;1.1370400190353394;0.0;0.0;0.0
1652;0.0;0.0;0.0;0.1727519929409027;-0.1668960005044937;1.124351978302002;0.0;0.0;0.0
1654;0.0;0.0;0.0;0.18836799263954163;-0.16299200057983398;1.124351978302002;0.0;0.0;0.0
1656;0.08442399650812149;-0.019763998687267303;0.9886879920959473;0.1727519929409027;-0.14737600088119507;1.148751974105835;0.039374999701976776;0.24937498569488525;0.3149999976158142
1658;0.0;0.0;0.0;0.17665599286556244;-0.18251200020313263;1.1419199705123901;0.0;0.0;0.0
1660;0.0;0.0;0.0;0.18055999279022217;-0.13176000118255615;1.1292319297790527;0.0;0.0;0.0
1663;0.0;0.0;0.0;0.19227199256420135;-0.15908800065517426;1.1663199663162231;0.0;0.0;0.0
1665;0.0832040011882782;-0.020739998668432236;0.9906399846076965;0.17665599286556244;-0.17080000042915344;1.1458239555358887;0.039374999701976776;0.31937500834465027;0.31062501668930054
1667;0.0;0.0;0.0;0.19227199256420135;-0.17470400035381317;1.1419199705123901;0.0;0.0;0.0
1669;0.0;0.0;0.0;0.2000799924135208;-0.17470400035381317;1.1458239555358887;0.0;0.0;0.0
1671;0.0;0.0;0.0;0.2000799924135208;-0.15518400073051453;1.1292319297790527;0.0;0.0;0.0
1673;0.08344800025224686;-0.020495999604463577;0.990884006023407;0.17665599286556244;-0.1512800008058548;1.1536319255828857;0.109375;0.17937499284744263;0.24062500894069672
1675;0.0;0.0;0.0;0.19617599248886108;-0.14347200095653534;1.1253279447555542;0.0;0.0;0.0
1677;0.0;0.0;0.0;0.20398399233818054;-0.1512800008058548;1.1663199663162231;0.0;0.0;0.0
1680;0.0;0.0;0.0;0.2235039919614792;-0.17080000042915344;1.1458239555358887;0.0;0.0;0.0
1682;0.08515600115060806;-0.02000799961388111;0.9896639585494995;0.19227199256420135;-0.17470400035381317;1.1214239597320557;0.10500000417232513;0.039374999701976776;0.31062501668930054
1684;0.0;0.0;0.0;0.2000799924135208;-0.14347200095653534;1.1331360340118408;0.0;0.0;0.0
1686;0.0;0.0;0.0;0.18836799263954163;-0.14737600088119507;1.1214239597320557;0.0;0.0;0.0
1688;0.0;0.0;0.0;0.19617599248886108;-0.15908800065517426;1.1497279405593872;0.0;0.0;0.0
1690;0.08588799834251404;-0.019763998687267303;0.9894199967384338;0.18055999279022217;-0.17080000042915344;1.1380159854888916;0.10500000417232513;0.24937498569488525;0.3062500059604645
1692;0.0;0.0;0.0;0.16884799301624298;-0.1512800008058548;1.1370400190353394;0.0;0.0;0.0
1694;0.0;0.0;0.0;0.21569599211215973;-0.1668960005044937;1.1614400148391724;0.0;0.0;0.0
1697;0.0;0.0;0.0;0.2235039919614792;-0.14347200095653534;1.148751974105835;0.0;0.0;0.0
1699;0.0849120020866394;-0.020739998668432236;0.9906399846076965;0.19227199256420135;-0.1512800008058548;1.156559944152832;0.03500000014901161;0.17499999701976776;0.3062500059604645
1701;0.0;0.0;0.0;0.20788799226284027;-0.14347200095653534;1.1604639291763306;0.0;0.0;0.0
1703;0.0;0.0;0.0;0.19227199256420135;-0.16299200057983398;1.156559944152832;0.0;0.0;0.0
1705;0.0;0.0;0.0;0.19227199256420135;-0.1668960005044937;1.124351978302002;0.0;0.0;0.0
1707;0.08515600115060806;-0.02025200054049492;0.9903959631919861;0.2117919921875;-0.14737600088119507;1.132159948348999;0.10500000417232513;0.10500000417232513;0.3062500059604645
1709;0.0;0.0;0.0;0.18836799263954163;-0.15908800065517426;1.1282559633255005;0.0;0.0;0.0
1711;0.0;0.0;0.0;0.1844639927148819;-0.12004800140857697;1.132159948348999;0.0;0.0;0.0
1714;0.0;0.0;0.0;0.16884799301624298;-0.15518400073051453;1.1204479932785034;0.0;0.0;0.0
1716;0.08588799834251404;-0.020739998668432236;0.9889319539070129;0.18836799263954163;-0.1395680010318756;1.140944004058838;0.10500000417232513;0.17499999701976776;0.3018749952316284
1718;0.0;0.0;0.0;0.2117919921875;-0.14737600088119507;1.1526559591293335;0.0;0.0;0.0
1720;0.0;0.0;0.0;0.16884799301624298;-0.14737600088119507;1.1526559591293335;0.0;0.0;0.0
1722;0.0;0.0;0.0;0.20788799226284027;-0.16299200057983398;1.1448479890823364;0.0;0.0;0.0
1724;0.08564399927854538;-0.020739998668432236;0.9894199967384338;0.20788799226284027;-0.1395680010318756;1.140944004058838;0.10500000417232513;0.17499999701976776;0.3018749952316284
1726;0.0;0.0;0.0;0.17665599286556244;-0.17470400035381317;1.1497279405593872;0.0;0.0;0.0
1728;0.0;0.0;0.0;0.18836799263954163;-0.15518400073051453;1.1575360298156738;0.0;0.0;0.0
1731;0.0;0.0;0.0;0.20398399233818054;-0.1512800008058548;1.1380159854888916;0.0;0.0;0.0
1733;0.08515600115060806;-0.019763998687267303;0.9906399846076965;0.2235039919614792;-0.17470400035381317;1.1702239513397217;0.03500000014901161;0.2449999898672104;0.3018749952316284
1735;0.0;0.0;0.0;0.18055999279022217;-0.1786080002784729;1.1331360340118408;0.0;0.0;0.0
1737;0.0;0.0;0.0;0.19227199256420135;-0.14347200095653534;1.1380159854888916;0.0;0.0;0.0
1739;0.0;0.0;0.0;0.21959999203681946;-0.15908800065517426;1.1253279447555542;0.0;0.0;0.0
1741;0.08515600115060806;-0.020495999604463577;0.990884006023407;0.21569599211215973;-0.13566400110721588;1.1458239555358887;0.10500000417232513;0.24062499403953552;0.29750001430511475
1743;0.0;0.0;0.0;0.16884799301624298;-0.12785600125789642;1.148751974105835;0.0;0.0;0.0
1745;0.0;0.0;0.0;0.2000799924135208;-0.1395680010318756;1.148751974105835;0.0;0.0;0.0
1748;0.0;0.0;0.0;0.1844639927148819;-0.13176000118255615;1.1526559591293335;0.0;0.0;0.0
1750;0.08369199931621552;-0.02000799961388111;0.9913719892501831;0.18836799263954163;-0.15518400073051453;1.156559944152832;0.03500000014901161;0.1706250011920929;0.29750001430511475
1752;0.0;0.0;0.0;0.19227199256420135;-0.1668960005044937;1.1282559633255005;0.0;0.0;0.0
1754;0.0;0.0;0.0;0.1727519929409027;-0.1512800008058548;1.1448479890823364;0.0;0.0;0.0
1756;0.0;0.0;0.0;0.18836799263954163;-0.1512800008058548;1.148751974105835;0.0;0.0;0.0
1758;0.0849120020866394;-0.020495999604463577;0.9906399846076965;0.22740799188613892;-0.1512800008058548;1.140944004058838;0.10500000417232513;0.10062500834465027;0.29750001430511475
1760;0.0;0.0;0.0;0.21959999203681946;-0.13566400110721588;1.1370400190353394;0.0;0.0;0.0
1762;0.0;0.0;0.0;0.20398399233818054;-0.15518400073051453;1.148751974105835;0.0;0.0;0.0
1765;0.0;0.0;0.0;0.18836799263954163;-0.1668960005044937;1.124351978302002;0.0;0.0;0.0
1767;0.08540000021457672;-0.02000799961388111;0.9886879920959473;0.19617599248886108;-0.14347200095653534;1.1370400190353394;0.10062500089406967;0.1706250011920929;0.2931250035762787
1769;0.0;0.0;0.0;0.20398399233818054;-0.13176000118255615;1.1448479890823364;0.0;0.0;0.0
1771;0.0;0.0;0.0;0.19617599248886108;-0.1668960005044937;1.1448479890823364;0.0;0.0;0.0
1773;0.0;0.0;0.0;0.2000799924135208;-0.15908800065517426;1.139967918395996;0.0;0.0;0.0
1775;0.08466799557209015;-0.020495999604463577;0.9891759753227234;0.19617599248886108;-0.11614400148391724;1.1370400190353394;0.030625000596046448;0.3062500059604645;0.2931250035762787
1777;0.0;0.0;0.0;0.20788799226284027;-0.15908800065517426;1.1604639291763306;0.0;0.0;0.0
1779;0.0;0.0;0.0;0.1727519929409027;-0.17470400035381317;1.1526559591293335;0.0;0.0;0.0
1782;0.0;0.0;0.0;0.18055999279022217;-0.17080000042915344;1.1282559633255005;0.0;0.0;0.0
1784;0.08442399650812149;-0.020983999595046043;0.9896639585494995;0.19617599248886108;-0.16299200057983398;1.132159948348999;0.030625000596046448;0.23624998331069946;0.2931250035762787
1786;0.0;0.0;0.0;0.20398399233818054;-0.1395680010318756;1.1448479890823364;0.0;0.0;0.0
1788;0.0;0.0;0.0;0.1727519929409027;-0.15518400073051453;1.1604639291763306;0.0;0.0;0.0
1790;0.0;0.0;0.0;0.2000799924135208;-0.13566400110721588;1.132159948348999;0.0;0.0;0.0
1792;0.08540000021457672;-0.020495999604463577;0.98990797996521;0.2000799924135208;-0.14347200095653534;1.1370400190353394;0.10062500089406967;0.0962500050663948;0.2887499928474426
1794;0.0;0.0;0.0;0.18055999279022217;-0.15518400073051453;1.1282559633255005;0.0;0.0;0.0
1796;0.0;0.0;0.0;0.18836799263954163;-0.16299200057983398;1.148751974105835;0.0;0.0;0.0
1799;0.0;0.0;0.0;0.17665599286556244;-0.1512800008058548;1.1448479890823364;0.0;0.0;0.0
1801;0.0849120020866394;-0.020739998668432236;0.9901520013809204;0.16494399309158325;-0.1512800008058548;1.140944004058838;0.030625000596046448;0.23624998331069946;0.2887499928474426
1803;0.0;0.0;0.0;0.2117919921875;-0.15518400073051453;1.1526559591293335;0.0;0.0;0.0
1805;0.0;0.0;0.0;0.2117919921875;-0.1786080002784729;1.1692479848861694;0.0;0.0;0.0
1807;0.0;0.0;0.0;0.19227199256420135;-0.1668960005044937;1.1448479890823364;0.0;0.0;0.0
1809;0.08344800025224686;-0.020495999604463577;0.98990797996521;0.18055999279022217;-0.17470400035381317;1.132159948348999;0.030625000596046448;0.23624998331069946;0.35874998569488525
1812;0.0;0.0;0.0;0.21569599211215973;-0.16299200057983398;1.1526559591293335;0.0;0.0;0.0
1813;0.0;0.0;0.0;0.19617599248886108;-0.1903200000524521;1.1614400148391724;0.0;0.0;0.0
1816;0.0;0.0;0.0;0.1844639927148819;-0.11224000155925751;1.1526559591293335;0.0;0.0;0.0
1818;0.08369199931621552;-0.02025200054049492;0.9901520013809204;0.1844639927148819;-0.1668960005044937;1.1448479890823364;0.10062500089406967;0.09187500923871994;0.28437501192092896
1820;0.0;0.0;0.0;0.2000799924135208;-0.1668960005044937;1.132159948348999;0.0;0.0;0.0
1822;0.0;0.0;0.0;0.1727519929409027;-0.14737600088119507;1.1204479932785034;0.0;0.0;0.0
1824;0.0;0.0;0.0;0.18055999279022217;-0.13176000118255615;1.1614400148391724;0.0;0.0;0.0
1826;0.08417999744415283;-0.02000799961388111;0.9896639585494995;0.18836799263954163;-0.1395680010318756;1.1204479932785034;0.10062500089406967;0.09187500923871994;0.28437501192092896
1828;0.0;0.0;0.0;0.19617599248886108;-0.15518400073051453;1.1614400148391724;0.0;0.0;0.0
1831;0.0;0.0;0.0;0.16884799301624298;-0.17080000042915344;1.1165440082550049;0.0;0.0;0.0
1833;0.0;0.0;0.0;0.20398399233818054;-0.14737600088119507;1.165343999862671;0.0;0.0;0.0
1835;0.08466799557209015;-0.02025200054049492;0.9901520013809204;0.2000799924135208;-0.1668960005044937;1.156559944152832;0.030625000596046448;0.2318750023841858;0.28437501192092896
1837;0.0;0.0;0.0;0.21569599211215973;-0.17470400035381317;1.140944004058838;0.0;0.0;0.0
1839;0.0;0.0;0.0;0.18055999279022217;-0.1668960005044937;1.1604639291763306;0.0;0.0;0.0
1841;0.0;0.0;0.0;0.20788799226284027;-0.15518400073051453;1.140944004058838;0.0;0.0;0.0
1843;0.08417999744415283;-0.02000799961388111;0.990884006023407;0.18055999279022217;-0.17470400035381317;1.1126400232315063;0.030625000596046448;0.16187500953674316;0.2800000011920929
1846;0.0;0.0;0.0;0.1844639927148819;-0.18251200020313263;1.1370400190353394;0.0;0.0;0.0
1848;0.0;0.0;0.0;0.16884799301624298;-0.15908800065517426;1.1282559633255005;0.0;0.0;0.0
1850;0.0;0.0;0.0;0.19227199256420135;-0.1512800008058548;1.140944004058838;0.0;0.0;0.0
1852;0.08417999744415283;-0.02000799961388111;0.9901520013809204;0.2000799924135208;-0.1395680010318756;1.140944004058838;-0.039374999701976776;0.16187500953674316;0.2800000011920929
1854;0.0;0.0;0.0;0.18836799263954163;-0.14737600088119507;1.1282559633255005;0.0;0.0;0.0
1856;0.0;0.0;0.0;0.19617599248886108;-0.13176000118255615;1.1360639333724976;0.0;0.0;0.0
1858;0.0;0.0;0.0;0.19617599248886108;-0.14347200095653534;1.1526559591293335;0.0;0.0;0.0
1860;0.08564399927854538;-0.02025200054049492;0.9886879920959473;0.1844639927148819;-0.15908800065517426;1.140944004058838;0.030625000596046448;0.1574999988079071;0.2800000011920929
1863;0.0;0.0;0.0;0.18836799263954163;-0.17470400035381317;1.140944004058838;0.0;0.0;0.0
1865;0.0;0.0;0.0;0.19227199256420135;-0.16299200057983398;1.1282559633255005;0.0;0.0;0.0
1867;0.0;0.0;0.0;0.17665599286556244;-0.15908800065517426;1.1204479932785034;0.0;0.0;0.0
1869;0.08515600115060806;-0.02122800052165985;0.9894199967384338;0.1844639927148819;-0.15518400073051453;1.148751974105835;0.10062500089406967;0.1574999988079071;0.27562499046325684
1871;0.0;0.0;0.0;0.2000799924135208;-0.17080000042915344;1.1448479890823364;0.0;0.0;0.0
1873;0.0;0.0;0.0;0.20788799226284027;-0.14737600088119507;1.1448479890823364;0.0;0.0;0.0
1875;0.0;0.0;0.0;0.18836799263954163;-0.1668960005044937;1.132159948348999;0.0;0.0;0.0
1877;0.08417999744415283;-0.020983999595046043;0.9901520013809204;0.18836799263954163;-0.16299200057983398;1.1370400190353394;0.030625000596046448;0.1574999988079071;0.27562499046325684
1880;0.0;0.0;0.0;0.1844639927148819;-0.1395680010318756;1.132159948348999;0.0;0.0;0.0
1882;0.0;0.0;0.0;0.21569599211215973;-0.15908800065517426;1.1526559591293335;0.0;0.0;0.0
1884;0.0;0.0;0.0;0.19617599248886108;-0.1512800008058548;1.156559944152832;0.0;0.0;0.0
1886;0.08564399927854538;-0.020495999604463577;0.9901520013809204;0.1844639927148819;-0.15518400073051453;1.1204479932785034;0.10062500089406967;0.08750000596046448;0.27562499046325684
1888;0.0;0.0;0.0;0.17665599286556244;-0.1395680010318756;1.1448479890823364;0.0;0.0;0.0
1890;0.0;0.0;0.0;0.23131199181079865;-0.15518400073051453;1.1526559591293335;0.0;0.0;0.0
1892;0.0;0.0;0.0;0.21569599211215973;-0.14347200095653534;1.1448479890823364;0.0;0.0;0.0
1894;0.08515600115060806;-0.019763998687267303;0.9896639585494995;0.1844639927148819;-0.1668960005044937;1.1614400148391724;0.030625000596046448;0.1574999988079071;0.27125000953674316
1897;0.0;0.0;0.0;0.2000799924135208;-0.14347200095653534;1.1614400148391724;0.0;0.0;0.0
1899;0.0;0.0;0.0;0.19227199256420135;-0.14347200095653534;1.132159948348999;0.0;0.0;0.0
1901;0.0;0.0;0.0;0.20398399233818054;-0.1512800008058548;1.1526559591293335;0.0;0.0;0.0
1903;0.0849120020866394;-0.02025200054049492;0.98990797996521;0.20398399233818054;-0.14347200095653534;1.1370400190353394;0.030625000596046448;0.22749999165534973;0.20125001668930054
1905;0.0;0.0;0.0;0.20788799226284027;-0.17080000042915344;1.140944004058838;0.0;0.0;0.0
1907;0.0;0.0;0.0;0.20398399233818054;-0.15908800065517426;1.1448479890823364;0.0;0.0;0.0
1909;0.0;0.0;0.0;0.19617599248886108;-0.1668960005044937;1.140944004058838;0.0;0.0;0.0
1911;0.08442399650812149;-0.02025200054049492;0.990884006023407;0.19227199256420135;-0.13566400110721588;1.1282559633255005;0.030625000596046448;0.22312499582767487;0.27125000953674316
1914;0.0;0.0;0.0;0.22740799188613892;-0.16299200057983398;1.140944004058838;0.0;0.0;0.0
1916;0.0;0.0;0.0;0.17665599286556244;-0.14737600088119507;1.1448479890823364;0.0;0.0;0.0
1918;0.0;0.0;0.0;0.19617599248886108;-0.1395680010318756;1.1126400232315063;0.0;0.0;0.0
1920;0.08417999744415283;-0.02025200054049492;0.9903959631919861;0.20398399233818054;-0.1512800008058548;1.1692479848861694;0.030625000596046448;0.08312501013278961;0.27125000953674316
1922;0.0;0.0;0.0;0.18055999279022217;-0.1668960005044937;1.1526559591293335;0.0;0.0;0.0
1924;0.0;0.0;0.0;0.19227199256420135;-0.12004800140857697;1.156559944152832;0.0;0.0;0.0
1926;0.0;0.0;0.0;0.19227199256420135;-0.12785600125789642;1.140944004058838;0.0;0.0;0.0
1928;0.08588799834251404;-0.020983999595046043;0.9896639585494995;0.18055999279022217;-0.15908800065517426;1.148751974105835;0.09624999761581421;0.08312501013278961;0.2668750286102295
1931;0.0;0.0;0.0;0.21569599211215973;-0.16299200057983398;1.1526559591293335;0.0;0.0;0.0
1933;0.0;0.0;0.0;0.20398399233818054;-0.15908800065517426;1.1526559591293335;0.0;0.0;0.0
1935;0.0;0.0;0.0;0.18836799263954163;-0.15518400073051453;1.165343999862671;0.0;0.0;0.0
1937;0.08466799557209015;-0.019763998687267303;0.9891759753227234;0.16884799301624298;-0.16299200057983398;1.173151969909668;0.09624999761581421;0.22312499582767487;0.3368750214576721
1939;0.0;0.0;0.0;0.20398399233818054;-0.14347200095653534;1.132159948348999;0.0;0.0;0.0
1941;0.0;0.0;0.0;0.19617599248886108;-0.15518400073051453;1.140944004058838;0.0;0.0;0.0
1943;0.0;0.0;0.0;0.20398399233818054;-0.14737600088119507;1.1448479890823364;0.0;0.0;0.0
1945;0.0849120020866394;-0.020739998668432236;0.9894199967384338;0.20398399233818054;-0.1668960005044937;1.107759952545166;0.09624999761581421;0.22312499582767487;0.2668750286102295
1948;0.0;0.0;0.0;0.19617599248886108;-0.15908800065517426;1.124351978302002;0.0;0.0;0.0
1950;0.0;0.0;0.0;0.2117919921875;-0.15908800065517426;1.165343999862671;0.0;0.0;0.0
1952;0.0;0.0;0.0;0.18836799263954163;-0.13566400110721588;1.1692479848861694;0.0;0.0;0.0
1954;0.08442399650812149;-0.02025200054049492;0.9896639585494995;0.2000799924135208;-0.1668960005044937;1.1526559591293335;0.026250001043081284;0.14875000715255737;0.26249998807907104
1956;0.0;0.0;0.0;0.20398399233818054;-0.14347200095653534;1.1165440082550049;0.0;0.0;0.0
1958;0.0;0.0;0.0;0.19617599248886108;-0.15908800065517426;1.1526559591293335;0.0;0.0;0.0
1960;0.0;0.0;0.0;0.20788799226284027;-0.18251200020313263;1.1204479932785034;0.0;0.0;0.0
1962;0.0861319974064827;-0.02025200054049492;0.9894199967384338;0.20398399233818054;-0.14737600088119507;1.140944004058838;0.09624999761581421;0.07875001430511475;0.26249998807907104
1965;0.0;0.0;0.0;0.2000799924135208;-0.17470400035381317;1.1165440082550049;0.0;0.0;0.0
1967;0.0;0.0;0.0;0.18836799263954163;-0.16299200057983398;1.1282559633255005;0.0;0.0;0.0
1969;0.0;0.0;0.0;0.19227199256420135;-0.15518400073051453;1.1526559591293335;0.0;0.0;0.0
1971;0.08515600115060806;-0.02000799961388111;0.9896639585494995;0.17665599286556244;-0.1512800008058548;1.124351978302002;0.09624999761581421;0.21875;0.26249998807907104
1973;0.0;0.0;0.0;0.2000799924135208;-0.14737600088119507;1.1448479890823364;0.0;0.0;0.0
1975;0.0;0.0;0.0;0.21959999203681946;-0.1668960005044937;1.148751974105835;0.0;0.0;0.0
1977;0.0;0.0;0.0;0.1844639927148819;-0.16299200057983398;1.140944004058838;0.0;0.0;0.0
1979;0.08466799557209015;-0.020739998668432236;0.9901520013809204;0.18836799263954163;-0.1668960005044937;1.140944004058838;0.09624999761581421;0.14875000715255737;0.2581250071525574
1982;0.0;0.0;0.0;0.19227199256420135;-0.14347200095653534;1.1497279405593872;0.0;0.0;0.0
1984;0.0;0.0;0.0;0.2000799924135208;-0.16299200057983398;1.1458239555358887;0.0;0.0;0.0
1986;0.0;0.0;0.0;0.20398399233818054;-0.15518400073051453;1.1458239555358887;0.0;0.0;0.0
1988;0.08393599838018417;-0.02025200054049492;0.9894199967384338;0.20788799226284027;-0.15908800065517426;1.1331360340118408;0.09624999761581421;0.14875000715255737;0.2581250071525574
1990;0.0;0.0;0.0;0.1571359932422638;-0.13566400110721588;1.1458239555358887;0.0;0.0;0.0
1992;0.0;0.0;0.0;0.18055999279022217;-0.14737600088119507;1.1331360340118408;0.0;0.0;0.0
1994;0.0;0.0;0.0;0.19617599248886108;-0.1512800008058548;1.1253279447555542;0.0;0.0;0.0
1996;0.0849120020866394;-0.019763998687267303;0.9901520013809204;0.17665599286556244;-0.15518400073051453;1.1380159854888916;0.09624999761581421;0.07875001430511475;0.2581250071525574
1999;0.0;0.0;0.0;0.16884799301624298;-0.17080000042915344;1.132159948348999;0.0;0.0;0.0
2001;0.0;0.0;0.0;0.2000799924135208;-0.1512800008058548;1.1370400190353394;0.0;0.0;0.0
2003;0.0;0.0;0.0;0.2000799924135208;-0.17470400035381317;1.132159948348999;0.0;0.0;0.0
2005;0.0849120020866394;-0.019519999623298645;0.9896639585494995;0.21569599211215973;-0.14347200095653534;1.156559944152832;0.09624999761581421;0.14875000715255737;0.2581250071525574
2007;0.0;0.0;0.0;0.19617599248886108;-0.15908800065517426;1.156559944152832;0.0;0.0;0.0
2009;0.0;0.0;0.0;0.19617599248886108;-0.17080000042915344;1.140944004058838;0.0;0.0;0.0
2011;0.0;0.0;0.0;0.1844639927148819;-0.17470400035381317;1.156559944152832;0.0;0.0;0.0
2013;0.08369199931621552;-0.020495999604463577;0.9886879920959473;0.19617599248886108;-0.13566400110721588;1.124351978302002;0.026250001043081284;0.21437498927116394;0.32375001907348633
2016;0.0;0.0;0.0;0.16494399309158325;-0.15518400073051453;1.148751974105835;0.0;0.0;0.0
2018;0.0;0.0;0.0;0.2000799924135208;-0.14737600088119507;1.165343999862671;0.0;0.0;0.0
2020;0.0;0.0;0.0;0.2117919921875;-0.17080000042915344;1.132159948348999;0.0;0.0;0.0
2022;0.08442399650812149;-0.02025200054049492;0.9896639585494995;0.22740799188613892;-0.14737600088119507;1.1282559633255005;0.09187500178813934;0.1443749964237213;0.2537500262260437
2024;0.0;0.0;0.0;0.18055999279022217;-0.17080000042915344;1.140944004058838;0.0;0.0;0.0
2026;0.0;0.0;0.0;0.19617599248886108;-0.13176000118255615;1.1526559591293335;0.0;0.0;0.0
2028;0.0;0.0;0.0;0.17665599286556244;-0.1903200000524521;1.1604639291763306;0.0;0.0;0.0
2030;0.08540000021457672;-0.02000799961388111;0.98990797996521;0.20788799226284027;-0.13176000118255615;1.148751974105835;0.02187500149011612;0.1443749964237213;0.2537500262260437
2033;0.0;0.0;0.0;0.19617599248886108;-0.15518400073051453;1.1292319297790527;0.0;0.0;0.0
2035;0.0;0.0;0.0;0.19617599248886108;-0.1395680010318756;1.1458239555358887;0.0;0.0;0.0
2037;0.0;0.0;0.0;0.19227199256420135;-0.13566400110721588;1.1419199705123901;0.0;0.0;0.0
2039;0.08442399650812149;-0.020739998668432236;0.9886879920959473;0.19227199256420135;-0.14347200095653534;1.1331360340118408;0.02187500149011612;0.07437500357627869;0.24937501549720764
2041;0.0;0.0;0.0;0.21569599211215973;-0.13566400110721588;1.1292319297790527;0.0;0.0;0.0
2043;0.0;0.0;0.0;0.19617599248886108;-0.15908800065517426;1.1292319297790527;0.0;0.0;0.0
2045;0.0;0.0;0.0;0.2000799924135208;-0.14347200095653534;1.1331360340118408;0.0;0.0;0.0
2047;0.08515600115060806;-0.02025200054049492;0.9903959631919861;0.19227199256420135;-0.15518400073051453;1.1497279405593872;0.02187500149011612;0.21437498927116394;0.24937501549720764
2050;0.0;0.0;0.0;0.19617599248886108;-0.1395680010318756;1.132159948348999;0.0;0.0;0.0
2052;0.0;0.0;0.0;0.19617599248886108;-0.14737600088119507;1.140944004058838;0.0;0.0;0.0
2054;0.0;0.0;0.0;0.2000799924135208;-0.14737600088119507;1.165343999862671;0.0;0.0;0.0
2056;0.08442399650812149;-0.019763998687267303;0.9901520013809204;0.19617599248886108;-0.13176000118255615;1.1448479890823364;0.09187500178813934;0.1443749964237213;0.24937501549720764
2058;0.0;0.0;0.0;0.20398399233818054;-0.14737600088119507;1.132159948348999;0.0;0.0;0.0
2060;0.0;0.0;0.0;0.16884799301624298;-0.17080000042915344;1.148751974105835;0.0;0.0;0.0
2062;0.0;0.0;0.0;0.18836799263954163;-0.17470400035381317;1.1448479890823364;0.0;0.0;0.0
2064;0.08515600115060806;-0.02000799961388111;0.98990797996521;0.1844639927148819;-0.12785600125789642;1.1282559633255005;0.09187500178813934;0.14000000059604645;0.24500000476837158
2067;0.0;0.0;0.0;0.19617599248886108;-0.1668960005044937;1.165343999862671;0.0;0.0;0.0
2069;0.0;0.0;0.0;0.18836799263954163;-0.18641600012779236;1.1526559591293335;0.0;0.0;0.0
2071;0.0;0.0;0.0;0.20398399233818054;-0.14737600088119507;1.1282559633255005;0.0;0.0;0.0
2073;0.08540000021457672;-0.02000799961388111;0.98990797996521;0.19617599248886108;-0.14347200095653534;1.156559944152832;0.09187500178813934;0.07000000774860382;0.24500000476837158
2075;0.0;0.0;0.0;0.19617599248886108;-0.1786080002784729;1.1370400190353394;0.0;0.0;0.0
2077;0.0;0.0;0.0;0.1727519929409027;-0.15518400073051453;1.1526559591293335;0.0;0.0;0.0
2079;0.0;0.0;0.0;0.17665599286556244;-0.14737600088119507;1.156559944152832;0.0;0.0;0.0
2081;0.08540000021457672;-0.019763998687267303;0.98990797996521;0.2000799924135208;-0.15908800065517426;1.1526559591293335;0.02187500149011612;0.20999999344348907;0.24500000476837158
2084;0.0;0.0;0.0;0.17665599286556244;-0.1668960005044937;1.1526559591293335;0.0;0.0;0.0
2086;0.0;0.0;0.0;0.19617599248886108;-0.15518400073051453;1.148751974105835;0.0;0.0;0.0
2088;0.0;0.0;0.0;0.21569599211215973;-0.15518400073051453;1.132159948348999;0.0;0.0;0.0
2090;0.08466799557209015;-0.020983999595046043;0.990884006023407;0.19617599248886108;-0.14737600088119507;1.173151969909668;0.02187500149011612;0.14000000059604645;0.24500000476837158
2092;0.0;0.0;0.0;0.19617599248886108;-0.1512800008058548;1.1526559591293335;0.0;0.0;0.0
2094;0.0;0.0;0.0;0.20788799226284027;-0.14347200095653534;1.1282559633255005;0.0;0.0;0.0
2096;0.0;0.0;0.0;0.2000799924135208;-0.16299200057983398;1.140944004058838;0.0;0.0;0.0
2098;0.08417999744415283;-0.02000799961388111;0.9903959631919861;0.17665599286556244;-0.14737600088119507;1.1448479890823364;0.09187500178813934;0.07000000774860382;0.24062500894069672
2101;0.0;0.0;0.0;0.20398399233818054;-0.14737600088119507;1.1448479890823364;0.0;0.0;0.0
2103;0.0;0.0;0.0;0.19617599248886108;-0.16299200057983398;1.1448479890823364;0.0;0.0;0.0
2105;0.0;0.0;0.0;0.2117919921875;-0.16299200057983398;1.124351978302002;0.0;0.0;0.0
2107;0.08540000021457672;-0.02025200054049492;0.9901520013809204;0.18836799263954163;-0.14347200095653534;1.1282559633255005;0.02187500149011612;0.07000000774860382;0.24062500894069672
2109;0.0;0.0;0.0;0.2000799924135208;-0.13566400110721588;1.1526559591293335;0.0;0.0;0.0
2111;0.0;0.0;0.0;0.20788799226284027;-0.1512800008058548;1.132159948348999;0.0;0.0;0.0
2113;0.0;0.0;0.0;0.19617599248886108;-0.15518400073051453;1.1448479890823364;0.0;0.0;0.0
2115;0.08515600115060806;-0.02000799961388111;0.9884439706802368;0.2000799924135208;-0.15518400073051453;1.124351978302002;0.09187500178813934;0.07000000774860382;0.24062500894069672
2118;0.0;0.0;0.0;0.21569599211215973;-0.14347200095653534;1.148751974105835;0.0;0.0;0.0
2120;0.0;0.0;0.0;0.1727519929409027;-0.15908800065517426;1.140944004058838;0.0;0.0;0.0
2122;0.0;0.0;0.0;0.18055999279022217;-0.17080000042915344;1.1282559633255005;0.0;0.0;0.0
2124;0.08417999744415283;-0.02025200054049492;0.98990797996521;0.19227199256420135;-0.13566400110721588;1.1614400148391724;0.09187500178813934;0.2056249976158142;0.23625001311302185
2126;0.0;0.0;0.0;0.2000799924135208;-0.1786080002784729;1.1282559633255005;0.0;0.0;0.0
2128;0.0;0.0;0.0;0.18055999279022217;-0.16299200057983398;1.148751974105835;0.0;0.0;0.0
2130;0.0;0.0;0.0;0.1542080044746399;-0.13176000118255615;1.148751974105835;0.0;0.0;0.0
2132;0.08515600115060806;-0.020495999604463577;0.9896639585494995;0.19617599248886108;-0.1512800008058548;1.148751974105835;0.09187500178813934;0.13562500476837158;0.23625001311302185
2135;0.0;0.0;0.0;0.20398399233818054;-0.12004800140857697;1.1165440082550049;0.0;0.0;0.0
2137;0.0;0.0;0.0;0.1844639927148819;-0.1668960005044937;1.140944004058838;0.0;0.0;0.0
2139;0.0;0.0;0.0;0.20398399233818054;-0.1512800008058548;1.148751974105835;0.0;0.0;0.0
2141;0.0849120020866394;-0.020495999604463577;0.9896639585494995;0.1844639927148819;-0.15518400073051453;1.148751974105835;0.08749999850988388;0.13562500476837158;0.3062500059604645
2143;0.0;0.0;0.0;0.20398399233818054;-0.15518400073051453;1.1165440082550049;0.0;0.0;0.0
2145;0.0;0.0;0.0;0.17665599286556244;-0.17080000042915344;1.1448479890823364;0.0;0.0;0.0
2147;0.0;0.0;0.0;0.19617599248886108;-0.1512800008058548;1.1604639291763306;0.0;0.0;0.0
2149;0.0849120020866394;-0.019763998687267303;0.98990797996521;0.19227199256420135;-0.15908800065517426;1.1165440082550049;0.017499998211860657;0.2056249976158142;0.23625001311302185
2152;0.0;0.0;0.0;0.16884799301624298;-0.15908800065517426;1.1526559591293335;0.0;0.0;0.0
2154;0.0;0.0;0.0;0.17665599286556244;-0.16299200057983398;1.140944004058838;0.0;0.0;0.0
2156;0.0;0.0;0.0;0.17665599286556244;-0.1512800008058548;1.1165440082550049;0.0;0.0;0.0
2158;0.08466799557209015;-0.02000799961388111;0.9906399846076965;0.18055999279022217;-0.18251200020313263;1.1204479932785034;0.017499998211860657;0.13562500476837158;0.2318750023841858
2160;0.0;0.0;0.0;0.20788799226284027;-0.15518400073051453;1.1604639291763306;0.0;0.0;0.0
2162;0.0;0.0;0.0;0.14932799339294434;-0.17080000042915344;1.1526559591293335;0.0;0.0;0.0
2164;0.0;0.0;0.0;0.19227199256420135;-0.13566400110721588;1.148751974105835;0.0;0.0;0.0
2167;0.08442399650812149;-0.02000799961388111;0.9901520013809204;0.18055999279022217;-0.1395680010318756;1.132159948348999;0.08749999850988388;0.06562501192092896;0.2318750023841858
2169;0.0;0.0;0.0;0.20398399233818054;-0.14347200095653534;1.140944004058838;0.0;0.0;0.0
2171;0.0;0.0;0.0;0.16494399309158325;-0.1512800008058548;1.1370400190353394;0.0;0.0;0.0
2173;0.0;0.0;0.0;0.2117919921875;-0.1668960005044937;1.140944004058838;0.0;0.0;0.0
2175;0.08515600115060806;-0.019763998687267303;0.9896639585494995;0.19227199256420135;-0.1395680010318756;1.1370400190353394;0.08749999850988388;0.13124999403953552;0.2318750023841858
2177;0.0;0.0;0.0;0.20398399233818054;-0.1786080002784729;1.1614400148391724;0.0;0.0;0.0
2179;0.0;0.0;0.0;0.2000799924135208;-0.15518400073051453;1.1370400190353394;0.0;0.0;0.0
2181;0.0;0.0;0.0;0.21569599211215973;-0.14737600088119507;1.140944004058838;0.0;0.0;0.0
2184;0.08442399650812149;-0.02000799961388111;0.9894199967384338;0.20788799226284027;-0.1512800008058548;1.148751974105835;0.017499998211860657;0.20124998688697815;0.2318750023841858
2186;0.0;0.0;0.0;0.19227199256420135;-0.1395680010318756;1.1497279405593872;0.0;0.0;0.0
2188;0.0;0.0;0.0;0.2000799924135208;-0.1668960005044937;1.1370400190353394;0.0;0.0;0.0
2190;0.0;0.0;0.0;0.19617599248886108;-0.17470400035381317;1.1331360340118408;0.0;0.0;0.0
2192;0.0849120020866394;-0.020495999604463577;0.9889319539070129;0.17665599286556244;-0.18251200020313263;1.1458239555358887;0.017499998211860657;0.20124998688697815;0.22750002145767212
2194;0.0;0.0;0.0;0.20398399233818054;-0.15908800065517426;1.1380159854888916;0.0;0.0;0.0
2196;0.0;0.0;0.0;0.19617599248886108;-0.1395680010318756;1.1419199705123901;0.0;0.0;0.0
2198;0.0;0.0;0.0;0.19227199256420135;-0.16299200057983398;1.1331360340118408;0.0;0.0;0.0
2200;0.08369199931621552;-0.020983999595046043;0.9903959631919861;0.19617599248886108;-0.16299200057983398;1.1370400190353394;0.017499998211860657;0.13124999403953552;0.1575000286102295
2203;0.0;0.0;0.0;0.2000799924135208;-0.1395680010318756;1.124351978302002;0.0;0.0;0.0
2205;0.0;0.0;0.0;0.19227199256420135;-0.16299200057983398;1.132159948348999;0.0;0.0;0.0
2207;0.0;0.0;0.0;0.20398399233818054;-0.14737600088119507;1.1448479890823364;0.0;0.0;0.0
2209;0.0849120020866394;-0.02025200054049492;0.9906399846076965;0.16494399309158325;-0.16299200057983398;1.124351978302002;0.08749999850988388;0.13124999403953552;0.22750002145767212
2211;0.0;0.0;0.0;0.19617599248886108;-0.1512800008058548;1.1448479890823364;0.0;0.0;0.0
2213;0.0;0.0;0.0;0.1844639927148819;-0.14737600088119507;1.1370400190353394;0.0;0.0;0.0
2215;0.0;0.0;0.0;0.21959999203681946;-0.13176000118255615;1.124351978302002;0.0;0.0;0.0
2218;0.08515600115060806;-0.019763998687267303;0.9903959631919861;0.1844639927148819;-0.14737600088119507;1.140944004058838;0.08749999850988388;0.13124999403953552;0.22750002145767212
2220;0.0;0.0;0.0;0.20398399233818054;-0.14737600088119507;1.1448479890823364;0.0;0.0;0.0
2222;0.0;0.0;0.0;0.19227199256420135;-0.1512800008058548;1.1370400190353394;0.0;0.0;0.0
2224;0.0;0.0;0.0;0.19227199256420135;-0.18251200020313263;1.1448479890823364;0.0;0.0;0.0
2226;0.0849120020866394;-0.020495999604463577;0.9896639585494995;0.18836799263954163;-0.14737600088119507;1.148751974105835;0.017499998211860657;0.12687499821186066;0.2931250035762787
2228;0.0;0.0;0.0;0.20788799226284027;-0.1786080002784729;1.1370400190353394;0.0;0.0;0.0
2230;0.0;0.0;0.0;0.2000799924135208;-0.1239520013332367;1.140944004058838;0.0;0.0;0.0
2232;0.0;0.0;0.0;0.18836799263954163;-0.17470400035381317;1.132159948348999;0.0;0.0;0.0
2235;0.08442399650812149;-0.02000799961388111;0.98990797996521;0.16103999316692352;-0.1512800008058548;1.132159948348999;0.08749999850988388;0.12687499821186066;0.15312501788139343
2237;0.0;0.0;0.0;0.1727519929409027;-0.1668960005044937;1.1526559591293335;0.0;0.0;0.0
2239;0.0;0.0;0.0;0.2000799924135208;-0.17470400035381317;1.140944004058838;0.0;0.0;0.0
2241;0.0;0.0;0.0;0.19227199256420135;-0.15518400073051453;1.1370400190353394;0.0;0.0;0.0
2243;0.08466799557209015;-0.019763998687267303;0.9894199967384338;0.2117919921875;-0.1786080002784729;1.140944004058838;0.017499998211860657;0.05687500536441803;0.22312501072883606
2245;0.0;0.0;0.0;0.17665599286556244;-0.1512800008058548;1.132159948348999;0.0;0.0;0.0
2247;0.0;0.0;0.0;0.1844639927148819;-0.16299200057983398;1.1448479890823364;0.0;0.0;0.0
2249;0.0;0.0;0.0;0.20788799226284027;-0.15518400073051453;1.156559944152832;0.0;0.0;0.0
2252;0.08515600115060806;-0.02000799961388111;0.9901520013809204;0.18055999279022217;-0.15908800065517426;1.132159948348999;0.08749999850988388;0.05687500536441803;0.22312501072883606
2254;0.0;0.0;0.0;0.1844639927148819;-0.15908800065517426;1.140944004058838;0.0;0.0;0.0
2256;0.0;0.0;0.0;0.19617599248886108;-0.17470400035381317;1.1604639291763306;0.0;0.0;0.0
2258;0.0;0.0;0.0;0.1844639927148819;-0.13176000118255615;1.1448479890823364;0.0;0.0;0.0
2260;0.08515600115060806;-0.020495999604463577;0.98990797996521;0.1844639927148819;-0.16299200057983398;1.1526559591293335;0.017499998211860657;0.12687499821186066;0.21875
2262;0.0;0.0;0.0;0.18055999279022217;-0.16299200057983398;1.148751974105835;0.0;0.0;0.0
2264;0.0;0.0;0.0;0.20398399233818054;-0.16299200057983398;1.1448479890823364;0.0;0.0;0.0
2266;0.0;0.0;0.0;0.18055999279022217;-0.12785600125789642;1.1282559633255005;0.0;0.0;0.0
2269;0.0849120020866394;-0.020983999595046043;0.98990797996521;0.18836799263954163;-0.17080000042915344;1.1526559591293335;0.08749999850988388;0.12687499821186066;0.21875
2271;0.0;0.0;0.0;0.18055999279022217;-0.17080000042915344;1.124351978302002;0.0;0.0;0.0
2273;0.0;0.0;0.0;0.20398399233818054;-0.14347200095653534;1.1370400190353394;0.0;0.0;0.0
2275;0.0;0.0;0.0;0.20398399233818054;-0.15518400073051453;1.1526559591293335;0.0;0.0;0.0
2277;0.0849120020866394;-0.020495999604463577;0.98990797996521;0.19227199256420135;-0.15518400073051453;1.1360639333724976;0.017499998211860657;0.12687499821186066;0.21875
2279;0.0;0.0;0.0;0.19617599248886108;-0.15518400073051453;1.1604639291763306;0.0;0.0;0.0
2281;0.0;0.0;0.0;0.18836799263954163;-0.17080000042915344;1.1526559591293335;0.0;0.0;0.0
2283;0.0;0.0;0.0;0.20398399233818054;-0.1395680010318756;1.140944004058838;0.0;0.0;0.0
2286;0.08515600115060806;-0.02000799961388111;0.9891759753227234;0.2000799924135208;-0.13566400110721588;1.156559944152832;0.017499998211860657;0.05687500536441803;0.21875
2288;0.0;0.0;0.0;0.2117919921875;-0.1395680010318756;1.140944004058838;0.0;0.0;0.0
2290;0.0;0.0;0.0;0.19227199256420135;-0.14737600088119507;1.148751974105835;0.0;0.0;0.0
2292;0.0;0.0;0.0;0.2000799924135208;-0.14347200095653534;1.099951982498169;0.0;0.0;0.0
2294;0.08515600115060806;-0.019763998687267303;0.9891759753227234;0.2000799924135208;-0.15518400073051453;1.156559944152832;0.017499998211860657;0.12687499821186066;0.21437501907348633
2296;0.0;0.0;0.0;0.19227199256420135;-0.1668960005044937;1.148751974105835;0.0;0.0;0.0
2298;0.0;0.0;0.0;0.21569599211215973;-0.14347200095653534;1.1448479890823364;0.0;0.0;0.0
2300;0.0;0.0;0.0;0.1727519929409027;-0.14347200095653534;1.1448479890823364;0.0;0.0;0.0
2303;0.08393599838018417;-0.02025200054049492;0.98990797996521;0.1844639927148819;-0.17470400035381317;1.132159948348999;-0.05250000208616257;0.19249999523162842;0.21437501907348633
2305;0.0;0.0;0.0;0.18055999279022217;-0.14737600088119507;1.132159948348999;0.0;0.0;0.0
2307;0.0;0.0;0.0;0.21959999203681946;-0.14737600088119507;1.1282559633255005;0.0;0.0;0.0
2309;0.0;0.0;0.0;0.21959999203681946;-0.14347200095653534;1.1282559633255005;0.0;0.0;0.0
2311;0.08442399650812149;-0.020495999604463577;0.9891759753227234;0.2000799924135208;-0.15908800065517426;1.1448479890823364;0.08749999850988388;0.12250000238418579;0.21437501907348633
2313;0.0;0.0;0.0;0.19617599248886108;-0.16299200057983398;1.140944004058838;0.0;0.0;0.0
2315;0.0;0.0;0.0;0.2117919921875;-0.14347200095653534;1.148751974105835;0.0;0.0;0.0
2317;0.0;0.0;0.0;0.19617599248886108;-0.17470400035381317;1.124351978302002;0.0;0.0;0.0
2320;0.0849120020866394;-0.020495999604463577;0.9896639585494995;0.18836799263954163;-0.1668960005044937;1.1282559633255005;0.08312499523162842;0.12250000238418579;0.21437501907348633
2322;0.0;0.0;0.0;0.2000799924135208;-0.14347200095653534;1.148751974105835;0.0;0.0;0.0
2324;0.0;0.0;0.0;0.18836799263954163;-0.1395680010318756;1.1526559591293335;0.0;0.0;0.0
2326;0.0;0.0;0.0;0.20788799226284027;-0.1512800008058548;1.140944004058838;0.0;0.0;0.0
2328;0.08564399927854538;-0.019763998687267303;0.9896639585494995;0.20398399233818054;-0.1668960005044937;1.1448479890823364;0.013124998658895493;0.12250000238418579;0.21000000834465027
2330;0.0;0.0;0.0;0.20398399233818054;-0.15518400073051453;1.156559944152832;0.0;0.0;0.0
2332;0.0;0.0;0.0;0.19227199256420135;-0.13566400110721588;1.140944004058838;0.0;0.0;0.0
2335;0.0;0.0;0.0;0.19617599248886108;-0.12785600125789642;1.140944004058838;0.0;0.0;0.0
2337;0.08417999744415283;-0.020983999595046043;0.9896639585494995;0.1844639927148819;-0.14737600088119507;1.140944004058838;0.08312499523162842;0.12250000238418579;0.21000000834465027
2339;0.0;0.0;0.0;0.19617599248886108;-0.16299200057983398;1.148751974105835;0.0;0.0;0.0
2341;0.0;0.0;0.0;0.18836799263954163;-0.1512800008058548;1.156559944152832;0.0;0.0;0.0
2343;0.0;0.0;0.0;0.20398399233818054;-0.15518400073051453;1.1360639333724976;0.0;0.0;0.0
2345;0.08442399650812149;-0.02000799961388111;0.9889319539070129;0.19617599248886108;-0.1512800008058548;1.1370400190353394;0.013124998658895493;0.052500009536743164;0.21000000834465027
2347;0.0;0.0;0.0;0.1844639927148819;-0.15908800065517426;1.1526559591293335;0.0;0.0;0.0
2349;0.0;0.0;0.0;0.19617599248886108;-0.1512800008058548;1.1038559675216675;0.0;0.0;0.0
2352;0.0;0.0;0.0;0.1844639927148819;-0.17080000042915344;1.156559944152832;0.0;0.0;0.0
2354;0.0849120020866394;-0.02025200054049492;0.9894199967384338;0.18836799263954163;-0.14737600088119507;1.132159948348999;0.08312499523162842;0.052500009536743164;0.21000000834465027
2356;0.0;0.0;0.0;0.16884799301624298;-0.16299200057983398;1.140944004058838;0.0;0.0;0.0
2358;0.0;0.0;0.0;0.2000799924135208;-0.1395680010318756;1.1282559633255005;0.0;0.0;0.0
2360;0.0;0.0;0.0;0.2117919921875;-0.14737600088119507;1.1448479890823364;0.0;0.0;0.0
2362;0.08466799557209015;-0.02025200054049492;0.9894199967384338;0.1727519929409027;-0.1395680010318756;1.165343999862671;0.013124998658895493;0.12250000238418579;0.2056249976158142
2364;0.0;0.0;0.0;0.17665599286556244;-0.1512800008058548;1.156559944152832;0.0;0.0;0.0
