Timestamp(ms);LG-Accel x(g);LG-Accel y(g);LG-Accel z(g);HG-Accel x(g);HG-Accel y(g);HG-Accel z(g);Gyro x(dps);Gyro y(dps);Gyro z(dps)
86;0.0;0.0;0.0;0.0907679945230484;-0.10540799796581268;1.0950720310211182;0.0;0.0;0.0
89;0.0;0.0;0.0;0.12492799758911133;-0.08198399841785431;1.09116792678833;0.0;0.0;0.0
91;0.0;0.0;0.0;0.09467199444770813;-0.062463998794555664;1.0950720310211182;0.0;0.0;0.0
93;0.0;0.0;0.0;0.14054399728775024;-0.07027199864387512;1.09116792678833;0.0;0.0;0.0
95;0.0;0.0;0.0;0.11028799414634705;-0.04294399917125702;1.115567922592163;0.0;0.0;0.0
97;0.0;0.0;0.0;0.11907199770212173;-0.06734399497509003;1.0931199789047241;0.0;0.0;0.0
99;0.0;0.0;0.0;0.0849120020866394;-0.07515199482440948;1.122399926185608;0.0;0.0;0.0
101;0.0;0.0;0.0;0.08100800216197968;-0.03611199930310249;1.1302080154418945;0.0;0.0;0.0
103;-0.03245199844241142;0.08247199654579163;0.986735999584198;0.0849120020866394;-0.04391999915242195;1.1175199747085571;0.0;0.0;0.0
105;0.0;0.0;0.0;0.10052800178527832;-0.03611199930310249;1.134112000465393;0.0;0.0;0.0
108;0.0;0.0;0.0;0.07710400223731995;-0.04001599922776222;1.122399926185608;0.0;0.0;0.0
110;0.0;0.0;0.0;0.09662400186061859;-0.032207999378442764;1.122399926185608;0.0;0.0;0.0
112;-0.03294000029563904;0.09906399995088577;0.9979599714279175;0.08881600201129913;-0.020495999604463577;1.1380159854888916;0.0;0.0;0.0
114;0.0;0.0;0.0;0.08100800216197968;-0.024399999529123306;1.146799921989441;0.0;0.0;0.0
116;0.0;0.0;0.0;0.10443200170993805;-0.024399999529123306;1.1419199705123901;0.0;0.0;0.0
118;0.0;0.0;0.0;0.09272000193595886;-0.0009759999811649323;1.134112000465393;0.0;0.0;0.0
120;-0.027327999472618103;0.11419199407100677;1.010159969329834;0.10833600163459778;-0.00878399983048439;1.1419199705123901;0.0;0.0;0.0
122;0.0;0.0;0.0;0.10052800178527832;-0.01659199967980385;1.1624159812927246;0.0;0.0;0.0
125;0.0;0.0;0.0;0.09272000193595886;-0.004879999905824661;1.1380159854888916;0.0;0.0;0.0
127;0.0;0.0;0.0;0.09955199807882309;-0.04001599922776222;1.126304030418396;0.0;0.0;0.0
129;-0.014639999717473984;0.12029200047254562;1.0128439664840698;0.14640000462532043;-0.01268799975514412;1.1184959411621094;0.0;0.0;0.0
131;0.0;0.0;0.0;0.1424959897994995;-0.01268799975514412;1.1302080154418945;0.0;0.0;0.0
133;0.0;0.0;0.0;0.1268799901008606;-0.05172799900174141;1.1458239555358887;0.0;0.0;0.0
135;0.0;0.0;0.0;0.13468798995018005;-0.028303999453783035;1.126304030418396;0.0;0.0;0.0
137;0.013907999731600285;0.11687599867582321;1.0094280242919922;0.13078400492668152;0.0029279999434947968;1.134112000465393;0.0;0.0;0.0
139;0.0;0.0;0.0;0.15811198949813843;-0.032207999378442764;1.126304030418396;0.0;0.0;0.0
142;0.0;0.0;0.0;0.16591998934745789;-0.01659199967980385;1.1184959411621094;0.0;0.0;0.0
144;0.0;0.0;0.0;0.16591998934745789;-0.03611199930310249;1.134112000465393;0.0;0.0;0.0
146;0.024887999519705772;0.11687599867582321;0.9996680021286011;0.13078400492668152;-0.01268799975514412;1.1136159896850586;-11.423125267028809;0.07000000029802322;-1.1856250762939453
148;0.0;0.0;0.0;0.15030398964881897;-0.03611199930310249;1.134112000465393;0.0;0.0;0.0
150;0.0;0.0;0.0;0.13078400492668152;-0.032207999378442764;1.1419199705123901;0.0;0.0;0.0
152;0.0;0.0;0.0;0.1424959897994995;-0.04391999915242195;1.1058080196380615;0.0;0.0;0.0
154;0.02757199853658676;0.10491999983787537;0.9889319539070129;0.13859200477600098;-0.04001599922776222;1.1136159896850586;-14.713125228881836;4.690000057220459;-1.115625023841858
157;0.0;0.0;0.0;0.17763200402259827;-0.04001599922776222;1.1175199747085571;0.0;0.0;0.0
159;0.0;0.0;0.0;0.12297599762678146;-0.05172799900174141;1.1058080196380615;0.0;0.0;0.0
161;0.0;0.0;0.0;0.10735999792814255;-0.05953599885106087;1.10971200466156;0.0;0.0;0.0
163;0.01195599976927042;0.09052399545907974;0.9818559885025024;0.10833600163459778;-0.04782399907708168;1.0814080238342285;-15.483124732971191;8.609999656677246;-0.6956250071525574
165;0.0;0.0;0.0;0.115167997777462;-0.05563199892640114;1.10971200466156;0.0;0.0;0.0
167;0.0;0.0;0.0;0.08100800216197968;-0.05953599885106087;1.0931199789047241;0.0;0.0;0.0
169;0.0;0.0;0.0;0.12297599762678146;-0.05953599885106087;1.085312008857727;0.0;0.0;0.0
171;-0.013175999745726585;0.07027199864387512;0.9696559906005859;0.11126399785280228;-0.07124799489974976;1.1136159896850586;-13.943124771118164;9.730000495910645;-0.27562499046325684
174;0.0;0.0;0.0;0.11907199770212173;-0.08295999467372894;1.085312008857727;0.0;0.0;0.0
176;0.0;0.0;0.0;0.08881600201129913;-0.0907679945230484;1.101904034614563;0.0;0.0;0.0
178;0.0;0.0;0.0;0.09564799815416336;-0.09857599437236786;1.0931199789047241;0.0;0.0;0.0
180;-0.02781599946320057;0.05709599703550339;0.962336003780365;0.12004800140857697;-0.0634399950504303;1.097999930381775;-9.743124961853027;8.119999885559082;0.0043750000186264515
182;0.0;0.0;0.0;0.08881600201129913;-0.08295999467372894;1.0775039196014404;0.0;0.0;0.0
184;0.0;0.0;0.0;0.08881600201129913;-0.05953599885106087;1.085312008857727;0.0;0.0;0.0
186;0.0;0.0;0.0;0.10735999792814255;-0.08295999467372894;1.0814080238342285;0.0;0.0;0.0
188;-0.03562399744987488;0.0558759979903698;0.962336003780365;0.07320000231266022;-0.07905599474906921;1.1136159896850586;-3.7931249141693115;4.96999979019165;0.4943750202655792
191;0.0;0.0;0.0;0.07320000231266022;-0.06734399497509003;1.101904034614563;0.0;0.0;0.0
193;0.0;0.0;0.0;0.11907199770212173;-0.07515199482440948;1.097999930381775;0.0;0.0;0.0
195;0.0;0.0;0.0;0.10052800178527832;-0.05953599885106087;1.1175199747085571;0.0;0.0;0.0
197;-0.030743999406695366;0.060999996960163116;0.9711199998855591;0.08100800216197968;-0.05172799900174141;1.0931199789047241;2.0168750286102295;1.8899999856948853;0.9143750071525574
199;0.0;0.0;0.0;0.115167997777462;-0.0907679945230484;1.101904034614563;0.0;0.0;0.0
201;0.0;0.0;0.0;0.0849120020866394;-0.08686399459838867;1.097999930381775;0.0;0.0;0.0
203;0.0;0.0;0.0;0.115167997777462;-0.07515199482440948;1.1546080112457275;0.0;0.0;0.0
205;-0.02659599855542183;0.06734399497509003;0.9830759763717651;0.08100800216197968;-0.024399999529123306;1.1136159896850586;5.866875171661377;-0.07000000029802322;0.9143750071525574
208;0.0;0.0;0.0;0.09662400186061859;-0.05563199892640114;1.126304030418396;0.0;0.0;0.0
210;0.0;0.0;0.0;0.06929600238800049;-0.05563199892640114;1.1302080154418945;0.0;0.0;0.0
212;0.0;0.0;0.0;0.08100800216197968;-0.04001599922776222;1.1058080196380615;0.0;0.0;0.0
214;-0.03245199844241142;0.07685999572277069;0.9967399835586548;0.09955199807882309;-0.04001599922776222;1.101904034614563;6.7768754959106445;-1.6800000667572021;1.2643749713897705
216;0.0;0.0;0.0;0.08100800216197968;-0.07124799489974976;1.122399926185608;0.0;0.0;0.0
218;0.0;0.0;0.0;0.09174399822950363;-0.05563199892640114;1.134112000465393;0.0;0.0;0.0
220;0.0;0.0;0.0;0.115167997777462;-0.04782399907708168;1.126304030418396;0.0;0.0;0.0
222;-0.022935999557375908;0.08417999744415283;0.9972279667854309;0.08881600201129913;-0.04001599922776222;1.1380159854888916;6.006875038146973;-3.009999990463257;1.6143749952316284
225;0.0;0.0;0.0;0.09662400186061859;-0.03611199930310249;1.122399926185608;0.0;0.0;0.0
227;0.0;0.0;0.0;0.10345599800348282;-0.04782399907708168;1.1302080154418945;0.0;0.0;0.0
229;0.0;0.0;0.0;0.11907199770212173;-0.05172799900174141;1.1302080154418945;0.0;0.0;0.0
231;-0.01195599976927042;0.09589199721813202;1.0125999450683594;0.12297599762678146;-0.024399999529123306;1.126304030418396;3.346874952316284;-3.2200000286102295;1.4043749570846558
233;0.0;0.0;0.0;0.09955199807882309;-0.04391999915242195;1.134112000465393;0.0;0.0;0.0
235;0.0;0.0;0.0;0.13468798995018005;-0.0634399950504303;1.1380159854888916;0.0;0.0;0.0
237;0.0;0.0;0.0;0.115167997777462;-0.07124799489974976;1.126304030418396;0.0;0.0;0.0
239;0.005123999901115894;0.09052399545907974;1.0118680000305176;0.13078400492668152;-0.05953599885106087;1.150704026222229;-0.7131249904632568;-1.6800000667572021;1.6143749952316284
242;0.0;0.0;0.0;0.1698240041732788;-0.04782399907708168;1.1380159854888916;0.0;0.0;0.0
244;0.0;0.0;0.0;0.12297599762678146;-0.04391999915242195;1.1380159854888916;0.0;0.0;0.0
246;0.0;0.0;0.0;0.1424959897994995;-0.05563199892640114;1.1302080154418945;0.0;0.0;0.0
248;0.008295999839901924;0.08564399927854538;1.0069879293441772;0.12004800140857697;-0.03611199930310249;1.134112000465393;-4.983124732971191;2.0299999713897705;1.4743750095367432
250;0.0;0.0;0.0;0.1268799901008606;-0.04001599922776222;1.1380159854888916;0.0;0.0;0.0
252;0.0;0.0;0.0;0.13468798995018005;-0.05172799900174141;1.134112000465393;0.0;0.0;0.0
254;0.0;0.0;0.0;0.13468798995018005;-0.05172799900174141;1.150704026222229;0.0;0.0;0.0
256;0.00951599981635809;0.08247199654579163;1.0145519971847534;0.13859200477600098;-0.05563199892640114;1.1546080112457275;-8.903124809265137;4.96999979019165;1.1943750381469727
259;0.0;0.0;0.0;0.12297599762678146;-0.07515199482440948;1.1702239513397217;0.0;0.0;0.0
261;0.0;0.0;0.0;0.15811198949813843;-0.04782399907708168;1.126304030418396;0.0;0.0;0.0
263;0.0;0.0;0.0;0.1424959897994995;-0.05953599885106087;1.1302080154418945;0.0;0.0;0.0
265;0.011711999773979187;0.07612799853086472;1.0174800157546997;0.11126399785280228;-0.024399999529123306;1.150704026222229;-12.473124504089355;5.880000114440918;1.334375023841858
267;0.0;0.0;0.0;0.1424959897994995;-0.07124799489974976;1.1302080154418945;0.0;0.0;0.0
269;0.0;0.0;0.0;0.14640000462532043;-0.07905599474906921;1.126304030418396;0.0;0.0;0.0
271;0.0;0.0;0.0;0.15030398964881897;-0.07515199482440948;1.1302080154418945;0.0;0.0;0.0
273;0.01659199967980385;0.06124399974942207;1.0047919750213623;0.11907199770212173;-0.05563199892640114;1.122399926185608;-14.6431245803833;7.490000247955322;1.4043749570846558
276;0.0;0.0;0.0;0.115167997777462;-0.1180959939956665;1.1214239597320557;0.0;0.0;0.0
278;0.0;0.0;0.0;0.15030398964881897;-0.07905599474906921;1.150704026222229;0.0;0.0;0.0
280;0.0;0.0;0.0;0.15030398964881897;-0.07515199482440948;1.1419199705123901;0.0;0.0;0.0
282;0.013907999731600285;0.052947998046875;1.002351999282837;0.13859200477600098;-0.07515199482440948;1.1302080154418945;-14.573124885559082;10.289999961853027;0.984375
284;0.0;0.0;0.0;0.11907199770212173;-0.11028799414634705;1.1175199747085571;0.0;0.0;0.0
286;0.0;0.0;0.0;0.0849120020866394;-0.09857599437236786;1.1175199747085571;0.0;0.0;0.0
288;0.0;0.0;0.0;0.11907199770212173;-0.08295999467372894;1.1380159854888916;0.0;0.0;0.0
290;-0.005367999896407127;0.05245999991893768;0.9977160096168518;0.08881600201129913;-0.07124799489974976;1.1302080154418945;-13.313124656677246;12.390000343322754;0.6343749761581421
293;0.0;0.0;0.0;0.11907199770212173;-0.05563199892640114;1.1175199747085571;0.0;0.0;0.0
295;0.0;0.0;0.0;0.0849120020866394;-0.05953599885106087;1.1175199747085571;0.0;0.0;0.0
297;0.0;0.0;0.0;0.08881600201129913;-0.07515199482440948;1.1175199747085571;0.0;0.0;0.0
299;-0.024643998593091965;0.05685199797153473;0.990884006023407;0.10735999792814255;-0.07124799489974976;1.101904034614563;-11.493124961853027;13.15999984741211;0.4943750202655792
301;0.0;0.0;0.0;0.0849120020866394;-0.07124799489974976;1.085312008857727;0.0;0.0;0.0
303;0.0;0.0;0.0;0.09272000193595886;-0.0634399950504303;1.097999930381775;0.0;0.0;0.0
305;0.0;0.0;0.0;0.07710400223731995;-0.08686399459838867;1.1058080196380615;0.0;0.0;0.0
307;-0.030743999406695366;0.06588000059127808;0.9830759763717651;0.08100800216197968;-0.07515199482440948;1.1136159896850586;-8.903124809265137;12.670000076293945;0.4943750202655792
310;0.0;0.0;0.0;0.115167997777462;-0.06734399497509003;1.1136159896850586;0.0;0.0;0.0
312;0.0;0.0;0.0;0.0849120020866394;-0.03611199930310249;1.1058080196380615;0.0;0.0;0.0
314;0.0;0.0;0.0;0.09662400186061859;-0.0634399950504303;1.10971200466156;0.0;0.0;0.0
316;-0.03635599836707115;0.07393199950456619;0.9813680052757263;0.07320000231266022;-0.07124799489974976;1.0970239639282227;-5.613124847412109;10.359999656677246;1.544374942779541
318;0.0;0.0;0.0;0.06929600238800049;-0.0634399950504303;1.097999930381775;0.0;0.0;0.0
320;0.0;0.0;0.0;0.06929600238800049;-0.03611199930310249;1.10971200466156;0.0;0.0;0.0
322;0.0;0.0;0.0;0.07710400223731995;-0.05563199892640114;1.0892159938812256;0.0;0.0;0.0
324;-0.047091998159885406;0.0849120020866394;0.9794159531593323;0.049775999039411545;-0.0634399950504303;1.1136159896850586;-2.8131251335144043;7.0;3.784374952316284
327;0.0;0.0;0.0;0.0849120020866394;-0.04782399907708168;1.126304030418396;0.0;0.0;0.0
329;0.0;0.0;0.0;0.07320000231266022;-0.03611199930310249;1.1058080196380615;0.0;0.0;0.0
331;0.0;0.0;0.0;0.06929600238800049;-0.028303999453783035;1.134112000465393;0.0;0.0;0.0
333;-0.048312000930309296;0.09393999725580215;0.9889319539070129;0.07710400223731995;-0.028303999453783035;1.1175199747085571;-0.5731250047683716;3.640000104904175;5.674375057220459
335;0.0;0.0;0.0;0.07320000231266022;-0.032207999378442764;1.126304030418396;0.0;0.0;0.0
337;0.0;0.0;0.0;0.07710400223731995;-0.03611199930310249;1.134112000465393;0.0;0.0;0.0
339;0.0;0.0;0.0;0.06148799881339073;-0.04782399907708168;1.134112000465393;0.0;0.0;0.0
341;-0.04636000096797943;0.1012599989771843;0.9955199956893921;0.07710400223731995;-0.020495999604463577;1.126304030418396;0.2668749988079071;1.3300000429153442;6.654375076293945
344;0.0;0.0;0.0;0.10443200170993805;-0.020495999604463577;1.134112000465393;0.0;0.0;0.0
346;0.0;0.0;0.0;0.09662400186061859;-0.04782399907708168;1.1214239597320557;0.0;0.0;0.0
348;0.0;0.0;0.0;0.10443200170993805;-0.028303999453783035;1.1302080154418945;0.0;0.0;0.0
350;-0.0287919994443655;0.10784799605607986;0.9999119639396667;0.10735999792814255;-0.020495999604463577;1.126304030418396;-0.2931250035762787;0.6299999952316284;6.934374809265137
352;0.0;0.0;0.0;0.11907199770212173;-0.032207999378442764;1.134112000465393;0.0;0.0;0.0
354;0.0;0.0;0.0;0.10443200170993805;-0.032207999378442764;1.1136159896850586;0.0;0.0;0.0
356;0.0;0.0;0.0;0.11614400148391724;-0.024399999529123306;1.0931199789047241;0.0;0.0;0.0
358;-0.02147199958562851;0.10662800073623657;0.9989359974861145;0.08881600201129913;-0.024399999529123306;1.1302080154418945;-1.7631250619888306;0.9800000190734863;7.984375
361;0.0;0.0;0.0;0.0849120020866394;-0.05563199892640114;1.122399926185608;0.0;0.0;0.0
363;0.0;0.0;0.0;0.10052800178527832;-0.032207999378442764;1.1380159854888916;0.0;0.0;0.0
365;0.0;0.0;0.0;0.10052800178527832;-0.04001599922776222;1.1380159854888916;0.0;0.0;0.0
367;-0.020739998668432236;0.0936959981918335;1.0086959600448608;0.08881600201129913;-0.0634399950504303;1.1380159854888916;-5.053124904632568;3.1500000953674316;8.194375038146973
369;0.0;0.0;0.0;0.10443200170993805;-0.05172799900174141;1.1546080112457275;0.0;0.0;0.0
371;0.0;0.0;0.0;0.10052800178527832;-0.05563199892640114;1.1419199705123901;0.0;0.0;0.0
373;0.0;0.0;0.0;0.09662400186061859;-0.06734399497509003;1.1546080112457275;0.0;0.0;0.0
375;-0.03294000029563904;0.0785679966211319;1.0145519971847534;0.06148799881339073;-0.07124799489974976;1.1419199705123901;-9.04312515258789;6.650000095367432;6.794374942779541
378;0.0;0.0;0.0;0.07710400223731995;-0.06734399497509003;1.1419199705123901;0.0;0.0;0.0
380;0.0;0.0;0.0;0.06539200246334076;-0.05953599885106087;1.1380159854888916;0.0;0.0;0.0
382;0.0;0.0;0.0;0.06148799881339073;-0.07905599474906921;1.134112000465393;0.0;0.0;0.0
384;-0.045871999114751816;0.06002400070428848;1.0033279657363892;0.07320000231266022;-0.06734399497509003;1.134112000465393;-11.773124694824219;7.909999847412109;4.904375076293945
386;0.0;0.0;0.0;0.057583998888731;-0.07124799489974976;1.1175199747085571;0.0;0.0;0.0
388;0.0;0.0;0.0;0.06929600238800049;-0.0634399950504303;1.1175199747085571;0.0;0.0;0.0
390;0.0;0.0;0.0;0.06929600238800049;-0.0907679945230484;1.101904034614563;0.0;0.0;0.0
392;-0.05050799995660782;0.05197199806571007;0.9933239817619324;0.07710400223731995;-0.08295999467372894;1.10971200466156;-11.983124732971191;6.510000228881836;3.364375114440918
395;0.0;0.0;0.0;0.06539200246334076;-0.07905599474906921;1.1058080196380615;0.0;0.0;0.0
397;0.0;0.0;0.0;0.08100800216197968;-0.0907679945230484;1.1058080196380615;0.0;0.0;0.0
399;0.0;0.0;0.0;0.10052800178527832;-0.1298079937696457;1.101904034614563;0.0;0.0;0.0
401;-0.0453839972615242;0.04367600008845329;0.97843998670578;0.057583998888731;-0.0907679945230484;1.0970239639282227;-10.093124389648438;4.199999809265137;1.544374942779541
403;0.0;0.0;0.0;0.08881600201129913;-0.08686399459838867;1.0775039196014404;0.0;0.0;0.0
405;0.0;0.0;0.0;0.08881600201129913;-0.07905599474906921;1.101904034614563;0.0;0.0;0.0
407;0.0;0.0;0.0;0.10833600163459778;-0.08686399459838867;1.0892159938812256;0.0;0.0;0.0
409;-0.024643998593091965;0.03928399831056595;0.9640439748764038;0.1268799901008606;-0.11028799414634705;1.0687199831008911;-7.013124942779541;2.940000057220459;0.4943750202655792
412;0.0;0.0;0.0;0.08100800216197968;-0.07515199482440948;1.0775039196014404;0.0;0.0;0.0
414;0.0;0.0;0.0;0.115167997777462;-0.0907679945230484;1.0570080280303955;0.0;0.0;0.0
416;0.0;0.0;0.0;0.10052800178527832;-0.07515199482440948;1.0687199831008911;0.0;0.0;0.0
418;-0.016835998743772507;0.04391999915242195;0.9437919855117798;0.1268799901008606;-0.10638399422168732;1.0570080280303955;-3.9331250190734863;4.059999942779541;0.7743749618530273
420;0.0;0.0;0.0;0.09272000193595886;-0.0634399950504303;1.0618879795074463;0.0;0.0;0.0
422;0.0;0.0;0.0;0.10735999792814255;-0.05563199892640114;1.073599934577942;0.0;0.0;0.0
424;0.0;0.0;0.0;0.11126399785280228;-0.06734399497509003;1.0491999387741089;0.0;0.0;0.0
426;-0.02025200054049492;0.0558759979903698;0.9311040043830872;0.115167997777462;-0.07905599474906921;1.0540800094604492;-0.6431249976158142;6.789999961853027;0.8443750143051147
429;0.0;0.0;0.0;0.07710400223731995;-0.0634399950504303;1.0374879837036133;0.0;0.0;0.0
431;0.0;0.0;0.0;0.08100800216197968;-0.032207999378442764;1.0775039196014404;0.0;0.0;0.0
433;0.0;0.0;0.0;0.07320000231266022;-0.07515199482440948;1.0540800094604492;0.0;0.0;0.0
435;-0.024399999529123306;0.06929600238800049;0.9332999587059021;0.09662400186061859;-0.08295999467372894;1.0374879837036133;2.366874933242798;8.819999694824219;1.7543749809265137
437;0.0;0.0;0.0;0.10345599800348282;-0.05172799900174141;1.085312008857727;0.0;0.0;0.0
439;0.0;0.0;0.0;0.0849120020866394;-0.05563199892640114;1.0892159938812256;0.0;0.0;0.0
441;0.0;0.0;0.0;0.11907199770212173;-0.05172799900174141;1.10971200466156;0.0;0.0;0.0
443;-0.0302559994161129;0.07881199568510056;0.962336003780365;0.09662400186061859;-0.03611199930310249;1.097999930381775;4.32687520980835;8.399999618530273;3.6443750858306885
446;0.0;0.0;0.0;0.08881600201129913;-0.04782399907708168;1.0814080238342285;0.0;0.0;0.0
448;0.0;0.0;0.0;0.07320000231266022;-0.05563199892640114;1.1058080196380615;0.0;0.0;0.0
450;0.0;0.0;0.0;0.0849120020866394;-0.020495999604463577;1.1175199747085571;0.0;0.0;0.0
452;-0.0378200002014637;0.09198799729347229;0.9879559874534607;0.08100800216197968;-0.04391999915242195;1.150704026222229;4.046875;6.440000057220459;5.464375019073486
454;0.0;0.0;0.0;0.053679998964071274;-0.05172799900174141;1.126304030418396;0.0;0.0;0.0
456;0.0;0.0;0.0;0.08881600201129913;-0.03611199930310249;1.1546080112457275;0.0;0.0;0.0
458;0.0;0.0;0.0;0.07710400223731995;-0.05172799900174141;1.1546080112457275;0.0;0.0;0.0
460;-0.03611199930310249;0.09784399718046188;1.0130879878997803;0.09662400186061859;-0.01659199967980385;1.146799921989441;1.456874966621399;5.110000133514404;6.234375
463;0.0;0.0;0.0;0.09662400186061859;-0.03611199930310249;1.1663199663162231;0.0;0.0;0.0
465;0.0;0.0;0.0;0.0849120020866394;-0.04782399907708168;1.150704026222229;0.0;0.0;0.0
467;0.0;0.0;0.0;0.09272000193595886;-0.05172799900174141;1.134112000465393;0.0;0.0;0.0
469;-0.029279999434947968;0.08832799643278122;1.0228480100631714;0.07710400223731995;-0.0634399950504303;1.1419199705123901;-2.5331249237060547;5.039999961853027;6.724375247955322
471;0.0;0.0;0.0;0.09174399822950363;-0.07905599474906921;1.146799921989441;0.0;0.0;0.0
473;0.0;0.0;0.0;0.09272000193595886;-0.05953599885106087;1.146799921989441;0.0;0.0;0.0
475;0.0;0.0;0.0;0.08100800216197968;-0.10247999429702759;1.1546080112457275;0.0;0.0;0.0
477;-0.03562399744987488;0.0697840005159378;1.0099159479141235;0.07320000231266022;-0.06734399497509003;1.134112000465393;-6.593124866485596;6.300000190734863;7.004374980926514
480;0.0;0.0;0.0;0.09272000193595886;-0.07905599474906921;1.097999930381775;0.0;0.0;0.0
482;0.0;0.0;0.0;0.08100800216197968;-0.07124799489974976;1.126304030418396;0.0;0.0;0.0
484;0.0;0.0;0.0;0.0849120020866394;-0.07515199482440948;1.126304030418396;0.0;0.0;0.0
486;-0.050995998084545135;0.05075199902057648;0.9996680021286011;0.06148799881339073;-0.08686399459838867;1.1058080196380615;-9.04312515258789;6.789999961853027;7.004374980926514
488;0.0;0.0;0.0;0.07710400223731995;-0.08686399459838867;1.1175199747085571;0.0;0.0;0.0
490;0.0;0.0;0.0;0.053679998964071274;-0.08686399459838867;1.122399926185608;0.0;0.0;0.0
492;0.0;0.0;0.0;0.07710400223731995;-0.11028799414634705;1.101904034614563;0.0;0.0;0.0
494;-0.0558759979903698;0.03879600018262863;0.9945439696311951;0.06539200246334076;-0.0907679945230484;1.126304030418396;-9.673125267028809;5.25;6.864375114440918
497;0.0;0.0;0.0;0.08393599838018417;-0.10247999429702759;1.134112000465393;0.0;0.0;0.0
499;0.0;0.0;0.0;0.08881600201129913;-0.10638399422168732;1.1428959369659424;0.0;0.0;0.0
501;0.0;0.0;0.0;0.08100800216197968;-0.12199999392032623;1.126304030418396;0.0;0.0;0.0
503;-0.045871999114751816;0.030743999406695366;0.9991799592971802;0.06539200246334076;-0.1298079937696457;1.134112000465393;-9.743124961853027;1.9600000381469727;6.794374942779541
505;0.0;0.0;0.0;0.07320000231266022;-0.12199999392032623;1.1214239597320557;0.0;0.0;0.0
507;0.0;0.0;0.0;0.06539200246334076;-0.10638399422168732;1.1380159854888916;0.0;0.0;0.0
509;0.0;0.0;0.0;0.0849120020866394;-0.1180959939956665;1.122399926185608;0.0;0.0;0.0
512;-0.03415999934077263;0.02000799961388111;1.0030839443206787;0.09272000193595886;-0.11419199407100677;1.134112000465393;-10.443124771118164;-0.6299999952316284;6.794374942779541
514;0.0;0.0;0.0;0.08100800216197968;-0.11028799414634705;1.1419199705123901;0.0;0.0;0.0
516;0.0;0.0;0.0;0.10052800178527832;-0.1180959939956665;1.1175199747085571;0.0;0.0;0.0
518;0.0;0.0;0.0;0.12297599762678146;-0.12199999392032623;1.1380159854888916;0.0;0.0;0.0
520;-0.02147199958562851;0.010491999797523022;1.0108920335769653;0.12297599762678146;-0.13371199369430542;1.134112000465393;-11.703125;-1.190000057220459;6.234375
522;0.0;0.0;0.0;0.10735999792814255;-0.1298079937696457;1.146799921989441;0.0;0.0;0.0
524;0.0;0.0;0.0;0.11224000155925751;-0.12590399384498596;1.1380159854888916;0.0;0.0;0.0
526;0.0;0.0;0.0;0.12297599762678146;-0.12590399384498596;1.1419199705123901;0.0;0.0;0.0
529;-0.0004879999905824661;-0.003903999924659729;1.012112021446228;0.10735999792814255;-0.1454239934682846;1.1214239597320557;-12.123125076293945;-1.1200000047683716;6.094375133514404
531;0.0;0.0;0.0;0.11907199770212173;-0.16103999316692352;1.134112000465393;0.0;0.0;0.0
533;0.0;0.0;0.0;0.14640000462532043;-0.1454239934682846;1.134112000465393;0.0;0.0;0.0
535;0.0;0.0;0.0;0.13468798995018005;-0.18055999279022217;1.134112000465393;0.0;0.0;0.0
537;0.006587999872863293;-0.01659199967980385;1.0011320114135742;0.11614400148391724;-0.15323199331760406;1.1302080154418945;-11.213125228881836;0.3499999940395355;5.464375019073486
539;0.0;0.0;0.0;0.13468798995018005;-0.16494399309158325;1.134112000465393;0.0;0.0;0.0
541;0.0;0.0;0.0;0.10833600163459778;-0.17665599286556244;1.10971200466156;0.0;0.0;0.0
543;0.0;0.0;0.0;0.1424959897994995;-0.18055999279022217;1.1175199747085571;0.0;0.0;0.0
546;-0.0014639999717473984;-0.03245199844241142;0.9945439696311951;0.09174399822950363;-0.1727519929409027;1.1136159896850586;-8.973124504089355;2.940000057220459;3.854374885559082
548;0.0;0.0;0.0;0.10345599800348282;-0.15323199331760406;1.101904034614563;0.0;0.0;0.0
550;0.0;0.0;0.0;0.10345599800348282;-0.18055999279022217;1.1058080196380615;0.0;0.0;0.0
552;0.0;0.0;0.0;0.06148799881339073;-0.1727519929409027;1.1058080196380615;0.0;0.0;0.0
554;-0.02000799961388111;-0.037087999284267426;0.9821000099182129;0.08100800216197968;-0.1571359932422638;1.101904034614563;-6.033124923706055;3.7799999713897705;2.5243749618530273
556;0.0;0.0;0.0;0.10345599800348282;-0.15323199331760406;1.10971200466156;0.0;0.0;0.0
558;0.0;0.0;0.0;0.07710400223731995;-0.17665599286556244;1.1058080196380615;0.0;0.0;0.0
560;0.0;0.0;0.0;0.08100800216197968;-0.1727519929409027;1.1175199747085571;0.0;0.0;0.0
563;-0.03440399840474129;-0.031964000314474106;0.9762439727783203;0.07710400223731995;-0.1571359932422638;1.1136159896850586;-2.5331249237060547;2.6600000858306885;1.2643749713897705
565;0.0;0.0;0.0;0.09662400186061859;-0.1571359932422638;1.0931199789047241;0.0;0.0;0.0
567;0.0;0.0;0.0;0.06929600238800049;-0.16884799301624298;1.101904034614563;0.0;0.0;0.0
569;0.0;0.0;0.0;0.09272000193595886;-0.14932799339294434;1.097999930381775;0.0;0.0;0.0
571;-0.032207999378442764;-0.02659599855542183;0.973315954208374;0.10735999792814255;-0.17665599286556244;1.097999930381775;1.106874942779541;0.49000000953674316;0.0043750000186264515
573;0.0;0.0;0.0;0.10443200170993805;-0.1571359932422638;1.10971200466156;0.0;0.0;0.0
575;0.0;0.0;0.0;0.12297599762678146;-0.1454239934682846;1.085312008857727;0.0;0.0;0.0
577;0.0;0.0;0.0;0.09662400186061859;-0.13371199369430542;1.0892159938812256;0.0;0.0;0.0
580;-0.014883999712765217;-0.01878799870610237;0.9681919813156128;0.10443200170993805;-0.16103999316692352;1.097999930381775;4.606875419616699;0.42000001668930054;-0.4156250059604645
582;0.0;0.0;0.0;0.09662400186061859;-0.13371199369430542;1.0931199789047241;0.0;0.0;0.0
584;0.0;0.0;0.0;0.10833600163459778;-0.1298079937696457;1.101904034614563;0.0;0.0;0.0
586;0.0;0.0;0.0;0.11907199770212173;-0.13761599361896515;1.0970239639282227;0.0;0.0;0.0
588;-0.00951599981635809;-0.0019519999623298645;0.9718520045280457;0.11126399785280228;-0.1298079937696457;1.101904034614563;7.3368754386901855;1.9600000381469727;-0.13562500476837158
590;0.0;0.0;0.0;0.1268799901008606;-0.12199999392032623;1.097999930381775;0.0;0.0;0.0
592;0.0;0.0;0.0;0.1424959897994995;-0.11028799414634705;1.0901919603347778;0.0;0.0;0.0
594;0.0;0.0;0.0;0.10345599800348282;-0.0907679945230484;1.101904034614563;0.0;0.0;0.0
597;-0.00951599981635809;0.023667998611927032;0.97843998670578;0.12297599762678146;-0.08686399459838867;1.1028800010681152;8.876874923706055;3.990000009536743;0.21437500417232513
599;0.0;0.0;0.0;0.10052800178527832;-0.0907679945230484;1.1106879711151123;0.0;0.0;0.0
601;0.0;0.0;0.0;0.10052800178527832;-0.07905599474906921;1.1106879711151123;0.0;0.0;0.0
603;0.0;0.0;0.0;0.09662400186061859;-0.0634399950504303;1.1428959369659424;0.0;0.0;0.0
605;-0.005367999896407127;0.05148399993777275;0.9964959621429443;0.10833600163459778;-0.07515199482440948;1.126304030418396;8.806875228881836;6.090000152587891;0.7043749690055847
607;0.0;0.0;0.0;0.13078400492668152;-0.08295999467372894;1.150704026222229;0.0;0.0;0.0
609;0.0;0.0;0.0;0.13468798995018005;-0.07515199482440948;1.1419199705123901;0.0;0.0;0.0
611;0.0;0.0;0.0;0.10735999792814255;-0.05563199892640114;1.146799921989441;0.0;0.0;0.0
614;-0.003415999934077263;0.0727119967341423;1.020651936531067;0.11907199770212173;-0.04391999915242195;1.1702239513397217;6.846875190734863;8.539999961853027;1.334375023841858
616;0.0;0.0;0.0;0.10735999792814255;-0.04782399907708168;1.158511996269226;0.0;0.0;0.0
618;0.0;0.0;0.0;0.10735999792814255;-0.05563199892640114;1.158511996269226;0.0;0.0;0.0
620;0.0;0.0;0.0;0.10052800178527832;-0.06734399497509003;1.150704026222229;0.0;0.0;0.0
622;-0.020739998668432236;0.07246799767017365;1.0255320072174072;0.08881600201129913;-0.07905599474906921;1.1624159812927246;3.486875057220459;10.569999694824219;1.2643749713897705
624;0.0;0.0;0.0;0.09662400186061859;-0.05953599885106087;1.1350879669189453;0.0;0.0;0.0
626;0.0;0.0;0.0;0.06148799881339073;-0.07124799489974976;1.1311839818954468;0.0;0.0;0.0
628;0.0;0.0;0.0;0.11224000155925751;-0.07124799489974976;1.1272799968719482;0.0;0.0;0.0
631;-0.039772000163793564;0.06880799680948257;1.012112021446228;0.09272000193595886;-0.07905599474906921;1.1145919561386108;0.2668749988079071;10.430000305175781;0.5643749833106995
633;0.0;0.0;0.0;0.06148799881339073;-0.05563199892640114;1.1311839818954468;0.0;0.0;0.0
635;0.0;0.0;0.0;0.0849120020866394;-0.05563199892640114;1.1106879711151123;0.0;0.0;0.0
637;0.0;0.0;0.0;0.09955199807882309;-0.05563199892640114;1.1106879711151123;0.0;0.0;0.0
639;-0.048312000930309296;0.06588000059127808;0.9896639585494995;0.07710400223731995;-0.07124799489974976;1.0862879753112793;-1.9031250476837158;8.75;0.1443749964237213
641;0.0;0.0;0.0;0.06148799881339073;-0.0634399950504303;1.0892159938812256;0.0;0.0;0.0
643;0.0;0.0;0.0;0.08100800216197968;-0.05953599885106087;1.1058080196380615;0.0;0.0;0.0
645;0.0;0.0;0.0;0.07320000231266022;-0.09467199444770813;1.0892159938812256;0.0;0.0;0.0
648;-0.05050799995660782;0.049531999975442886;0.9686799645423889;0.06539200246334076;-0.10638399422168732;1.0775039196014404;-2.393125057220459;7.349999904632568;-0.34562498331069946
650;0.0;0.0;0.0;0.0849120020866394;-0.09857599437236786;1.0814080238342285;0.0;0.0;0.0
652;0.0;0.0;0.0;0.07710400223731995;-0.10638399422168732;1.0814080238342285;0.0;0.0;0.0
654;0.0;0.0;0.0;0.045871999114751816;-0.10247999429702759;1.0814080238342285;0.0;0.0;0.0
656;-0.04904399812221527;0.03513599932193756;0.9579439759254456;0.06148799881339073;-0.11419199407100677;1.060912013053894;-1.3431249856948853;6.789999961853027;-0.9756250381469727
658;0.0;0.0;0.0;0.06929600238800049;-0.11419199407100677;1.0657919645309448;0.0;0.0;0.0
660;0.0;0.0;0.0;0.08100800216197968;-0.08295999467372894;1.097999930381775;0.0;0.0;0.0
662;0.0;0.0;0.0;0.057583998888731;-0.11028799414634705;1.0657919645309448;0.0;0.0;0.0
665;-0.05538799986243248;0.025619998574256897;0.9535520076751709;0.06148799881339073;-0.08686399459838867;1.0862879753112793;0.2668749988079071;7.070000171661377;-1.3256250619888306
667;0.0;0.0;0.0;0.06929600238800049;-0.11419199407100677;1.073599934577942;0.0;0.0;0.0
669;0.0;0.0;0.0;0.03806399926543236;-0.08686399459838867;1.0823839902877808;0.0;0.0;0.0
671;0.0;0.0;0.0;0.0302559994161129;-0.10247999429702759;1.097999930381775;0.0;0.0;0.0
673;-0.07807999849319458;0.024643998593091965;0.9567239880561829;0.03415999934077263;-0.11028799414634705;1.0901919603347778;2.296875;8.050000190734863;-2.025624990463257
675;0.0;0.0;0.0;0.014639999717473984;-0.12590399384498596;1.0775039196014404;0.0;0.0;0.0
677;0.0;0.0;0.0;0.018543999642133713;-0.10638399422168732;1.1136159896850586;0.0;0.0;0.0
680;0.0;0.0;0.0;0.02635199949145317;-0.10638399422168732;1.0931199789047241;0.0;0.0;0.0
682;-0.09686800092458725;0.030499998480081558;0.9674599766731262;0.022447999566793442;-0.08295999467372894;1.0814080238342285;4.116875171661377;7.630000114440918;-3.9156250953674316
684;0.0;0.0;0.0;0.0302559994161129;-0.10638399422168732;1.085312008857727;0.0;0.0;0.0
686;0.0;0.0;0.0;0.022447999566793442;-0.11419199407100677;1.0892159938812256;0.0;0.0;0.0
688;0.0;0.0;0.0;0.0302559994161129;-0.08686399459838867;1.097999930381775;0.0;0.0;0.0
690;-0.09686800092458725;0.040748000144958496;0.9755119681358337;0.04196799919009209;-0.08295999467372894;1.097999930381775;5.026875019073486;5.599999904632568;-5.665625095367432
692;0.0;0.0;0.0;0.022447999566793442;-0.08295999467372894;1.1058080196380615;0.0;0.0;0.0
694;0.0;0.0;0.0;0.022447999566793442;-0.08686399459838867;1.101904034614563;0.0;0.0;0.0
697;0.0;0.0;0.0;0.0302559994161129;-0.08686399459838867;1.1136159896850586;0.0;0.0;0.0
699;-0.08930400013923645;0.05245999991893768;0.9779520034790039;0.045871999114751816;-0.0634399950504303;1.101904034614563;5.376875400543213;3.430000066757202;-6.505625247955322
701;0.0;0.0;0.0;0.04196799919009209;-0.08686399459838867;1.101904034614563;0.0;0.0;0.0
703;0.0;0.0;0.0;0.018543999642133713;-0.05953599885106087;1.0931199789047241;0.0;0.0;0.0
705;0.0;0.0;0.0;0.04196799919009209;-0.07124799489974976;1.1175199747085571;0.0;0.0;0.0
707;-0.08881600201129913;0.06319599598646164;0.9808799624443054;0.03806399926543236;-0.07905599474906921;1.1058080196380615;5.236875057220459;1.2599999904632568;-7.135624885559082
709;0.0;0.0;0.0;0.045871999114751816;-0.05953599885106087;1.126304030418396;0.0;0.0;0.0
711;0.0;0.0;0.0;0.02635199949145317;-0.05563199892640114;1.122399926185608;0.0;0.0;0.0
714;0.0;0.0;0.0;0.02635199949145317;-0.05172799900174141;1.097999930381775;0.0;0.0;0.0
716;-0.08588799834251404;0.0697840005159378;0.9818559885025024;0.0302559994161129;-0.0634399950504303;1.1136159896850586;4.466875076293945;-0.5600000023841858;-8.535624504089355
718;0.0;0.0;0.0;0.006831999868154526;-0.08295999467372894;1.1136159896850586;0.0;0.0;0.0
720;0.0;0.0;0.0;0.053679998964071274;-0.07124799489974976;1.10971200466156;0.0;0.0;0.0
722;0.0;0.0;0.0;0.0302559994161129;-0.05563199892640114;1.097999930381775;0.0;0.0;0.0
724;-0.0756400004029274;0.07222399860620499;0.9755119681358337;0.06148799881339073;-0.05172799900174141;1.0892159938812256;3.2068750858306885;-2.5899999141693115;-9.305624961853027
726;0.0;0.0;0.0;0.045871999114751816;-0.03611199930310249;1.0892159938812256;0.0;0.0;0.0
728;0.0;0.0;0.0;0.06148799881339073;-0.032207999378442764;1.1136159896850586;0.0;0.0;0.0
731;0.0;0.0;0.0;0.07710400223731995;-0.032207999378442764;1.1136159896850586;0.0;0.0;0.0
733;-0.058559998869895935;0.08271599560976028;0.9745360016822815;0.06539200246334076;-0.06734399497509003;1.101904034614563;1.5968749523162842;-4.480000019073486;-8.815624237060547
735;0.0;0.0;0.0;0.0849120020866394;-0.04782399907708168;1.10971200466156;0.0;0.0;0.0
737;0.0;0.0;0.0;0.09662400186061859;-0.05953599885106087;1.122399926185608;0.0;0.0;0.0
739;0.0;0.0;0.0;0.10345599800348282;-0.05953599885106087;1.0931199789047241;0.0;0.0;0.0
741;-0.03440399840474129;0.08295999467372894;0.9701439738273621;0.08100800216197968;-0.04391999915242195;1.10971200466156;-0.08312499523162842;-4.619999885559082;-7.555624961853027
743;0.0;0.0;0.0;0.0849120020866394;-0.03611199930310249;1.1058080196380615;0.0;0.0;0.0
745;0.0;0.0;0.0;0.09564799815416336;-0.05563199892640114;1.0814080238342285;0.0;0.0;0.0
748;0.0;0.0;0.0;0.10345599800348282;-0.05172799900174141;1.0814080238342285;0.0;0.0;0.0
750;-0.01878799870610237;0.08466799557209015;0.9691680073738098;0.09662400186061859;-0.032207999378442764;1.0814080238342285;-1.3431249856948853;-2.0999999046325684;-6.925624847412109
752;0.0;0.0;0.0;0.11126399785280228;-0.04001599922776222;1.1058080196380615;0.0;0.0;0.0
754;0.0;0.0;0.0;0.115167997777462;-0.07515199482440948;1.101904034614563;0.0;0.0;0.0
756;0.0;0.0;0.0;0.10345599800348282;-0.06734399497509003;1.097999930381775;0.0;0.0;0.0
758;-0.012199999764561653;0.07612799853086472;0.9708759784698486;0.10443200170993805;-0.07515199482440948;1.101904034614563;-1.9731249809265137;0.42000001668930054;-5.735625267028809
760;0.0;0.0;0.0;0.09662400186061859;-0.09857599437236786;1.0892159938812256;0.0;0.0;0.0
762;0.0;0.0;0.0;0.10345599800348282;-0.06734399497509003;1.1175199747085571;0.0;0.0;0.0
765;0.0;0.0;0.0;0.10345599800348282;-0.07124799489974976;1.0931199789047241;0.0;0.0;0.0
767;-0.02000799961388111;0.05929199978709221;0.9747799634933472;0.0849120020866394;-0.0634399950504303;1.1058080196380615;-2.463124990463257;1.8899999856948853;-3.635625123977661
769;0.0;0.0;0.0;0.08881600201129913;-0.08295999467372894;1.1136159896850586;0.0;0.0;0.0
771;0.0;0.0;0.0;0.053679998964071274;-0.0907679945230484;1.0931199789047241;0.0;0.0;0.0
773;0.0;0.0;0.0;0.057583998888731;-0.0907679945230484;1.101904034614563;0.0;0.0;0.0
775;-0.05270399898290634;0.052216000854969025;0.9803919792175293;0.049775999039411545;-0.0907679945230484;1.1175199747085571;-2.253124952316284;1.6800000667572021;-2.1656250953674316
777;0.0;0.0;0.0;0.049775999039411545;-0.08686399459838867;1.0814080238342285;0.0;0.0;0.0
779;0.0;0.0;0.0;0.06929600238800049;-0.10247999429702759;1.1058080196380615;0.0;0.0;0.0
782;0.0;0.0;0.0;0.053679998964071274;-0.0907679945230484;1.0892159938812256;0.0;0.0;0.0
784;-0.06124399974942207;0.052947998046875;0.9713639616966248;0.053679998964071274;-0.07515199482440948;1.10971200466156;-2.1131250858306885;0.7699999809265137;-1.8856250047683716
786;0.0;0.0;0.0;0.03415999934077263;-0.05172799900174141;1.1184959411621094;0.0;0.0;0.0
788;0.0;0.0;0.0;0.06929600238800049;-0.0634399950504303;1.1058080196380615;0.0;0.0;0.0
790;0.0;0.0;0.0;0.08100800216197968;-0.04391999915242195;1.1058080196380615;0.0;0.0;0.0
792;-0.06490399688482285;0.06880799680948257;0.981611967086792;0.045871999114751816;-0.05953599885106087;1.097999930381775;-2.253124952316284;0.699999988079071;-1.5356249809265137
794;0.0;0.0;0.0;0.06539200246334076;-0.03611199930310249;1.1184959411621094;0.0;0.0;0.0
796;0.0;0.0;0.0;0.049775999039411545;-0.07905599474906921;1.101904034614563;0.0;0.0;0.0
799;0.0;0.0;0.0;0.06539200246334076;-0.07515199482440948;1.1272799968719482;0.0;0.0;0.0
801;-0.06295199692249298;0.06831999868154526;0.9845399856567383;0.0849120020866394;-0.05563199892640114;1.1106879711151123;-2.883125066757202;-0.49000000953674316;-0.5556250214576721
803;0.0;0.0;0.0;0.06539200246334076;-0.05172799900174141;1.1145919561386108;0.0;0.0;0.0
805;0.0;0.0;0.0;0.057583998888731;-0.0634399950504303;1.1311839818954468;0.0;0.0;0.0
807;0.0;0.0;0.0;0.0849120020866394;-0.06734399497509003;1.1145919561386108;0.0;0.0;0.0
809;-0.05709599703550339;0.06612399965524673;0.9872239828109741;0.06539200246334076;-0.08686399459838867;1.1145919561386108;-2.8131251335144043;-2.0299999713897705;0.21437500417232513
811;0.0;0.0;0.0;0.08100800216197968;-0.07515199482440948;1.122399926185608;0.0;0.0;0.0
813;0.0;0.0;0.0;0.0849120020866394;-0.08686399459838867;1.1136159896850586;0.0;0.0;0.0
816;0.0;0.0;0.0;0.057583998888731;-0.09857599437236786;1.134112000465393;0.0;0.0;0.0
818;-0.0500199981033802;0.05416800081729889;0.9884439706802368;0.0849120020866394;-0.08295999467372894;1.101904034614563;-2.953125;-3.430000066757202;0.5643749833106995
820;0.0;0.0;0.0;0.0849120020866394;-0.07515199482440948;1.1175199747085571;0.0;0.0;0.0
822;0.0;0.0;0.0;0.08100800216197968;-0.1180959939956665;1.10971200466156;0.0;0.0;0.0
824;0.0;0.0;0.0;0.09955199807882309;-0.08295999467372894;1.1175199747085571;0.0;0.0;0.0
826;-0.035868000239133835;0.03660000115633011;0.9811239838600159;0.10443200170993805;-0.10247999429702759;1.101904034614563;-3.653125047683716;-3.8499999046325684;0.4943750202655792
828;0.0;0.0;0.0;0.11126399785280228;-0.10247999429702759;1.1067839860916138;0.0;0.0;0.0
830;0.0;0.0;0.0;0.09272000193595886;-0.12199999392032623;1.1028800010681152;0.0;0.0;0.0
833;0.0;0.0;0.0;0.053679998964071274;-0.11419199407100677;1.0940959453582764;0.0;0.0;0.0
835;-0.03367199748754501;0.014639999717473984;0.9750239849090576;0.09662400186061859;-0.11419199407100677;1.101904034614563;-3.653125047683716;-2.0999999046325684;-0.27562499046325684
837;0.0;0.0;0.0;0.08881600201129913;-0.12199999392032623;1.097999930381775;0.0;0.0;0.0
839;0.0;0.0;0.0;0.07320000231266022;-0.13371199369430542;1.0775039196014404;0.0;0.0;0.0
841;0.0;0.0;0.0;0.057583998888731;-0.14151999354362488;1.0862879753112793;0.0;0.0;0.0
843;-0.03635599836707115;-0.004635999910533428;0.9589200019836426;0.09272000193595886;-0.1844639927148819;1.0775039196014404;-2.883125066757202;1.1200000047683716;-2.025624990463257
845;0.0;0.0;0.0;0.08100800216197968;-0.14932799339294434;1.0687199831008911;0.0;0.0;0.0
847;0.0;0.0;0.0;0.08100800216197968;-0.1454239934682846;1.0775039196014404;0.0;0.0;0.0
850;0.0;0.0;0.0;0.09662400186061859;-0.16103999316692352;1.0687199831008911;0.0;0.0;0.0
852;-0.035868000239133835;-0.010247999802231789;0.9550159573554993;0.0849120020866394;-0.16103999316692352;1.073599934577942;-1.1331250667572021;5.460000038146973;-4.615624904632568
854;0.0;0.0;0.0;0.10735999792814255;-0.1454239934682846;1.0814080238342285;0.0;0.0;0.0
856;0.0;0.0;0.0;0.10345599800348282;-0.1454239934682846;1.10971200466156;0.0;0.0;0.0
858;0.0;0.0;0.0;0.07710400223731995;-0.15323199331760406;1.0726239681243896;0.0;0.0;0.0
860;-0.03757599741220474;-0.00878399983048439;0.9677039980888367;0.06148799881339073;-0.15323199331760406;1.122399926185608;1.0368750095367432;10.289999961853027;-7.065625190734863
863;0.0;0.0;0.0;0.06929600238800049;-0.13371199369430542;1.122399926185608;0.0;0.0;0.0
865;0.0;0.0;0.0;0.057583998888731;-0.1298079937696457;1.122399926185608;0.0;0.0;0.0
867;0.0;0.0;0.0;0.07710400223731995;-0.1454239934682846;1.1389919519424438;0.0;0.0;0.0
869;-0.052216000854969025;0.009271999821066856;0.9991799592971802;0.03806399926543236;-0.11028799414634705;1.1389919519424438;3.2068750858306885;13.789999961853027;-8.745624542236328
871;0.0;0.0;0.0;0.03415999934077263;-0.1180959939956665;1.1555839776992798;0.0;0.0;0.0
873;0.0;0.0;0.0;0.045871999114751816;-0.11419199407100677;1.1877919435501099;0.0;0.0;0.0
875;0.0;0.0;0.0;0.06539200246334076;-0.11419199407100677;1.146799921989441;0.0;0.0;0.0
877;-0.07539600133895874;0.02659599855542183;1.0311440229415894;0.03806399926543236;-0.10638399422168732;1.1799839735031128;3.6968750953674316;14.069999694824219;-11.195624351501465
880;0.0;0.0;0.0;0.02635199949145317;-0.1298079937696457;1.1428959369659424;0.0;0.0;0.0
881;0.0;0.0;0.0;0.018543999642133713;-0.10638399422168732;1.1790080070495605;0.0;0.0;0.0
884;0.0;0.0;0.0;0.022447999566793442;-0.09857599437236786;1.1712000370025635;0.0;0.0;0.0
886;-0.09149999916553497;0.03537999838590622;1.0433440208435059;0.03415999934077263;-0.0907679945230484;1.1624159812927246;3.1368749141693115;11.34000015258789;-13.225625038146973
888;0.0;0.0;0.0;0.0302559994161129;-0.09467199444770813;1.182911992073059;0.0;0.0;0.0
890;0.0;0.0;0.0;0.010735999792814255;-0.09467199444770813;1.1380159854888916;0.0;0.0;0.0
892;0.0;0.0;0.0;0.0302559994161129;-0.07905599474906921;1.1419199705123901;0.0;0.0;0.0
894;-0.09784399718046188;0.04440800100564957;1.0326080322265625;-0.020495999604463577;-0.08686399459838867;1.1663199663162231;2.296875;7.210000038146973;-14.2056245803833
897;0.0;0.0;0.0;0.018543999642133713;-0.07515199482440948;1.158511996269226;0.0;0.0;0.0
898;0.0;0.0;0.0;-0.01659199967980385;-0.05172799900174141;1.146799921989441;0.0;0.0;0.0
901;0.0;0.0;0.0;0.010735999792814255;-0.05172799900174141;1.1380159854888916;0.0;0.0;0.0
903;-0.1076039969921112;0.06465999782085419;1.0243120193481445;0.02635199949145317;-0.05953599885106087;1.1380159854888916;1.3168749809265137;3.7100000381469727;-15.885624885559082
905;0.0;0.0;0.0;0.04196799919009209;-0.05563199892640114;1.134112000465393;0.0;0.0;0.0
907;0.0;0.0;0.0;0.0302559994161129;-0.04782399907708168;1.1302080154418945;0.0;0.0;0.0
909;0.0;0.0;0.0;0.006831999868154526;-0.020495999604463577;1.1136159896850586;0.0;0.0;0.0
911;-0.09589199721813202;0.08344800025224686;1.0062559843063354;0.02635199949145317;-0.028303999453783035;1.1546080112457275;-0.22312499582767487;1.3300000429153442;-17.1456241607666
913;0.0;0.0;0.0;0.045871999114751816;-0.05563199892640114;1.134112000465393;0.0;0.0;0.0
916;0.0;0.0;0.0;0.03806399926543236;-0.028303999453783035;1.1058080196380615;0.0;0.0;0.0
918;0.0;0.0;0.0;0.06148799881339073;-0.020495999604463577;1.10971200466156;0.0;0.0;0.0
920;-0.07490799576044083;0.09930799901485443;0.994055986404419;0.06929600238800049;-0.032207999378442764;1.1175199747085571;-2.1831250190734863;2.1700000762939453;-18.05562400817871
922;0.0;0.0;0.0;0.03806399926543236;-0.00878399983048439;1.10971200466156;0.0;0.0;0.0
924;0.0;0.0;0.0;0.04196799919009209;-0.020495999604463577;1.101904034614563;0.0;0.0;0.0
926;0.0;0.0;0.0;0.06148799881339073;-0.020495999604463577;1.1175199747085571;0.0;0.0;0.0
928;-0.0710039958357811;0.10613999515771866;0.990884006023407;0.049775999039411545;-0.032207999378442764;1.10971200466156;-3.3731250762939453;4.480000019073486;-17.775625228881836
931;0.0;0.0;0.0;0.03415999934077263;-0.01659199967980385;1.134112000465393;0.0;0.0;0.0
933;0.0;0.0;0.0;0.03806399926543236;-0.04782399907708168;1.10971200466156;0.0;0.0;0.0
935;0.0;0.0;0.0;0.0302559994161129;-0.03611199930310249;1.126304030418396;0.0;0.0;0.0
937;-0.08003199845552444;0.10491999983787537;0.9947879910469055;0.04196799919009209;-0.024399999529123306;1.134112000465393;-4.843124866485596;5.389999866485596;-16.725624084472656
939;0.0;0.0;0.0;0.02635199949145317;-0.032207999378442764;1.1175199747085571;0.0;0.0;0.0
941;0.0;0.0;0.0;0.0302559994161129;-0.03611199930310249;1.10971200466156;0.0;0.0;0.0
943;0.0;0.0;0.0;0.049775999039411545;-0.04001599922776222;1.10971200466156;0.0;0.0;0.0
945;-0.08173999935388565;0.0983319953083992;0.9842959642410278;0.04196799919009209;-0.03611199930310249;1.101904034614563;-6.523124694824219;5.53000020980835;-15.745624542236328
948;0.0;0.0;0.0;0.03806399926543236;-0.04782399907708168;1.1058080196380615;0.0;0.0;0.0
950;0.0;0.0;0.0;0.053679998964071274;-0.07124799489974976;1.1175199747085571;0.0;0.0;0.0
952;0.0;0.0;0.0;0.049775999039411545;-0.0634399950504303;1.0970239639282227;0.0;0.0;0.0
954;-0.06954000145196915;0.08759599924087524;0.9781959652900696;0.057583998888731;-0.06734399497509003;1.0931199789047241;-7.08312463760376;6.929999828338623;-15.325624465942383
956;0.0;0.0;0.0;0.045871999114751816;-0.05563199892640114;1.0892159938812256;0.0;0.0;0.0
958;0.0;0.0;0.0;0.03806399926543236;-0.05172799900174141;1.122399926185608;0.0;0.0;0.0
960;0.0;0.0;0.0;0.04196799919009209;-0.05172799900174141;1.085312008857727;0.0;0.0;0.0
962;-0.07197999954223633;0.07954400032758713;0.973315954208374;0.053679998964071274;-0.05953599885106087;1.10971200466156;-5.893124580383301;9.029999732971191;-14.135624885559082
965;0.0;0.0;0.0;0.0302559994161129;-0.04001599922776222;1.0726239681243896;0.0;0.0;0.0
967;0.0;0.0;0.0;0.0302559994161129;-0.06734399497509003;1.0892159938812256;0.0;0.0;0.0
969;0.0;0.0;0.0;0.04196799919009209;-0.07515199482440948;1.101904034614563;0.0;0.0;0.0
971;-0.09027999639511108;0.0785679966211319;0.9799039959907532;-0.0009759999811649323;-0.032207999378442764;1.101904034614563;-4.143124580383301;9.869999885559082;-13.155624389648438
973;0.0;0.0;0.0;0.03806399926543236;-0.05563199892640114;1.1175199747085571;0.0;0.0;0.0
975;0.0;0.0;0.0;0.02635199949145317;-0.05953599885106087;1.1302080154418945;0.0;0.0;0.0
977;0.0;0.0;0.0;0.010735999792814255;-0.05172799900174141;1.101904034614563;0.0;0.0;0.0
979;-0.10369999706745148;0.07930000126361847;0.9916160106658936;0.014639999717473984;-0.07124799489974976;1.1302080154418945;-3.023124933242798;7.490000247955322;-12.595624923706055
982;0.0;0.0;0.0;0.022447999566793442;-0.07905599474906921;1.1058080196380615;0.0;0.0;0.0
984;0.0;0.0;0.0;0.014639999717473984;-0.05172799900174141;1.1136159896850586;0.0;0.0;0.0
986;0.0;0.0;0.0;-0.00878399983048439;-0.05172799900174141;1.146799921989441;0.0;0.0;0.0
988;-0.10662800073623657;0.0773480013012886;1.0001559257507324;0.014639999717473984;-0.05172799900174141;1.1380159854888916;-3.1631250381469727;4.96999979019165;-11.825624465942383
990;0.0;0.0;0.0;-0.0009759999811649323;-0.03611199930310249;1.1136159896850586;0.0;0.0;0.0
992;0.0;0.0;0.0;0.022447999566793442;-0.06734399497509003;1.126304030418396;0.0;0.0;0.0
994;0.0;0.0;0.0;0.014639999717473984;-0.06734399497509003;1.1136159896850586;0.0;0.0;0.0
996;-0.11687599867582321;0.07149200141429901;0.9977160096168518;0.014639999717473984;-0.04391999915242195;1.126304030418396;-4.003124713897705;1.5399999618530273;-11.685624122619629
999;0.0;0.0;0.0;0.022447999566793442;-0.09467199444770813;1.1272799968719482;0.0;0.0;0.0
1001;0.0;0.0;0.0;-0.01268799975514412;-0.0907679945230484;1.101904034614563;0.0;0.0;0.0
1003;0.0;0.0;0.0;0.014639999717473984;-0.10247999429702759;1.101904034614563;0.0;0.0;0.0
1005;-0.10979999601840973;0.05441199988126755;0.9813680052757263;0.022447999566793442;-0.11028799414634705;1.0862879753112793;-4.493124961853027;-2.799999952316284;-12.4556245803833
1007;0.0;0.0;0.0;0.022447999566793442;-0.08686399459838867;1.073599934577942;0.0;0.0;0.0
1009;0.0;0.0;0.0;0.03806399926543236;-0.11028799414634705;1.0657919645309448;0.0;0.0;0.0
1011;0.0;0.0;0.0;0.04196799919009209;-0.09467199444770813;1.0940959453582764;0.0;0.0;0.0
1013;-0.08149600028991699;0.03611199930310249;0.9564799666404724;0.06148799881339073;-0.10247999429702759;1.0657919645309448;-4.283124923706055;-5.320000171661377;-13.575624465942383
1016;0.0;0.0;0.0;0.057583998888731;-0.10247999429702759;1.036512017250061;0.0;0.0;0.0
1018;0.0;0.0;0.0;0.07320000231266022;-0.09857599437236786;1.036512017250061;0.0;0.0;0.0
1020;0.0;0.0;0.0;0.07320000231266022;-0.10638399422168732;1.044319987297058;0.0;0.0;0.0
1022;-0.054655998945236206;0.029279999434947968;0.9259799718856812;0.07710400223731995;-0.09467199444770813;1.019919991493225;-3.3731250762939453;-3.7799999713897705;-14.135624885559082
1024;0.0;0.0;0.0;0.08881600201129913;-0.09857599437236786;1.019919991493225;0.0;0.0;0.0
1026;0.0;0.0;0.0;0.08881600201129913;-0.09467199444770813;1.044319987297058;0.0;0.0;0.0
1028;0.0;0.0;0.0;0.08881600201129913;-0.08686399459838867;1.0404160022735596;0.0;0.0;0.0
1030;-0.040991999208927155;0.04513999819755554;0.9164639711380005;0.09662400186061859;-0.07515199482440948;1.044319987297058;-1.6231250762939453;-0.6299999952316284;-13.785624504089355
1033;0.0;0.0;0.0;0.07320000231266022;-0.0634399950504303;1.0570080280303955;0.0;0.0;0.0
1035;0.0;0.0;0.0;0.057583998888731;-0.07515199482440948;1.0687199831008911;0.0;0.0;0.0
1037;0.0;0.0;0.0;0.06929600238800049;-0.05563199892640114;1.060912013053894;0.0;0.0;0.0
1039;-0.04879999905824661;0.07197999954223633;0.9247599840164185;0.08100800216197968;-0.04001599922776222;1.0687199831008911;0.19687500596046448;2.1700000762939453;-12.17562484741211
1041;0.0;0.0;0.0;0.06148799881339073;-0.024399999529123306;1.0648159980773926;0.0;0.0;0.0
1043;0.0;0.0;0.0;0.06929600238800049;-0.024399999529123306;1.0814080238342285;0.0;0.0;0.0
1045;0.0;0.0;0.0;0.06148799881339073;-0.032207999378442764;1.085312008857727;0.0;0.0;0.0
1047;-0.06490399688482285;0.09686800092458725;0.95306396484375;0.045871999114751816;-0.01659199967980385;1.0775039196014404;1.1768749952316284;3.3600001335144043;-10.005624771118164
1050;0.0;0.0;0.0;0.053679998964071274;-0.032207999378442764;1.1136159896850586;0.0;0.0;0.0
1052;0.0;0.0;0.0;0.053679998964071274;-0.00878399983048439;1.097999930381775;0.0;0.0;0.0
1054;0.0;0.0;0.0;0.03415999934077263;-0.01268799975514412;1.10971200466156;0.0;0.0;0.0
1056;-0.07807999849319458;0.11272799968719482;0.982587993144989;0.03806399926543236;-0.04001599922776222;1.1058080196380615;0.12687499821186066;3.5;-8.255624771118164
1058;0.0;0.0;0.0;0.03415999934077263;-0.00878399983048439;1.097999930381775;0.0;0.0;0.0
1060;0.0;0.0;0.0;0.022447999566793442;-0.020495999604463577;1.1546080112457275;0.0;0.0;0.0
1062;0.0;0.0;0.0;0.02635199949145317;-0.00878399983048439;1.1624159812927246;0.0;0.0;0.0
1064;-0.09101200103759766;0.1134599968791008;1.0147960186004639;0.018543999642133713;-0.024399999529123306;1.1419199705123901;-3.023124933242798;3.2200000286102295;-6.995625019073486
1067;0.0;0.0;0.0;0.0029279999434947968;-0.00878399983048439;1.150704026222229;0.0;0.0;0.0
1069;0.0;0.0;0.0;0.010735999792814255;-0.01268799975514412;1.1663199663162231;0.0;0.0;0.0
1071;0.0;0.0;0.0;-0.01268799975514412;-0.05172799900174141;1.150704026222229;0.0;0.0;0.0
1073;-0.11101999878883362;0.1088239997625351;1.0291919708251953;-0.0009759999811649323;-0.03611199930310249;1.1546080112457275;-7.433125019073486;1.399999976158142;-6.015625
1075;0.0;0.0;0.0;0.006831999868154526;-0.05172799900174141;1.146799921989441;0.0;0.0;0.0
1077;0.0;0.0;0.0;-0.0009759999811649323;-0.04001599922776222;1.1136159896850586;0.0;0.0;0.0
1079;0.0;0.0;0.0;0.010735999792814255;-0.05563199892640114;1.150704026222229;0.0;0.0;0.0
1081;-0.11882799863815308;0.09564799815416336;1.014307975769043;0.010735999792814255;-0.032207999378442764;1.1175199747085571;-11.423125267028809;-2.5199999809265137;-5.735625267028809
1084;0.0;0.0;0.0;0.0029279999434947968;-0.03611199930310249;1.1302080154418945;0.0;0.0;0.0
1086;0.0;0.0;0.0;-0.0009759999811649323;-0.08295999467372894;1.101904034614563;0.0;0.0;0.0
1088;0.0;0.0;0.0;0.006831999868154526;-0.05563199892640114;1.1136159896850586;0.0;0.0;0.0
1090;-0.11297199875116348;0.06709999591112137;0.9918599724769592;0.014639999717473984;-0.0634399950504303;1.10971200466156;-13.593124389648438;-7.070000171661377;-5.665625095367432
1092;0.0;0.0;0.0;0.04196799919009209;-0.10247999429702759;1.101904034614563;0.0;0.0;0.0
1094;0.0;0.0;0.0;0.0302559994161129;-0.11419199407100677;1.0814080238342285;0.0;0.0;0.0
1096;0.0;0.0;0.0;0.014639999717473984;-0.08686399459838867;1.0931199789047241;0.0;0.0;0.0
1098;-0.09857599437236786;0.03513599932193756;0.9677039980888367;0.04196799919009209;-0.11419199407100677;1.0648159980773926;-12.683124542236328;-10.989999771118164;-4.54562520980835
1101;0.0;0.0;0.0;0.03415999934077263;-0.08686399459838867;1.073599934577942;0.0;0.0;0.0
1103;0.0;0.0;0.0;0.014639999717473984;-0.12590399384498596;1.060912013053894;0.0;0.0;0.0
1105;0.0;0.0;0.0;0.006831999868154526;-0.11028799414634705;1.085312008857727;0.0;0.0;0.0
1107;-0.08637599647045135;0.0226919986307621;0.945743978023529;0.06148799881339073;-0.12590399384498596;1.0482239723205566;-9.813124656677246;-13.789999961853027;-3.9856250286102295
1109;0.0;0.0;0.0;0.08100800216197968;-0.12590399384498596;1.0531039237976074;0.0;0.0;0.0
1111;0.0;0.0;0.0;0.06929600238800049;-0.13371199369430542;1.0404160022735596;0.0;0.0;0.0
1113;0.0;0.0;0.0;0.08100800216197968;-0.1180959939956665;1.044319987297058;0.0;0.0;0.0
1115;-0.049531999975442886;0.014639999717473984;0.9220759868621826;0.06148799881339073;-0.11419199407100677;1.0287039279937744;-7.153124809265137;-13.510000228881836;-3.705625057220459
1118;0.0;0.0;0.0;0.10052800178527832;-0.10638399422168732;1.044319987297058;0.0;0.0;0.0
1120;0.0;0.0;0.0;0.08881600201129913;-0.11419199407100677;1.0404160022735596;0.0;0.0;0.0
1122;0.0;0.0;0.0;0.10735999792814255;-0.12199999392032623;1.060912013053894;0.0;0.0;0.0
1124;-0.022447999566793442;0.020495999604463577;0.9140239953994751;0.0849120020866394;-0.08295999467372894;1.0326080322265625;-5.33312463760376;-10.149999618530273;-3.2856249809265137
1126;0.0;0.0;0.0;0.10735999792814255;-0.07515199482440948;1.0531039237976074;0.0;0.0;0.0
1128;0.0;0.0;0.0;0.10735999792814255;-0.07515199482440948;1.0687199831008911;0.0;0.0;0.0
1130;0.0;0.0;0.0;0.10345599800348282;-0.09467199444770813;1.073599934577942;0.0;0.0;0.0
1132;-0.019276000559329987;0.04806799814105034;0.9340319633483887;0.115167997777462;-0.08686399459838867;1.0648159980773926;-4.283124923706055;-6.369999885559082;-3.2856249809265137
1135;0.0;0.0;0.0;0.11126399785280228;-0.1180959939956665;1.085312008857727;0.0;0.0;0.0
1137;0.0;0.0;0.0;0.10345599800348282;-0.10638399422168732;1.0648159980773926;0.0;0.0;0.0
1139;0.0;0.0;0.0;0.08881600201129913;-0.10247999429702759;1.060912013053894;0.0;0.0;0.0
1141;-0.01439599972218275;0.040991999208927155;0.9420839548110962;0.09272000193595886;-0.10247999429702759;1.0687199831008911;-3.513124942779541;-5.389999866485596;-2.3756251335144043
1143;0.0;0.0;0.0;0.08881600201129913;-0.08295999467372894;1.0687199831008911;0.0;0.0;0.0
1145;0.0;0.0;0.0;0.0849120020866394;-0.07124799489974976;1.0814080238342285;0.0;0.0;0.0
1147;0.0;0.0;0.0;0.10833600163459778;-0.08295999467372894;1.0931199789047241;0.0;0.0;0.0
1149;-0.02025200054049492;0.047335997223854065;0.9586759805679321;0.115167997777462;-0.08295999467372894;1.101904034614563;-2.953125;-4.130000114440918;-2.025624990463257
1152;0.0;0.0;0.0;0.09272000193595886;-0.08686399459838867;1.1067839860916138;0.0;0.0;0.0
1154;0.0;0.0;0.0;0.10052800178527832;-0.08295999467372894;1.101904034614563;0.0;0.0;0.0
1156;0.0;0.0;0.0;0.09662400186061859;-0.07905599474906921;1.101904034614563;0.0;0.0;0.0
1158;-0.028060000389814377;0.04684799909591675;0.9818559885025024;0.07710400223731995;-0.08686399459838867;1.1302080154418945;-3.093125104904175;-3.430000066757202;-1.8856250047683716
1160;0.0;0.0;0.0;0.09272000193595886;-0.09467199444770813;1.1145919561386108;0.0;0.0;0.0
1162;0.0;0.0;0.0;0.07710400223731995;-0.08295999467372894;1.1428959369659424;0.0;0.0;0.0
1164;0.0;0.0;0.0;0.08100800216197968;-0.08686399459838867;1.1350879669189453;0.0;0.0;0.0
1167;-0.03562399744987488;0.044895999133586884;0.994055986404419;0.0849120020866394;-0.0907679945230484;1.122399926185608;-3.443125009536743;-3.009999990463257;-1.955625057220459
1169;0.0;0.0;0.0;0.06539200246334076;-0.07905599474906921;1.1136159896850586;0.0;0.0;0.0
1171;0.0;0.0;0.0;0.06148799881339073;-0.09857599437236786;1.126304030418396;0.0;0.0;0.0
1173;0.0;0.0;0.0;0.08881600201129913;-0.07515199482440948;1.1302080154418945;0.0;0.0;0.0
1175;-0.03611199930310249;0.039772000163793564;0.9925919771194458;0.10443200170993805;-0.12199999392032623;1.1136159896850586;-3.443125009536743;-1.6100000143051147;-1.6756250858306885
1177;0.0;0.0;0.0;0.08100800216197968;-0.08295999467372894;1.1380159854888916;0.0;0.0;0.0
1179;0.0;0.0;0.0;0.09662400186061859;-0.11028799414634705;1.1184959411621094;0.0;0.0;0.0
1181;0.0;0.0;0.0;0.08393599838018417;-0.08295999467372894;1.134112000465393;0.0;0.0;0.0
1183;-0.04684799909591675;0.04001599922776222;0.9964959621429443;0.06929600238800049;-0.09857599437236786;1.1419199705123901;-3.093125104904175;0.21000000834465027;-1.3256250619888306
1186;0.0;0.0;0.0;0.04196799919009209;-0.11028799414634705;1.1389919519424438;0.0;0.0;0.0
1188;0.0;0.0;0.0;0.06539200246334076;-0.10638399422168732;1.1311839818954468;0.0;0.0;0.0
1190;0.0;0.0;0.0;0.057583998888731;-0.09467199444770813;1.097999930381775;0.0;0.0;0.0
1192;-0.06612399965524673;0.037087999284267426;0.9930799603462219;0.04196799919009209;-0.10638399422168732;1.1106879711151123;-2.393125057220459;0.5600000023841858;-1.3956249952316284
1194;0.0;0.0;0.0;0.022447999566793442;-0.10247999429702759;1.101904034614563;0.0;0.0;0.0
1196;0.0;0.0;0.0;0.0302559994161129;-0.11419199407100677;1.097999930381775;0.0;0.0;0.0
1198;0.0;0.0;0.0;0.03806399926543236;-0.09857599437236786;1.097999930381775;0.0;0.0;0.0
1200;-0.08051999658346176;0.02757199853658676;0.9833199977874756;0.0302559994161129;-0.10247999429702759;1.097999930381775;-0.22312499582767487;-0.49000000953674316;-1.1856250762939453
1203;0.0;0.0;0.0;0.022447999566793442;-0.09857599437236786;1.1272799968719482;0.0;0.0;0.0
1205;0.0;0.0;0.0;0.03806399926543236;-0.10247999429702759;1.1184959411621094;0.0;0.0;0.0
1207;0.0;0.0;0.0;0.04196799919009209;-0.09857599437236786;1.1389919519424438;0.0;0.0;0.0
1209;-0.08808399736881256;0.028547998517751694;0.9933239817619324;0.02635199949145317;-0.0907679945230484;1.1389919519424438;2.226875066757202;-2.1700000762939453;-0.9756250381469727
1211;0.0;0.0;0.0;0.014639999717473984;-0.0907679945230484;1.122399926185608;0.0;0.0;0.0
1213;0.0;0.0;0.0;-0.0009759999811649323;-0.10638399422168732;1.1633919477462769;0.0;0.0;0.0
1215;0.0;0.0;0.0;0.010735999792814255;-0.09467199444770813;1.1555839776992798;0.0;0.0;0.0
1217;-0.10394399613142014;0.0331839993596077;1.0177240371704102;-0.004879999905824661;-0.09857599437236786;1.1516799926757812;3.0668749809265137;-2.799999952316284;-1.2556250095367432
1220;0.0;0.0;0.0;0.018543999642133713;-0.10247999429702759;1.1633919477462769;0.0;0.0;0.0
1222;0.0;0.0;0.0;0.006831999868154526;-0.09467199444770813;1.1633919477462769;0.0;0.0;0.0
1224;0.0;0.0;0.0;-0.0009759999811649323;-0.07515199482440948;1.1838879585266113;0.0;0.0;0.0
1226;-0.12224400043487549;0.05441199988126755;1.038707971572876;0.010735999792814255;-0.07124799489974976;1.1555839776992798;2.296875;-3.5;-2.2356250286102295
1228;0.0;0.0;0.0;0.02635199949145317;-0.07515199482440948;1.1877919435501099;0.0;0.0;0.0
1230;0.0;0.0;0.0;0.018543999642133713;-0.07124799489974976;1.1877919435501099;0.0;0.0;0.0
1232;0.0;0.0;0.0;0.02635199949145317;-0.08686399459838867;1.1838879585266113;0.0;0.0;0.0
1234;-0.1117519959807396;0.06539200246334076;1.0545679330825806;0.03415999934077263;-0.0907679945230484;1.1916959285736084;0.33687499165534973;-5.949999809265137;-3.4956250190734863
1237;0.0;0.0;0.0;0.014639999717473984;-0.04782399907708168;1.1799839735031128;0.0;0.0;0.0
1239;0.0;0.0;0.0;0.0302559994161129;-0.07905599474906921;1.1672959327697754;0.0;0.0;0.0
1241;0.0;0.0;0.0;0.049775999039411545;-0.11028799414634705;1.1555839776992798;0.0;0.0;0.0
1243;-0.08881600201129913;0.058559998869895935;1.0452959537506104;0.053679998964071274;-0.07905599474906921;1.1428959369659424;-1.553125023841858;-8.75;-4.825624942779541
1245;0.0;0.0;0.0;0.049775999039411545;-0.0907679945230484;1.1594879627227783;0.0;0.0;0.0
1247;0.0;0.0;0.0;0.057583998888731;-0.10247999429702759;1.1389919519424438;0.0;0.0;0.0
1249;0.0;0.0;0.0;0.053679998964071274;-0.11419199407100677;1.122399926185608;0.0;0.0;0.0
1251;-0.0680759996175766;0.03806399926543236;1.0057679414749146;0.053679998964071274;-0.08295999467372894;1.1145919561386108;-1.7631250619888306;-10.989999771118164;-4.895625114440918
1254;0.0;0.0;0.0;0.06539200246334076;-0.0907679945230484;1.1067839860916138;0.0;0.0;0.0
1256;0.0;0.0;0.0;0.07320000231266022;-0.08686399459838867;1.1145919561386108;0.0;0.0;0.0
1258;0.0;0.0;0.0;0.057583998888731;-0.1180959939956665;1.0823839902877808;0.0;0.0;0.0
1260;-0.06148799881339073;0.026108000427484512;0.9723399877548218;0.07320000231266022;-0.1180959939956665;1.0862879753112793;0.6168749928474426;-12.8100004196167;-4.125625133514404
1262;0.0;0.0;0.0;0.06539200246334076;-0.08686399459838867;1.0940959453582764;0.0;0.0;0.0
1264;0.0;0.0;0.0;0.09564799815416336;-0.1180959939956665;1.0696959495544434;0.0;0.0;0.0
1266;0.0;0.0;0.0;0.07710400223731995;-0.10247999429702759;1.0823839902877808;0.0;0.0;0.0
1268;-0.04660400003194809;0.02635199949145317;0.9506239891052246;0.07710400223731995;-0.10638399422168732;1.0901919603347778;4.32687520980835;-13.369999885559082;-3.2856249809265137
1271;0.0;0.0;0.0;0.0849120020866394;-0.09467199444770813;1.0814080238342285;0.0;0.0;0.0
1273;0.0;0.0;0.0;0.07320000231266022;-0.1180959939956665;1.0687199831008911;0.0;0.0;0.0
1275;0.0;0.0;0.0;0.09662400186061859;-0.09467199444770813;1.0726239681243896;0.0;0.0;0.0
1277;-0.03001200035214424;0.0424560010433197;0.9501360058784485;0.08100800216197968;-0.0907679945230484;1.085312008857727;7.406875133514404;-10.640000343322754;-2.7956249713897705
1279;0.0;0.0;0.0;0.07320000231266022;-0.06734399497509003;1.0687199831008911;0.0;0.0;0.0
1281;0.0;0.0;0.0;0.08881600201129913;-0.028303999453783035;1.0970239639282227;0.0;0.0;0.0
1283;0.0;0.0;0.0;0.06929600238800049;-0.06734399497509003;1.101904034614563;0.0;0.0;0.0
1285;-0.03440399840474129;0.06612399965524673;0.9630680084228516;0.057583998888731;-0.05563199892640114;1.10971200466156;8.38687515258789;-5.880000114440918;-2.445625066757202
1288;0.0;0.0;0.0;0.0849120020866394;-0.032207999378442764;1.126304030418396;0.0;0.0;0.0
1290;0.0;0.0;0.0;0.07710400223731995;-0.05172799900174141;1.1428959369659424;0.0;0.0;0.0
1292;0.0;0.0;0.0;0.06148799881339073;-0.04391999915242195;1.1145919561386108;0.0;0.0;0.0
1294;-0.043431997299194336;0.09637999534606934;0.9855159521102905;0.06929600238800049;-0.01268799975514412;1.1272799968719482;7.126875400543213;-2.7300000190734863;-2.0956249237060547
1296;0.0;0.0;0.0;0.07320000231266022;0.0029279999434947968;1.1184959411621094;0.0;0.0;0.0
1298;0.0;0.0;0.0;0.0849120020866394;-0.004879999905824661;1.1272799968719482;0.0;0.0;0.0
1300;0.0;0.0;0.0;0.08100800216197968;0.0029279999434947968;1.122399926185608;0.0;0.0;0.0
1303;-0.04391999915242195;0.11687599867582321;0.9964959621429443;0.08881600201129913;-0.00878399983048439;1.1184959411621094;4.536875247955322;-3.2200000286102295;-1.3956249952316284
1305;0.0;0.0;0.0;0.08881600201129913;-0.024399999529123306;1.10971200466156;0.0;0.0;0.0
1307;0.0;0.0;0.0;0.10833600163459778;-0.032207999378442764;1.1136159896850586;0.0;0.0;0.0
1309;0.0;0.0;0.0;0.11224000155925751;-0.04782399907708168;1.1302080154418945;0.0;0.0;0.0
1311;-0.028060000389814377;0.10589599609375;0.9906399846076965;0.08100800216197968;-0.028303999453783035;1.10971200466156;2.0168750286102295;-4.269999980926514;0.0043750000186264515
1313;0.0;0.0;0.0;0.11907199770212173;-0.04391999915242195;1.1175199747085571;0.0;0.0;0.0
1315;0.0;0.0;0.0;0.10345599800348282;-0.0634399950504303;1.101904034614563;0.0;0.0;0.0
1317;0.0;0.0;0.0;0.03415999934077263;-0.032207999378442764;1.1136159896850586;0.0;0.0;0.0
1320;-0.04440800100564957;0.08979199826717377;0.9838079810142517;0.06539200246334076;-0.06734399497509003;1.126304030418396;-0.22312499582767487;-1.8899999856948853;-0.13562500476837158
1322;0.0;0.0;0.0;0.09662400186061859;-0.07124799489974976;1.1175199747085571;0.0;0.0;0.0
1324;0.0;0.0;0.0;0.06539200246334076;-0.07905599474906921;1.1136159896850586;0.0;0.0;0.0
1326;0.0;0.0;0.0;0.08100800216197968;-0.0634399950504303;1.0892159938812256;0.0;0.0;0.0
1328;-0.050995998084545135;0.0697840005159378;0.9806360006332397;0.09662400186061859;-0.08295999467372894;1.101904034614563;-2.7431249618530273;-0.699999988079071;-2.0956249237060547
1330;0.0;0.0;0.0;0.08100800216197968;-0.11028799414634705;1.10971200466156;0.0;0.0;0.0
1332;0.0;0.0;0.0;0.10735999792814255;-0.10638399422168732;1.0814080238342285;0.0;0.0;0.0
1334;0.0;0.0;0.0;0.1268799901008606;-0.09857599437236786;1.0892159938812256;0.0;0.0;0.0
1337;-0.024643998593091965;0.039772000163793564;0.9518439769744873;0.11126399785280228;-0.11419199407100677;1.0814080238342285;-5.263124942779541;-0.42000001668930054;-2.3056249618530273
1339;0.0;0.0;0.0;0.1268799901008606;-0.14151999354362488;1.060912013053894;0.0;0.0;0.0
1341;0.0;0.0;0.0;0.09662400186061859;-0.1298079937696457;1.0404160022735596;0.0;0.0;0.0
1343;0.0;0.0;0.0;0.13468798995018005;-0.14151999354362488;1.044319987297058;0.0;0.0;0.0
1345;-0.00951599981635809;0.01268799975514412;0.9315919876098633;0.09955199807882309;-0.13761599361896515;1.073599934577942;-5.683125019073486;4.409999847412109;-3.2856249809265137
1347;0.0;0.0;0.0;0.10735999792814255;-0.13371199369430542;1.0531039237976074;0.0;0.0;0.0
1349;0.0;0.0;0.0;0.10443200170993805;-0.16103999316692352;1.0570080280303955;0.0;0.0;0.0
1351;0.0;0.0;0.0;0.09662400186061859;-0.1571359932422638;1.0687199831008911;0.0;0.0;0.0
1354;-0.02659599855542183;-0.015859998762607574;0.9352520108222961;0.06929600238800049;-0.1571359932422638;1.0648159980773926;-4.003124713897705;10.220000267028809;-4.895625114440918
1356;0.0;0.0;0.0;0.03415999934077263;-0.1298079937696457;1.0687199831008911;0.0;0.0;0.0
1358;0.0;0.0;0.0;0.08100800216197968;-0.1727519929409027;1.0687199831008911;0.0;0.0;0.0
1360;0.0;0.0;0.0;0.049775999039411545;-0.14932799339294434;1.0775039196014404;0.0;0.0;0.0
1362;-0.06197600066661835;-0.023423999547958374;0.9464759826660156;0.045871999114751816;-0.14932799339294434;1.085312008857727;-2.1131250858306885;14.420000076293945;-6.785624980926514
1364;0.0;0.0;0.0;0.053679998964071274;-0.1571359932422638;1.0775039196014404;0.0;0.0;0.0
1366;0.0;0.0;0.0;0.049775999039411545;-0.1571359932422638;1.085312008857727;0.0;0.0;0.0
1368;0.0;0.0;0.0;0.014639999717473984;-0.15323199331760406;1.101904034614563;0.0;0.0;0.0
1371;-0.09589199721813202;-0.024156000465154648;0.961359977722168;0.0029279999434947968;-0.14932799339294434;1.1136159896850586;-0.7831250429153442;15.539999961853027;-8.67562484741211
1373;0.0;0.0;0.0;-0.0009759999811649323;-0.1180959939956665;1.101904034614563;0.0;0.0;0.0
1375;0.0;0.0;0.0;-0.004879999905824661;-0.10247999429702759;1.1145919561386108;0.0;0.0;0.0
1377;0.0;0.0;0.0;-0.01659199967980385;-0.14932799339294434;1.1028800010681152;0.0;0.0;0.0
1379;-0.1256600022315979;-0.0026839999482035637;0.9869799613952637;-0.01659199967980385;-0.10638399422168732;1.0940959453582764;-0.15312500298023224;14.069999694824219;-11.685624122619629
1381;0.0;0.0;0.0;0.022447999566793442;-0.09857599437236786;1.1428959369659424;0.0;0.0;0.0
1383;0.0;0.0;0.0;-0.0009759999811649323;-0.0907679945230484;1.1477760076522827;0.0;0.0;0.0
1385;0.0;0.0;0.0;-0.01659199967980385;-0.10638399422168732;1.1428959369659424;0.0;0.0;0.0
1388;-0.12809999287128448;0.02903600037097931;1.0055240392684937;-0.01659199967980385;-0.07905599474906921;1.1350879669189453;-0.3631250262260437;9.3100004196167;-14.625624656677246
1390;0.0;0.0;0.0;0.03415999934077263;-0.06734399497509003;1.1175199747085571;0.0;0.0;0.0
1392;0.0;0.0;0.0;0.006831999868154526;-0.07905599474906921;1.1428959369659424;0.0;0.0;0.0
1394;0.0;0.0;0.0;-0.00878399983048439;-0.05953599885106087;1.1175199747085571;0.0;0.0;0.0
1396;-0.10906799882650375;0.05782799795269966;1.0077199935913086;0.0302559994161129;-0.08295999467372894;1.1546080112457275;-1.4831249713897705;3.1500000953674316;-15.885624885559082
1398;0.0;0.0;0.0;0.014639999717473984;-0.04001599922776222;1.1175199747085571;0.0;0.0;0.0
1400;0.0;0.0;0.0;0.03806399926543236;-0.06734399497509003;1.1136159896850586;0.0;0.0;0.0
1402;0.0;0.0;0.0;0.022447999566793442;-0.07124799489974976;1.122399926185608;0.0;0.0;0.0
1405;-0.08857199549674988;0.07637199759483337;0.9896639585494995;0.045871999114751816;-0.04001599922776222;1.0892159938812256;-2.393125057220459;-3.1500000953674316;-15.465624809265137
1407;0.0;0.0;0.0;0.049775999039411545;-0.06734399497509003;1.073599934577942;0.0;0.0;0.0
1409;0.0;0.0;0.0;0.07710400223731995;-0.0634399950504303;1.097999930381775;0.0;0.0;0.0
1411;0.0;0.0;0.0;0.08881600201129913;-0.07905599474906921;1.0901919603347778;0.0;0.0;0.0
1413;-0.05148399993777275;0.07149200141429901;0.966484010219574;0.08100800216197968;-0.07124799489974976;1.097999930381775;-1.6231250762939453;-8.819999694824219;-13.855624198913574
1415;0.0;0.0;0.0;0.1268799901008606;-0.07905599474906921;1.073599934577942;0.0;0.0;0.0
1417;0.0;0.0;0.0;0.13078400492668152;-0.06734399497509003;1.0862879753112793;0.0;0.0;0.0
1419;0.0;0.0;0.0;0.11126399785280228;-0.08686399459838867;1.0618879795074463;0.0;0.0;0.0
1422;-0.0019519999623298645;0.06417199969291687;0.9630680084228516;0.1424959897994995;-0.07124799489974976;1.0823839902877808;-0.2931250035762787;-7.070000171661377;-12.52562427520752
1424;0.0;0.0;0.0;0.13468798995018005;-0.06734399497509003;1.101904034614563;0.0;0.0;0.0
1426;0.0;0.0;0.0;0.13859200477600098;-0.08295999467372894;1.10971200466156;0.0;0.0;0.0
1428;0.0;0.0;0.0;0.13078400492668152;-0.08295999467372894;1.0814080238342285;0.0;0.0;0.0
1430;0.003903999924659729;0.06075599789619446;0.9759999513626099;0.11907199770212173;-0.0907679945230484;1.1136159896850586;-0.08312499523162842;0.6299999952316284;-11.755624771118164
1432;0.0;0.0;0.0;0.07710400223731995;-0.07515199482440948;1.10971200466156;0.0;0.0;0.0
1434;0.0;0.0;0.0;0.09662400186061859;-0.07905599474906921;1.1136159896850586;0.0;0.0;0.0
1437;0.0;0.0;0.0;0.057583998888731;-0.07515199482440948;1.1302080154418945;0.0;0.0;0.0
1439;-0.03928399831056595;0.0605119988322258;0.9903959631919861;0.022447999566793442;-0.09467199444770813;1.122399926185608;-0.43312501907348633;6.650000095367432;-10.495624542236328
1441;0.0;0.0;0.0;0.04196799919009209;-0.07124799489974976;1.1067839860916138;0.0;0.0;0.0
1443;0.0;0.0;0.0;0.03806399926543236;-0.06734399497509003;1.1311839818954468;0.0;0.0;0.0
1445;0.0;0.0;0.0;0.022447999566793442;-0.07515199482440948;1.1311839818954468;0.0;0.0;0.0
1447;-0.08661999553442001;0.05953599885106087;1.0011320114135742;0.022447999566793442;-0.10247999429702759;1.1350879669189453;0.05687500163912773;6.860000133514404;-9.795624732971191
1449;0.0;0.0;0.0;0.02635199949145317;-0.09857599437236786;1.1389919519424438;0.0;0.0;0.0
1451;0.0;0.0;0.0;0.02635199949145317;-0.08686399459838867;1.122399926185608;0.0;0.0;0.0
1453;0.0;0.0;0.0;0.02635199949145317;-0.10638399422168732;1.1311839818954468;0.0;0.0;0.0
1456;-0.09467199444770813;0.04782399907708168;1.002351999282837;0.049775999039411545;-0.11419199407100677;1.122399926185608;1.3168749809265137;4.340000152587891;-10.215624809265137
1458;0.0;0.0;0.0;0.04196799919009209;-0.08686399459838867;1.1145919561386108;0.0;0.0;0.0
1460;0.0;0.0;0.0;0.045871999114751816;-0.1298079937696457;1.1067839860916138;0.0;0.0;0.0
1462;0.0;0.0;0.0;0.045871999114751816;-0.09467199444770813;1.1184959411621094;0.0;0.0;0.0
1464;-0.06856399774551392;0.03611199930310249;0.9947879910469055;0.06539200246334076;-0.09467199444770813;1.1145919561386108;2.996875047683716;3.569999933242798;-10.985624313354492
1466;0.0;0.0;0.0;0.06148799881339073;-0.09857599437236786;1.1067839860916138;0.0;0.0;0.0
1468;0.0;0.0;0.0;0.053679998964071274;-0.09467199444770813;1.097999930381775;0.0;0.0;0.0
1470;0.0;0.0;0.0;0.06148799881339073;-0.09467199444770813;1.1145919561386108;0.0;0.0;0.0
1473;-0.05563199892640114;0.044652000069618225;0.994055986404419;0.06148799881339073;-0.07905599474906921;1.126304030418396;4.186875343322754;5.740000247955322;-11.405624389648438
1475;0.0;0.0;0.0;0.06148799881339073;-0.07515199482440948;1.1106879711151123;0.0;0.0;0.0
1477;0.0;0.0;0.0;0.06148799881339073;-0.08295999467372894;1.1428959369659424;0.0;0.0;0.0
1479;0.0;0.0;0.0;0.053679998964071274;-0.0907679945230484;1.150704026222229;0.0;0.0;0.0
1481;-0.06441599875688553;0.06173199787735939;1.0082080364227295;0.06539200246334076;-0.04782399907708168;1.1272799968719482;4.956875324249268;7.980000019073486;-11.61562442779541
1483;0.0;0.0;0.0;0.018543999642133713;-0.05563199892640114;1.1594879627227783;0.0;0.0;0.0
1485;0.0;0.0;0.0;0.0302559994161129;-0.0634399950504303;1.1516799926757812;0.0;0.0;0.0
1488;0.0;0.0;0.0;0.04196799919009209;-0.05172799900174141;1.1799839735031128;0.0;0.0;0.0
1490;-0.08906000107526779;0.08344800025224686;1.0328519344329834;0.006831999868154526;-0.028303999453783035;1.1633919477462769;4.396875381469727;8.470000267028809;-11.335624694824219
1492;0.0;0.0;0.0;0.0302559994161129;-0.0634399950504303;1.1712000370025635;0.0;0.0;0.0
1494;0.0;0.0;0.0;0.006831999868154526;-0.004879999905824661;1.175104022026062;0.0;0.0;0.0
1496;0.0;0.0;0.0;0.010735999792814255;-0.04001599922776222;1.1663199663162231;0.0;0.0;0.0
1498;-0.11443600058555603;0.1041879951953888;1.0509079694747925;-0.01268799975514412;0.0029279999434947968;1.1663199663162231;2.5068750381469727;6.510000228881836;-11.195624351501465
1500;0.0;0.0;0.0;-0.01268799975514412;-0.04001599922776222;1.175104022026062;0.0;0.0;0.0
1502;0.0;0.0;0.0;-0.004879999905824661;-0.03611199930310249;1.199504017829895;0.0;0.0;0.0
1505;0.0;0.0;0.0;-0.024399999529123306;-0.020495999604463577;1.1546080112457275;0.0;0.0;0.0
1507;-0.12614800035953522;0.11272799968719482;1.0377320051193237;-0.01659199967980385;-0.020495999604463577;1.1712000370025635;0.33687499165534973;2.0299999713897705;-11.055624961853027
1509;0.0;0.0;0.0;-0.01268799975514412;-0.020495999604463577;1.134112000465393;0.0;0.0;0.0
1511;0.0;0.0;0.0;0.02635199949145317;-0.024399999529123306;1.134112000465393;0.0;0.0;0.0
1513;0.0;0.0;0.0;0.014639999717473984;-0.06734399497509003;1.10971200466156;0.0;0.0;0.0
1515;-0.11443600058555603;0.10687199980020523;1.009671926498413;0.053679998964071274;-0.020495999604463577;1.1380159854888916;-0.5731250047683716;-3.990000009536743;-9.795624732971191
1517;0.0;0.0;0.0;0.02635199949145317;-0.05172799900174141;1.1136159896850586;0.0;0.0;0.0
1519;0.0;0.0;0.0;0.053679998964071274;-0.05563199892640114;1.10971200466156;0.0;0.0;0.0
1521;0.0;0.0;0.0;0.04196799919009209;-0.04782399907708168;1.101904034614563;0.0;0.0;0.0
1524;-0.08271599560976028;0.0849120020866394;0.9821000099182129;0.06148799881339073;-0.03611199930310249;1.0892159938812256;0.546875;-8.75;-7.905624866485596
1526;0.0;0.0;0.0;0.049775999039411545;-0.07124799489974976;1.1058080196380615;0.0;0.0;0.0
1528;0.0;0.0;0.0;0.057583998888731;-0.07515199482440948;1.10971200466156;0.0;0.0;0.0
1530;0.0;0.0;0.0;0.06929600238800049;-0.08686399459838867;1.0931199789047241;0.0;0.0;0.0
1532;-0.049531999975442886;0.06148799881339073;0.965507984161377;0.07710400223731995;-0.07515199482440948;1.0814080238342285;2.226875066757202;-9.029999732971191;-6.785624980926514
1534;0.0;0.0;0.0;0.06148799881339073;-0.09857599437236786;1.0775039196014404;0.0;0.0;0.0
1536;0.0;0.0;0.0;0.053679998964071274;-0.08686399459838867;1.0775039196014404;0.0;0.0;0.0
1539;0.0;0.0;0.0;0.0849120020866394;-0.10247999429702759;1.0775039196014404;0.0;0.0;0.0
1541;-0.039772000163793564;0.044895999133586884;0.9574559926986694;0.08100800216197968;-0.09857599437236786;1.0814080238342285;3.6968750953674316;-5.389999866485596;-6.645625114440918
1543;0.0;0.0;0.0;0.08881600201129913;-0.09467199444770813;1.1058080196380615;0.0;0.0;0.0
1545;0.0;0.0;0.0;0.07710400223731995;-0.09857599437236786;1.0814080238342285;0.0;0.0;0.0
1547;0.0;0.0;0.0;0.06929600238800049;-0.10247999429702759;1.1058080196380615;0.0;0.0;0.0
1549;-0.048555999994277954;0.04562800005078316;0.9645319581031799;0.06929600238800049;-0.0634399950504303;1.0814080238342285;4.956875324249268;-1.4700000286102295;-6.785624980926514
1551;0.0;0.0;0.0;0.06539200246334076;-0.07905599474906921;1.0931199789047241;0.0;0.0;0.0
1553;0.0;0.0;0.0;0.057583998888731;-0.06734399497509003;1.101904034614563;0.0;0.0;0.0
1556;0.0;0.0;0.0;0.06929600238800049;-0.05563199892640114;1.0931199789047241;0.0;0.0;0.0
1558;-0.06392800062894821;0.06319599598646164;0.9747799634933472;0.06148799881339073;-0.07124799489974976;1.10971200466156;5.726875305175781;-0.2800000011920929;-6.995625019073486
1560;0.0;0.0;0.0;0.053679998964071274;-0.07124799489974976;1.1058080196380615;0.0;0.0;0.0
1562;0.0;0.0;0.0;0.0302559994161129;-0.08686399459838867;1.10971200466156;0.0;0.0;0.0
1564;0.0;0.0;0.0;0.049775999039411545;-0.03611199930310249;1.1058080196380615;0.0;0.0;0.0
1566;-0.07612799853086472;0.07710400223731995;0.981611967086792;0.014639999717473984;-0.04391999915242195;1.1058080196380615;6.286875247955322;-1.190000057220459;-6.995625019073486
1568;0.0;0.0;0.0;0.053679998964071274;-0.07124799489974976;1.1058080196380615;0.0;0.0;0.0
1570;0.0;0.0;0.0;0.0302559994161129;-0.05172799900174141;1.0892159938812256;0.0;0.0;0.0
1573;0.0;0.0;0.0;0.022447999566793442;-0.028303999453783035;1.085312008857727;0.0;0.0;0.0
1575;-0.07832399755716324;0.08954799920320511;0.9781959652900696;0.03806399926543236;-0.032207999378442764;1.0931199789047241;6.496875286102295;-2.5199999809265137;-6.785624980926514
1577;0.0;0.0;0.0;0.053679998964071274;-0.04782399907708168;1.0814080238342285;0.0;0.0;0.0
1579;0.0;0.0;0.0;0.053679998964071274;-0.01268799975514412;1.0970239639282227;0.0;0.0;0.0
1581;0.0;0.0;0.0;0.06148799881339073;-0.00878399983048439;1.0892159938812256;0.0;0.0;0.0
1583;-0.07344400137662888;0.1029679998755455;0.9691680073738098;0.06539200246334076;-0.05953599885106087;1.10971200466156;6.07687520980835;-3.1500000953674316;-6.575624942779541
1585;0.0;0.0;0.0;0.06929600238800049;-0.03611199930310249;1.0931199789047241;0.0;0.0;0.0
1587;0.0;0.0;0.0;0.053679998964071274;0.0029279999434947968;1.126304030418396;0.0;0.0;0.0
1590;0.0;0.0;0.0;0.07710400223731995;-0.020495999604463577;1.0931199789047241;0.0;0.0;0.0
1592;-0.06295199692249298;0.10833600163459778;0.9640439748764038;0.06539200246334076;-0.01659199967980385;1.0892159938812256;4.816875457763672;-3.640000104904175;-6.085625171661377
1594;0.0;0.0;0.0;0.06148799881339073;-0.020495999604463577;1.0931199789047241;0.0;0.0;0.0
1596;0.0;0.0;0.0;0.08100800216197968;-0.01268799975514412;1.060912013053894;0.0;0.0;0.0
1598;0.0;0.0;0.0;0.057583998888731;-0.01659199967980385;1.0892159938812256;0.0;0.0;0.0
1600;-0.05807200074195862;0.11224000155925751;0.95306396484375;0.053679998964071274;-0.00878399983048439;1.0970239639282227;3.0668749809265137;-2.799999952316284;-4.895625114440918
1602;0.0;0.0;0.0;0.057583998888731;-0.01268799975514412;1.085312008857727;0.0;0.0;0.0
1604;0.0;0.0;0.0;0.06929600238800049;0.0029279999434947968;1.0726239681243896;0.0;0.0;0.0
1607;0.0;0.0;0.0;0.06539200246334076;-0.004879999905824661;1.0931199789047241;0.0;0.0;0.0
1609;-0.0605119988322258;0.12443999946117401;0.9528200030326843;0.08100800216197968;0.0029279999434947968;1.073599934577942;1.3168749809265137;-2.5899999141693115;-2.7956249713897705
1611;0.0;0.0;0.0;0.057583998888731;-0.020495999604463577;1.0931199789047241;0.0;0.0;0.0
1613;0.0;0.0;0.0;0.057583998888731;-0.028303999453783035;1.0775039196014404;0.0;0.0;0.0
1615;0.0;0.0;0.0;0.06929600238800049;-0.01268799975514412;1.0726239681243896;0.0;0.0;0.0
1617;-0.05514399707317352;0.11614400148391724;0.957211971282959;0.057583998888731;-0.05953599885106087;1.0931199789047241;0.6168749928474426;-3.0799999237060547;-0.6256250143051147
1619;0.0;0.0;0.0;0.057583998888731;-0.03611199930310249;1.073599934577942;0.0;0.0;0.0
1621;0.0;0.0;0.0;0.08100800216197968;-0.04001599922776222;1.085312008857727;0.0;0.0;0.0
1624;0.0;0.0;0.0;0.08881600201129913;-0.04001599922776222;1.097999930381775;0.0;0.0;0.0
1626;-0.040991999208927155;0.09223199635744095;0.9669719934463501;0.0849120020866394;-0.05172799900174141;1.0931199789047241;0.8268749713897705;-2.6600000858306885;1.2643749713897705
1628;0.0;0.0;0.0;0.06539200246334076;-0.07124799489974976;1.0931199789047241;0.0;0.0;0.0
1630;0.0;0.0;0.0;0.053679998964071274;-0.05172799900174141;1.101904034614563;0.0;0.0;0.0
1632;0.0;0.0;0.0;0.045871999114751816;-0.06734399497509003;1.122399926185608;0.0;0.0;0.0
1634;-0.0500199981033802;0.07051599770784378;0.9759999513626099;0.07320000231266022;-0.0907679945230484;1.097999930381775;1.5968749523162842;-1.5399999618530273;3.0143749713897705
1637;0.0;0.0;0.0;0.06148799881339073;-0.06734399497509003;1.097999930381775;0.0;0.0;0.0
1638;0.0;0.0;0.0;0.049775999039411545;-0.0907679945230484;1.1175199747085571;0.0;0.0;0.0
1641;0.0;0.0;0.0;0.049775999039411545;-0.09857599437236786;1.097999930381775;0.0;0.0;0.0
1643;-0.062219999730587006;0.04513999819755554;0.9745360016822815;0.06539200246334076;-0.12199999392032623;1.0931199789047241;2.7168750762939453;-1.8899999856948853;3.434375047683716
1645;0.0;0.0;0.0;0.07320000231266022;-0.09857599437236786;1.0892159938812256;0.0;0.0;0.0
1647;0.0;0.0;0.0;0.06148799881339073;-0.09857599437236786;1.0726239681243896;0.0;0.0;0.0
1649;0.0;0.0;0.0;0.053679998964071274;-0.10638399422168732;1.101904034614563;0.0;0.0;0.0
1651;-0.05660799890756607;0.021959999576210976;0.9601399898529053;0.06148799881339073;-0.10247999429702759;1.085312008857727;3.976875066757202;-2.0299999713897705;2.3143749237060547
1653;0.0;0.0;0.0;0.06929600238800049;-0.10247999429702759;1.1058080196380615;0.0;0.0;0.0
1655;0.0;0.0;0.0;0.06929600238800049;-0.13761599361896515;1.0648159980773926;0.0;0.0;0.0
1658;0.0;0.0;0.0;0.07320000231266022;-0.12199999392032623;1.0892159938812256;0.0;0.0;0.0
1660;-0.051239997148513794;0.016103999689221382;0.9533079862594604;0.07710400223731995;-0.11028799414634705;1.0726239681243896;4.046875;-0.49000000953674316;1.0543749332427979
1662;0.0;0.0;0.0;0.06929600238800049;-0.11028799414634705;1.0648159980773926;0.0;0.0;0.0
1664;0.0;0.0;0.0;0.07320000231266022;-0.10247999429702759;1.073599934577942;0.0;0.0;0.0
1666;0.0;0.0;0.0;0.053679998964071274;-0.0907679945230484;1.0892159938812256;0.0;0.0;0.0
1668;-0.05953599885106087;0.030743999406695366;0.9537959694862366;0.049775999039411545;-0.08686399459838867;1.0775039196014404;3.346874952316284;1.5399999618530273;0.07437500357627869
1671;0.0;0.0;0.0;0.049775999039411545;-0.10247999429702759;1.097999930381775;0.0;0.0;0.0
1672;0.0;0.0;0.0;0.057583998888731;-0.09857599437236786;1.0892159938812256;0.0;0.0;0.0
1675;0.0;0.0;0.0;0.07320000231266022;-0.08295999467372894;1.0726239681243896;0.0;0.0;0.0
1677;-0.05538799986243248;0.04684799909591675;0.9606279730796814;0.06539200246334076;-0.0907679945230484;1.0814080238342285;2.926875114440918;2.870000123977661;-1.3956249952316284
1679;0.0;0.0;0.0;0.07320000231266022;-0.07515199482440948;1.1106879711151123;0.0;0.0;0.0
1681;0.0;0.0;0.0;0.10443200170993805;-0.09857599437236786;1.1145919561386108;0.0;0.0;0.0
1683;0.0;0.0;0.0;0.0849120020866394;-0.09467199444770813;1.1106879711151123;0.0;0.0;0.0
1685;-0.03562399744987488;0.052947998046875;0.9740479588508606;0.09955199807882309;-0.0634399950504303;1.101904034614563;2.856874942779541;2.6600000858306885;-1.4656250476837158
1688;0.0;0.0;0.0;0.11126399785280228;-0.08295999467372894;1.126304030418396;0.0;0.0;0.0
1689;0.0;0.0;0.0;0.10052800178527832;-0.08686399459838867;1.1184959411621094;0.0;0.0;0.0
1692;0.0;0.0;0.0;0.10833600163459778;-0.11419199407100677;1.1184959411621094;0.0;0.0;0.0
1694;-0.03245199844241142;0.04416399821639061;0.9923479557037354;0.09272000193595886;-0.07905599474906921;1.1106879711151123;3.2768750190734863;2.870000123977661;-0.2056250125169754
1696;0.0;0.0;0.0;0.08100800216197968;-0.11028799414634705;1.1389919519424438;0.0;0.0;0.0
1698;0.0;0.0;0.0;0.045871999114751816;-0.1180959939956665;1.1311839818954468;0.0;0.0;0.0
1700;0.0;0.0;0.0;0.06539200246334076;-0.10638399422168732;1.1311839818954468;0.0;0.0;0.0
1702;-0.048555999994277954;0.030743999406695366;1.0067440271377563;0.06148799881339073;-0.1180959939956665;1.146799921989441;3.416875123977661;4.829999923706055;-0.6256250143051147
1705;0.0;0.0;0.0;0.0849120020866394;-0.10247999429702759;1.1712000370025635;0.0;0.0;0.0
1707;0.0;0.0;0.0;0.053679998964071274;-0.08686399459838867;1.1389919519424438;0.0;0.0;0.0
1709;0.0;0.0;0.0;0.0302559994161129;-0.09857599437236786;1.1350879669189453;0.0;0.0;0.0
1711;-0.06929600238800049;0.028060000389814377;1.0155279636383057;0.04196799919009209;-0.11419199407100677;1.1516799926757812;2.856874942779541;5.25;-2.0956249237060547
1713;0.0;0.0;0.0;0.02635199949145317;-0.12590399384498596;1.1428959369659424;0.0;0.0;0.0
1715;0.0;0.0;0.0;0.049775999039411545;-0.0907679945230484;1.1428959369659424;0.0;0.0;0.0
1717;0.0;0.0;0.0;0.0302559994161129;-0.11028799414634705;1.1594879627227783;0.0;0.0;0.0
1719;-0.08076399564743042;0.031964000314474106;1.0099159479141235;0.053679998964071274;-0.1180959939956665;1.1389919519424438;1.3168749809265137;3.2200000286102295;-3.4956250190734863
1721;0.0;0.0;0.0;0.03806399926543236;-0.09467199444770813;1.126304030418396;0.0;0.0;0.0
1724;0.0;0.0;0.0;0.06929600238800049;-0.0907679945230484;1.1145919561386108;0.0;0.0;0.0
1726;0.0;0.0;0.0;0.06929600238800049;-0.11028799414634705;1.1272799968719482;0.0;0.0;0.0
1728;-0.07002799957990646;0.03928399831056595;0.9903959631919861;0.049775999039411545;-0.08295999467372894;1.0823839902877808;-0.2931250035762787;1.6100000143051147;-4.685625076293945
1730;0.0;0.0;0.0;0.0849120020866394;-0.08686399459838867;1.1175199747085571;0.0;0.0;0.0
1732;0.0;0.0;0.0;0.06148799881339073;-0.07905599474906921;1.101904034614563;0.0;0.0;0.0
1734;0.0;0.0;0.0;0.057583998888731;-0.07124799489974976;1.0726239681243896;0.0;0.0;0.0
1736;-0.052216000854969025;0.04440800100564957;0.9720959663391113;0.06148799881339073;-0.08686399459838867;1.0726239681243896;-0.6431249976158142;2.380000114440918;-5.175624847412109
1739;0.0;0.0;0.0;0.08100800216197968;-0.0634399950504303;1.1058080196380615;0.0;0.0;0.0
1741;0.0;0.0;0.0;0.07710400223731995;-0.07905599474906921;1.0970239639282227;0.0;0.0;0.0
1743;0.0;0.0;0.0;0.06148799881339073;-0.07905599474906921;1.10971200466156;0.0;0.0;0.0
1745;-0.04782399907708168;0.052947998046875;0.9794159531593323;0.06148799881339073;-0.05563199892640114;1.0931199789047241;0.546875;5.320000171661377;-4.825624942779541
1747;0.0;0.0;0.0;0.06539200246334076;-0.09857599437236786;1.1175199747085571;0.0;0.0;0.0
1749;0.0;0.0;0.0;0.049775999039411545;-0.07124799489974976;1.1380159854888916;0.0;0.0;0.0
1751;0.0;0.0;0.0;0.049775999039411545;-0.04391999915242195;1.1419199705123901;0.0;0.0;0.0
1753;-0.06783200055360794;0.06465999782085419;1.0011320114135742;0.057583998888731;-0.05563199892640114;1.126304030418396;2.226875066757202;7.840000152587891;-4.405624866485596
1756;0.0;0.0;0.0;0.0302559994161129;-0.05563199892640114;1.1175199747085571;0.0;0.0;0.0
1758;0.0;0.0;0.0;0.022447999566793442;-0.04391999915242195;1.1546080112457275;0.0;0.0;0.0
1760;0.0;0.0;0.0;0.04196799919009209;-0.05172799900174141;1.1380159854888916;0.0;0.0;0.0
1762;-0.08759599924087524;0.07515199482440948;1.024067997932434;0.014639999717473984;-0.06734399497509003;1.134112000465393;3.346874952316284;7.139999866485596;-4.055624961853027
1764;0.0;0.0;0.0;0.0302559994161129;-0.07515199482440948;1.1594879627227783;0.0;0.0;0.0
1766;0.0;0.0;0.0;0.045871999114751816;-0.05563199892640114;1.1428959369659424;0.0;0.0;0.0
1768;0.0;0.0;0.0;0.0302559994161129;-0.0634399950504303;1.1799839735031128;0.0;0.0;0.0
1770;-0.09759999811649323;0.07685999572277069;1.0379760265350342;0.010735999792814255;-0.07905599474906921;1.1672959327697754;2.786875009536743;4.760000228881836;-4.055624961853027
1773;0.0;0.0;0.0;0.04196799919009209;-0.05172799900174141;1.1682720184326172;0.0;0.0;0.0
1775;0.0;0.0;0.0;-0.0009759999811649323;-0.06734399497509003;1.1516799926757812;0.0;0.0;0.0
1777;0.0;0.0;0.0;0.03806399926543236;-0.06734399497509003;1.146799921989441;0.0;0.0;0.0
1779;-0.10247999429702759;0.0710039958357811;1.0257760286331177;0.03415999934077263;-0.05563199892640114;1.1350879669189453;1.386875033378601;2.5899999141693115;-4.825624942779541
1781;0.0;0.0;0.0;0.010735999792814255;-0.07124799489974976;1.150704026222229;0.0;0.0;0.0
1783;0.0;0.0;0.0;0.045871999114751816;-0.07515199482440948;1.1136159896850586;0.0;0.0;0.0
1785;0.0;0.0;0.0;0.018543999642133713;-0.10638399422168732;1.146799921989441;0.0;0.0;0.0
1787;-0.09027999639511108;0.06880799680948257;1.0057679414749146;0.04196799919009209;-0.0634399950504303;1.1058080196380615;-0.15312500298023224;0.9100000262260437;-5.805624961853027
1790;0.0;0.0;0.0;0.06929600238800049;-0.04391999915242195;1.126304030418396;0.0;0.0;0.0
1792;0.0;0.0;0.0;0.053679998964071274;-0.05563199892640114;1.122399926185608;0.0;0.0;0.0
1794;0.0;0.0;0.0;0.057583998888731;-0.07905599474906921;1.085312008857727;0.0;0.0;0.0
1796;-0.07051599770784378;0.0710039958357811;0.9850279688835144;0.053679998964071274;-0.07905599474906921;1.0892159938812256;-1.4131250381469727;-0.07000000029802322;-5.945624828338623
1798;0.0;0.0;0.0;0.049775999039411545;-0.06734399497509003;1.097999930381775;0.0;0.0;0.0
1800;0.0;0.0;0.0;0.06148799881339073;-0.0634399950504303;1.097999930381775;0.0;0.0;0.0
1802;0.0;0.0;0.0;0.07320000231266022;-0.05953599885106087;1.1145919561386108;0.0;0.0;0.0
1804;-0.060999996960163116;0.07075999677181244;0.9723399877548218;0.07320000231266022;-0.0634399950504303;1.0940959453582764;-1.203125;-0.21000000834465027;-4.965624809265137
1807;0.0;0.0;0.0;0.06929600238800049;-0.05172799900174141;1.1145919561386108;0.0;0.0;0.0
1809;0.0;0.0;0.0;0.06929600238800049;-0.04001599922776222;1.122399926185608;0.0;0.0;0.0
1811;0.0;0.0;0.0;0.06148799881339073;-0.05563199892640114;1.1106879711151123;0.0;0.0;0.0
1813;-0.05685199797153473;0.07490799576044083;0.9791719913482666;0.06929600238800049;-0.05172799900174141;1.1311839818954468;-0.43312501907348633;1.0499999523162842;-3.9156250953674316
1815;0.0;0.0;0.0;0.07320000231266022;-0.05563199892640114;1.1302080154418945;0.0;0.0;0.0
1817;0.0;0.0;0.0;0.04196799919009209;-0.06734399497509003;1.122399926185608;0.0;0.0;0.0
1819;0.0;0.0;0.0;0.03806399926543236;-0.08686399459838867;1.126304030418396;0.0;0.0;0.0
1821;-0.062463998794555664;0.07320000231266022;0.9930799603462219;0.053679998964071274;-0.08295999467372894;1.1380159854888916;-0.013124998658895493;3.640000104904175;-3.635625123977661
1824;0.0;0.0;0.0;0.06929600238800049;-0.05172799900174141;1.1302080154418945;0.0;0.0;0.0
1826;0.0;0.0;0.0;0.045871999114751816;-0.07515199482440948;1.134112000465393;0.0;0.0;0.0
1828;0.0;0.0;0.0;0.03415999934077263;-0.07905599474906921;1.1302080154418945;0.0;0.0;0.0
1830;-0.07002799957990646;0.0710039958357811;1.0008879899978638;0.04196799919009209;-0.05172799900174141;1.10971200466156;-0.2931250035762787;4.269999980926514;-3.9856250286102295
1832;0.0;0.0;0.0;0.049775999039411545;-0.05563199892640114;1.122399926185608;0.0;0.0;0.0
1834;0.0;0.0;0.0;0.049775999039411545;-0.05953599885106087;1.1145919561386108;0.0;0.0;0.0
1836;0.0;0.0;0.0;0.03806399926543236;-0.06734399497509003;1.1184959411621094;0.0;0.0;0.0
1838;-0.07490799576044083;0.07344400137662888;0.9918599724769592;0.053679998964071274;-0.07124799489974976;1.122399926185608;-0.8531250357627869;3.2899999618530273;-4.055624961853027
1841;0.0;0.0;0.0;0.018543999642133713;-0.0634399950504303;1.1067839860916138;0.0;0.0;0.0
1843;0.0;0.0;0.0;0.0302559994161129;-0.05172799900174141;1.1311839818954468;0.0;0.0;0.0
1845;0.0;0.0;0.0;0.03415999934077263;-0.04782399907708168;1.101904034614563;0.0;0.0;0.0
1847;-0.08515600115060806;0.07881199568510056;0.9806360006332397;0.04196799919009209;-0.0634399950504303;1.122399926185608;-0.43312501907348633;1.5399999618530273;-3.705625057220459
1849;0.0;0.0;0.0;0.0302559994161129;-0.04782399907708168;1.101904034614563;0.0;0.0;0.0
1851;0.0;0.0;0.0;0.0302559994161129;-0.0634399950504303;1.097999930381775;0.0;0.0;0.0
1853;0.0;0.0;0.0;0.03415999934077263;-0.04001599922776222;1.0901919603347778;0.0;0.0;0.0
1855;-0.07832399755716324;0.08710800111293793;0.9667279720306396;0.049775999039411545;-0.05563199892640114;1.0784800052642822;1.2468750476837158;-0.14000000059604645;-3.775624990463257
1858;0.0;0.0;0.0;0.08881600201129913;-0.024399999529123306;1.0862879753112793;0.0;0.0;0.0
1860;0.0;0.0;0.0;0.07710400223731995;-0.028303999453783035;1.0784800052642822;0.0;0.0;0.0
1862;0.0;0.0;0.0;0.06929600238800049;-0.04391999915242195;1.0862879753112793;0.0;0.0;0.0
1864;-0.05319199711084366;0.09735599905252457;0.9537959694862366;0.0849120020866394;-0.04001599922776222;1.0823839902877808;3.1368749141693115;-0.14000000059604645;-3.215625047683716
1866;0.0;0.0;0.0;0.045871999114751816;-0.028303999453783035;1.0892159938812256;0.0;0.0;0.0
1868;0.0;0.0;0.0;0.06539200246334076;-0.03611199930310249;1.073599934577942;0.0;0.0;0.0
1870;0.0;0.0;0.0;0.03806399926543236;-0.01659199967980385;1.0687199831008911;0.0;0.0;0.0
1872;-0.0453839972615242;0.10979999601840973;0.9601399898529053;0.06929600238800049;-0.0009759999811649323;1.0726239681243896;4.886875152587891;1.4700000286102295;-1.605625033378601
1875;0.0;0.0;0.0;0.07320000231266022;-0.00878399983048439;1.101904034614563;0.0;0.0;0.0
1877;0.0;0.0;0.0;0.06148799881339073;-0.024399999529123306;1.1380159854888916;0.0;0.0;0.0
1879;0.0;0.0;0.0;0.06539200246334076;-0.00878399983048439;1.1058080196380615;0.0;0.0;0.0
1881;-0.052216000854969025;0.11785199493169785;0.9821000099182129;0.057583998888731;-0.01268799975514412;1.1136159896850586;5.376875400543213;3.9200000762939453;-0.5556250214576721
1883;0.0;0.0;0.0;0.053679998964071274;-0.01268799975514412;1.0940959453582764;0.0;0.0;0.0
1885;0.0;0.0;0.0;0.06148799881339073;-0.004879999905824661;1.1350879669189453;0.0;0.0;0.0
1887;0.0;0.0;0.0;0.06148799881339073;-0.020495999604463577;1.1350879669189453;0.0;0.0;0.0
1889;-0.06465999782085419;0.115167997777462;0.9977160096168518;0.03415999934077263;-0.01659199967980385;1.1350879669189453;5.306875228881836;6.440000057220459;0.1443749964237213
1892;0.0;0.0;0.0;0.02635199949145317;-0.004879999905824661;1.122399926185608;0.0;0.0;0.0
1894;0.0;0.0;0.0;0.02635199949145317;-0.032207999378442764;1.1350879669189453;0.0;0.0;0.0
1896;0.0;0.0;0.0;0.022447999566793442;-0.020495999604463577;1.1721760034561157;0.0;0.0;0.0
1898;-0.08661999553442001;0.12297599762678146;1.0208959579467773;0.0302559994161129;-0.01268799975514412;1.1633919477462769;5.236875057220459;8.260000228881836;0.7043749690055847
1900;0.0;0.0;0.0;0.03415999934077263;0.006831999868154526;1.1555839776992798;0.0;0.0;0.0
1902;0.0;0.0;0.0;0.022447999566793442;0.010735999792814255;1.1721760034561157;0.0;0.0;0.0
1904;0.0;0.0;0.0;0.0029279999434947968;0.006831999868154526;1.1760799884796143;0.0;0.0;0.0
1906;-0.10369999706745148;0.13859200477600098;1.04066002368927;0.022447999566793442;0.014639999717473984;1.1916959285736084;4.606875419616699;7.490000247955322;1.1943750381469727
1909;0.0;0.0;0.0;0.010735999792814255;0.010735999792814255;1.1760799884796143;0.0;0.0;0.0
1911;0.0;0.0;0.0;-0.0009759999811649323;-0.01268799975514412;1.1633919477462769;0.0;0.0;0.0
1913;0.0;0.0;0.0;-0.004879999905824661;0.018543999642133713;1.1672959327697754;0.0;0.0;0.0
1915;-0.11370399594306946;0.14176400005817413;1.0401719808578491;0.0029279999434947968;0.014639999717473984;1.150704026222229;4.116875171661377;3.990000009536743;1.7543749809265137
1917;0.0;0.0;0.0;-0.004879999905824661;0.0029279999434947968;1.158511996269226;0.0;0.0;0.0
1919;0.0;0.0;0.0;0.022447999566793442;0.006831999868154526;1.1546080112457275;0.0;0.0;0.0
1921;0.0;0.0;0.0;0.0029279999434947968;0.018543999642133713;1.1380159854888916;0.0;0.0;0.0
1923;-0.11760799586772919;0.1332239955663681;1.0296800136566162;0.010735999792814255;0.006831999868154526;1.150704026222229;4.32687520980835;-0.9800000190734863;2.734375
1926;0.0;0.0;0.0;0.0302559994161129;-0.0009759999811649323;1.1302080154418945;0.0;0.0;0.0
1928;0.0;0.0;0.0;0.03806399926543236;-0.004879999905824661;1.1380159854888916;0.0;0.0;0.0
1930;0.0;0.0;0.0;0.022447999566793442;-0.024399999529123306;1.1428959369659424;0.0;0.0;0.0
1932;-0.10272400081157684;0.12248799949884415;1.0111359357833862;0.02635199949145317;0.0029279999434947968;1.146799921989441;4.116875171661377;-4.059999942779541;3.1543750762939453
1934;0.0;0.0;0.0;0.06148799881339073;-0.01268799975514412;1.1175199747085571;0.0;0.0;0.0
1936;0.0;0.0;0.0;0.03806399926543236;-0.01659199967980385;1.1175199747085571;0.0;0.0;0.0
1938;0.0;0.0;0.0;0.049775999039411545;-0.00878399983048439;1.1136159896850586;0.0;0.0;0.0
1940;-0.07637199759483337;0.11565599590539932;0.9996680021286011;0.057583998888731;-0.032207999378442764;1.1175199747085571;3.416875123977661;-3.569999933242798;3.294374942779541
1943;0.0;0.0;0.0;0.03415999934077263;-0.03611199930310249;1.1136159896850586;0.0;0.0;0.0
1945;0.0;0.0;0.0;0.057583998888731;-0.024399999529123306;1.1380159854888916;0.0;0.0;0.0
1947;0.0;0.0;0.0;0.06539200246334076;-0.032207999378442764;1.126304030418396;0.0;0.0;0.0
1949;-0.0634399950504303;0.11101999878883362;1.0003999471664429;0.07320000231266022;-0.032207999378442764;1.1175199747085571;2.0868749618530273;-1.2599999904632568;3.6443750858306885
1951;0.0;0.0;0.0;0.06148799881339073;-0.04001599922776222;1.1546080112457275;0.0;0.0;0.0
1953;0.0;0.0;0.0;0.09564799815416336;-0.028303999453783035;1.1380159854888916;0.0;0.0;0.0
1955;0.0;0.0;0.0;0.06539200246334076;-0.05953599885106087;1.1214239597320557;0.0;0.0;0.0
1957;-0.05904799699783325;0.09808799624443054;0.9967399835586548;0.06539200246334076;-0.05953599885106087;1.1175199747085571;0.546875;0.9800000190734863;3.854374885559082
1960;0.0;0.0;0.0;0.06929600238800049;-0.03611199930310249;1.1136159896850586;0.0;0.0;0.0
1962;0.0;0.0;0.0;0.049775999039411545;-0.05953599885106087;1.1175199747085571;0.0;0.0;0.0
1964;0.0;0.0;0.0;0.045871999114751816;-0.05563199892640114;1.101904034614563;0.0;0.0;0.0
1966;-0.0663679987192154;0.07978799939155579;0.9911279678344727;0.07710400223731995;-0.05953599885106087;1.10971200466156;-0.503125011920929;1.75;4.274374961853027
1968;0.0;0.0;0.0;0.02635199949145317;-0.05953599885106087;1.1184959411621094;0.0;0.0;0.0
1970;0.0;0.0;0.0;0.049775999039411545;-0.08295999467372894;1.1106879711151123;0.0;0.0;0.0
1972;0.0;0.0;0.0;0.049775999039411545;-0.08295999467372894;1.1145919561386108;0.0;0.0;0.0
1974;-0.07954400032758713;0.05563199892640114;0.9874680042266846;0.014639999717473984;-0.09467199444770813;1.1145919561386108;-0.503125011920929;1.190000057220459;4.484375
1977;0.0;0.0;0.0;0.04196799919009209;-0.08686399459838867;1.1184959411621094;0.0;0.0;0.0
1979;0.0;0.0;0.0;0.03806399926543236;-0.0907679945230484;1.1106879711151123;0.0;0.0;0.0
1981;0.0;0.0;0.0;0.03415999934077263;-0.10247999429702759;1.1311839818954468;0.0;0.0;0.0
1983;-0.08222799748182297;0.04196799919009209;0.9925919771194458;0.045871999114751816;-0.12199999392032623;1.122399926185608;-0.08312499523162842;1.3300000429153442;3.784374952316284
1985;0.0;0.0;0.0;0.022447999566793442;-0.0907679945230484;1.1058080196380615;0.0;0.0;0.0
1987;0.0;0.0;0.0;0.057583998888731;-0.0907679945230484;1.134112000465393;0.0;0.0;0.0
1989;0.0;0.0;0.0;0.04196799919009209;-0.0634399950504303;1.122399926185608;0.0;0.0;0.0
1991;-0.0727119967341423;0.038307998329401016;0.994055986404419;0.04196799919009209;-0.10638399422168732;1.1175199747085571;0.4768750071525574;1.6800000667572021;2.9443750381469727
1994;0.0;0.0;0.0;0.06929600238800049;-0.09467199444770813;1.1419199705123901;0.0;0.0;0.0
1996;0.0;0.0;0.0;0.045871999114751816;-0.07905599474906921;1.122399926185608;0.0;0.0;0.0
1998;0.0;0.0;0.0;0.045871999114751816;-0.07515199482440948;1.0931199789047241;0.0;0.0;0.0
2000;-0.0680759996175766;0.03684400022029877;0.9930799603462219;0.03806399926543236;-0.11028799414634705;1.1175199747085571;0.8968750238418579;2.309999942779541;2.3843750953674316
2002;0.0;0.0;0.0;0.049775999039411545;-0.10638399422168732;1.126304030418396;0.0;0.0;0.0
2004;0.0;0.0;0.0;0.053679998964071274;-0.11028799414634705;1.122399926185608;0.0;0.0;0.0
2006;0.0;0.0;0.0;0.04196799919009209;-0.07905599474906921;1.1302080154418945;0.0;0.0;0.0
2008;-0.07588399946689606;0.031964000314474106;0.9923479557037354;0.02635199949145317;-0.11419199407100677;1.134112000465393;1.5268750190734863;1.6800000667572021;1.6143749952316284
2011;0.0;0.0;0.0;0.006831999868154526;-0.08295999467372894;1.1214239597320557;0.0;0.0;0.0
2013;0.0;0.0;0.0;0.057583998888731;-0.07515199482440948;1.1058080196380615;0.0;0.0;0.0
2015;0.0;0.0;0.0;0.0302559994161129;-0.07905599474906921;1.101904034614563;0.0;0.0;0.0
2017;-0.07246799767017365;0.032207999378442764;0.981611967086792;0.053679998964071274;-0.09857599437236786;1.10971200466156;2.156874895095825;-1.0499999523162842;0.6343749761581421
2019;0.0;0.0;0.0;0.06148799881339073;-0.10247999429702759;1.0892159938812256;0.0;0.0;0.0
2021;0.0;0.0;0.0;0.04196799919009209;-0.0907679945230484;1.0931199789047241;0.0;0.0;0.0
2023;0.0;0.0;0.0;0.07320000231266022;-0.08295999467372894;1.0814080238342285;0.0;0.0;0.0
2025;-0.05831599980592728;0.0378200002014637;0.961359977722168;0.06929600238800049;-0.07124799489974976;1.0648159980773926;2.436875104904175;-2.450000047683716;0.21437500417232513
2028;0.0;0.0;0.0;0.053679998964071274;-0.09467199444770813;1.0687199831008911;0.0;0.0;0.0
2030;0.0;0.0;0.0;0.06539200246334076;-0.08686399459838867;1.0775039196014404;0.0;0.0;0.0
2032;0.0;0.0;0.0;0.09662400186061859;-0.08686399459838867;1.0687199831008911;0.0;0.0;0.0
2034;-0.04758000001311302;0.04879999905824661;0.9506239891052246;0.0849120020866394;-0.09467199444770813;1.0648159980773926;2.6468749046325684;-0.2800000011920929;0.07437500357627869
2036;0.0;0.0;0.0;0.06929600238800049;-0.07124799489974976;1.0775039196014404;0.0;0.0;0.0
2038;0.0;0.0;0.0;0.07320000231266022;-0.07905599474906921;1.0696959495544434;0.0;0.0;0.0
2040;0.0;0.0;0.0;0.08100800216197968;-0.05953599885106087;1.0940959453582764;0.0;0.0;0.0
2042;-0.044895999133586884;0.06270799785852432;0.9533079862594604;0.07320000231266022;-0.05563199892640114;1.0657919645309448;3.6968750953674316;3.640000104904175;0.1443749964237213
2045;0.0;0.0;0.0;0.057583998888731;-0.05953599885106087;1.0940959453582764;0.0;0.0;0.0
2047;0.0;0.0;0.0;0.07710400223731995;-0.0907679945230484;1.0862879753112793;0.0;0.0;0.0
2049;0.0;0.0;0.0;0.06148799881339073;-0.05172799900174141;1.0940959453582764;0.0;0.0;0.0
2051;-0.05416800081729889;0.07393199950456619;0.9706319570541382;0.057583998888731;-0.05953599885106087;1.1106879711151123;5.096875190734863;6.019999980926514;0.7043749690055847
2053;0.0;0.0;0.0;0.04196799919009209;-0.04782399907708168;1.126304030418396;0.0;0.0;0.0
2055;0.0;0.0;0.0;0.057583998888731;-0.0634399950504303;1.1067839860916138;0.0;0.0;0.0
2057;0.0;0.0;0.0;0.057583998888731;-0.05172799900174141;1.1145919561386108;0.0;0.0;0.0
2059;-0.0773480013012886;0.08100800216197968;0.9833199977874756;0.03806399926543236;-0.05953599885106087;1.1067839860916138;6.426875114440918;4.760000228881836;1.6143749952316284
2062;0.0;0.0;0.0;0.03806399926543236;-0.06734399497509003;1.1067839860916138;0.0;0.0;0.0
2064;0.0;0.0;0.0;0.0302559994161129;-0.03611199930310249;1.1428959369659424;0.0;0.0;0.0
2066;0.0;0.0;0.0;0.006831999868154526;-0.032207999378442764;1.126304030418396;0.0;0.0;0.0
2068;-0.0924759954214096;0.08906000107526779;0.9945439696311951;0.0302559994161129;-0.04391999915242195;1.126304030418396;6.426875114440918;1.8200000524520874;2.244374990463257
2070;0.0;0.0;0.0;0.06148799881339073;-0.04391999915242195;1.1380159854888916;0.0;0.0;0.0
2072;0.0;0.0;0.0;0.014639999717473984;-0.032207999378442764;1.1136159896850586;0.0;0.0;0.0
2074;0.0;0.0;0.0;0.04196799919009209;-0.03611199930310249;1.134112000465393;0.0;0.0;0.0
2077;-0.09589199721813202;0.09882000088691711;1.0006439685821533;0.03806399926543236;-0.028303999453783035;1.1302080154418945;5.026875019073486;-0.2800000011920929;1.7543749809265137
2079;0.0;0.0;0.0;0.0302559994161129;-0.032207999378442764;1.1136159896850586;0.0;0.0;0.0
2081;0.0;0.0;0.0;0.045871999114751816;-0.028303999453783035;1.1380159854888916;0.0;0.0;0.0
2083;0.0;0.0;0.0;0.045871999114751816;0.0029279999434947968;1.1136159896850586;0.0;0.0;0.0
2085;-0.08710800111293793;0.10711599886417389;0.9957639575004578;0.053679998964071274;-0.028303999453783035;1.122399926185608;3.0668749809265137;-1.2599999904632568;0.9143750071525574
2087;0.0;0.0;0.0;0.04196799919009209;-0.00878399983048439;1.122399926185608;0.0;0.0;0.0
2089;0.0;0.0;0.0;0.045871999114751816;-0.020495999604463577;1.1145919561386108;0.0;0.0;0.0
2091;0.0;0.0;0.0;0.045871999114751816;-0.004879999905824661;1.1028800010681152;0.0;0.0;0.0
2093;-0.07637199759483337;0.1134599968791008;0.9852719902992249;0.03415999934077263;-0.028303999453783035;1.097999930381775;1.6668750047683716;-1.6100000143051147;0.4943750202655792
2096;0.0;0.0;0.0;0.07710400223731995;0.0029279999434947968;1.101904034614563;0.0;0.0;0.0
2098;0.0;0.0;0.0;0.057583998888731;0.0029279999434947968;1.1184959411621094;0.0;0.0;0.0
2100;0.0;0.0;0.0;0.06148799881339073;0.006831999868154526;1.0940959453582764;0.0;0.0;0.0
2102;-0.06148799881339073;0.11589999496936798;0.9803919792175293;0.06148799881339073;-0.00878399983048439;1.097999930381775;0.9668750166893005;-0.699999988079071;0.7043749690055847
2104;0.0;0.0;0.0;0.057583998888731;-0.01268799975514412;1.1233760118484497;0.0;0.0;0.0
2106;0.0;0.0;0.0;0.06929600238800049;-0.020495999604463577;1.101904034614563;0.0;0.0;0.0
2108;0.0;0.0;0.0;0.07710400223731995;-0.020495999604463577;1.1184959411621094;0.0;0.0;0.0
2111;-0.058803997933864594;0.11760799586772919;0.9818559885025024;0.08100800216197968;-0.00878399983048439;1.1311839818954468;1.456874966621399;1.8200000524520874;1.334375023841858
2113;0.0;0.0;0.0;0.06539200246334076;-0.04001599922776222;1.122399926185608;0.0;0.0;0.0
2115;0.0;0.0;0.0;0.07320000231266022;-0.03611199930310249;1.1106879711151123;0.0;0.0;0.0
2117;0.0;0.0;0.0;0.04196799919009209;-0.020495999604463577;1.126304030418396;0.0;0.0;0.0
2119;-0.06831999868154526;0.11614400148391724;0.9862479567527771;0.045871999114751816;-0.01268799975514412;1.1184959411621094;2.856874942779541;4.199999809265137;1.4743750095367432
2121;0.0;0.0;0.0;0.049775999039411545;-0.01659199967980385;1.101904034614563;0.0;0.0;0.0
2123;0.0;0.0;0.0;0.045871999114751816;-0.0009759999811649323;1.1272799968719482;0.0;0.0;0.0
2125;0.0;0.0;0.0;0.0302559994161129;-0.00878399983048439;1.1311839818954468;0.0;0.0;0.0
2128;-0.08515600115060806;0.11907199770212173;0.9945439696311951;0.045871999114751816;-0.028303999453783035;1.1028800010681152;4.32687520980835;4.900000095367432;1.4743750095367432
2130;0.0;0.0;0.0;0.03415999934077263;-0.00878399983048439;1.1428959369659424;0.0;0.0;0.0
2132;0.0;0.0;0.0;0.04196799919009209;-0.00878399983048439;1.1428959369659424;0.0;0.0;0.0
2134;0.0;0.0;0.0;0.022447999566793442;-0.01268799975514412;1.1389919519424438;0.0;0.0;0.0
2136;-0.10223599523305893;0.1273680031299591;1.0050359964370728;0.010735999792814255;-0.0009759999811649323;1.1555839776992798;4.816875457763672;2.870000123977661;1.334375023841858
2138;0.0;0.0;0.0;-0.0009759999811649323;0.018543999642133713;1.126304030418396;0.0;0.0;0.0
2140;0.0;0.0;0.0;0.014639999717473984;0.010735999792814255;1.10971200466156;0.0;0.0;0.0
2142;0.0;0.0;0.0;0.014639999717473984;-0.00878399983048439;1.1380159854888916;0.0;0.0;0.0
2145;-0.10906799882650375;0.13712799549102783;0.9977160096168518;-0.01268799975514412;0.022447999566793442;1.1214239597320557;3.976875066757202;-0.8400000333786011;1.2643749713897705
2147;0.0;0.0;0.0;-0.004879999905824661;-0.0009759999811649323;1.0892159938812256;0.0;0.0;0.0
2149;0.0;0.0;0.0;-0.024399999529123306;0.022447999566793442;1.0892159938812256;0.0;0.0;0.0
2151;0.0;0.0;0.0;-0.0009759999811649323;0.022447999566793442;1.101904034614563;0.0;0.0;0.0
2153;-0.12029200047254562;0.14420399069786072;0.9823439717292786;-0.0009759999811649323;0.010735999792814255;1.085312008857727;4.256875038146973;-4.130000114440918;0.5643749833106995
2155;0.0;0.0;0.0;0.014639999717473984;0.0029279999434947968;1.101904034614563;0.0;0.0;0.0
2157;0.0;0.0;0.0;0.006831999868154526;-0.0009759999811649323;1.073599934577942;0.0;0.0;0.0
2159;0.0;0.0;0.0;0.02635199949145317;0.022447999566793442;1.1028800010681152;0.0;0.0;0.0
2162;-0.10394399613142014;0.14322799444198608;0.974291980266571;0.022447999566793442;-0.01268799975514412;1.0862879753112793;4.116875171661377;-7.980000019073486;0.7743749618530273
2164;0.0;0.0;0.0;0.0302559994161129;0.0029279999434947968;1.097999930381775;0.0;0.0;0.0
2166;0.0;0.0;0.0;0.06539200246334076;0.018543999642133713;1.0823839902877808;0.0;0.0;0.0
2168;0.0;0.0;0.0;0.006831999868154526;-0.01268799975514412;1.0901919603347778;0.0;0.0;0.0
2170;-0.08247199654579163;0.13932399451732635;0.962336003780365;0.04196799919009209;0.010735999792814255;1.073599934577942;4.746875286102295;-9.3100004196167;1.4043749570846558
2172;0.0;0.0;0.0;0.02635199949145317;-0.00878399983048439;1.0696959495544434;0.0;0.0;0.0
2174;0.0;0.0;0.0;0.06148799881339073;-0.004879999905824661;1.0657919645309448;0.0;0.0;0.0
2176;0.0;0.0;0.0;0.06929600238800049;0.006831999868154526;1.0901919603347778;0.0;0.0;0.0
2179;-0.0651479959487915;0.13298000395298004;0.9555040001869202;0.06929600238800049;-0.00878399983048439;1.073599934577942;6.286875247955322;-9.170000076293945;2.034374952316284
2181;0.0;0.0;0.0;0.049775999039411545;0.0029279999434947968;1.097999930381775;0.0;0.0;0.0
2183;0.0;0.0;0.0;0.045871999114751816;0.010735999792814255;1.0901919603347778;0.0;0.0;0.0
2185;0.0;0.0;0.0;0.06929600238800049;-0.04782399907708168;1.0823839902877808;0.0;0.0;0.0
2187;-0.06026799976825714;0.1273680031299591;0.9628239870071411;0.07320000231266022;-0.004879999905824661;1.0784800052642822;8.45687484741211;-8.819999694824219;3.0843749046325684
2189;0.0;0.0;0.0;0.057583998888731;-0.00878399983048439;1.0901919603347778;0.0;0.0;0.0
2191;0.0;0.0;0.0;0.057583998888731;-0.01268799975514412;1.0775039196014404;0.0;0.0;0.0
2193;0.0;0.0;0.0;0.0302559994161129;-0.01659199967980385;1.0823839902877808;0.0;0.0;0.0
2196;-0.06954000145196915;0.12004800140857697;0.9730719923973083;0.053679998964071274;-0.020495999604463577;1.1028800010681152;9.576875686645508;-8.609999656677246;3.434375047683716
2198;0.0;0.0;0.0;0.057583998888731;-0.020495999604463577;1.1106879711151123;0.0;0.0;0.0
2200;0.0;0.0;0.0;0.057583998888731;0.014639999717473984;1.0862879753112793;0.0;0.0;0.0
2202;0.0;0.0;0.0;0.03415999934077263;-0.032207999378442764;1.122399926185608;0.0;0.0;0.0
2204;-0.06758800148963928;0.11272799968719482;0.9835639595985413;0.03806399926543236;-0.03611199930310249;1.1067839860916138;9.646875381469727;-8.1899995803833;2.244374990463257
2206;0.0;0.0;0.0;0.08100800216197968;-0.024399999529123306;1.1184959411621094;0.0;0.0;0.0
2208;0.0;0.0;0.0;0.045871999114751816;-0.024399999529123306;1.1272799968719482;0.0;0.0;0.0
2210;0.0;0.0;0.0;0.053679998964071274;-0.04391999915242195;1.1067839860916138;0.0;0.0;0.0
2213;-0.05953599885106087;0.10394399613142014;0.9921039938926697;0.057583998888731;-0.04391999915242195;1.1145919561386108;8.94687557220459;-6.929999828338623;0.07437500357627869
2215;0.0;0.0;0.0;0.045871999114751816;-0.04001599922776222;1.1389919519424438;0.0;0.0;0.0
2217;0.0;0.0;0.0;0.06539200246334076;-0.04001599922776222;1.1184959411621094;0.0;0.0;0.0
2219;0.0;0.0;0.0;0.06148799881339073;-0.04782399907708168;1.1184959411621094;0.0;0.0;0.0
2221;-0.05685199797153473;0.09296400099992752;0.9943000078201294;0.08100800216197968;-0.04001599922776222;1.1145919561386108;7.196875095367432;-6.090000152587891;-2.7256250381469727
2223;0.0;0.0;0.0;0.08100800216197968;-0.05953599885106087;1.1145919561386108;0.0;0.0;0.0
2225;0.0;0.0;0.0;0.06148799881339073;-0.07905599474906921;1.122399926185608;0.0;0.0;0.0
2227;0.0;0.0;0.0;0.06148799881339073;-0.05953599885106087;1.1106879711151123;0.0;0.0;0.0
2230;-0.05636399984359741;0.07320000231266022;0.9847840070724487;0.08881600201129913;-0.10247999429702759;1.1145919561386108;5.026875019073486;-5.740000247955322;-5.945624828338623
2232;0.0;0.0;0.0;0.06539200246334076;-0.08686399459838867;1.122399926185608;0.0;0.0;0.0
2234;0.0;0.0;0.0;0.06148799881339073;-0.06734399497509003;1.122399926185608;0.0;0.0;0.0
2236;0.0;0.0;0.0;0.057583998888731;-0.08295999467372894;1.1067839860916138;0.0;0.0;0.0
2238;-0.06270799785852432;0.056120000779628754;0.9840520024299622;0.049775999039411545;-0.10247999429702759;1.1058080196380615;3.8368749618530273;-5.460000038146973;-9.375624656677246
2240;0.0;0.0;0.0;0.053679998964071274;-0.05563199892640114;1.10971200466156;0.0;0.0;0.0
2242;0.0;0.0;0.0;0.06929600238800049;-0.09857599437236786;1.0931199789047241;0.0;0.0;0.0
2244;0.0;0.0;0.0;0.049775999039411545;-0.07905599474906921;1.0814080238342285;0.0;0.0;0.0
2247;-0.0651479959487915;0.05050799995660782;0.9650200009346008;0.049775999039411545;-0.07515199482440948;1.0892159938812256;4.256875038146973;-5.179999828338623;-12.805624961853027
2249;0.0;0.0;0.0;0.07320000231266022;-0.08295999467372894;1.0775039196014404;0.0;0.0;0.0
2251;0.0;0.0;0.0;0.02635199949145317;-0.08686399459838867;1.0931199789047241;0.0;0.0;0.0
2253;0.0;0.0;0.0;0.053679998964071274;-0.04782399907708168;1.0648159980773926;0.0;0.0;0.0
2255;-0.07368800044059753;0.06075599789619446;0.9469639658927917;0.053679998964071274;-0.0634399950504303;1.0687199831008911;6.216875076293945;-3.8499999046325684;-15.185625076293945
2257;0.0;0.0;0.0;0.0302559994161129;-0.07124799489974976;1.0531039237976074;0.0;0.0;0.0
2259;0.0;0.0;0.0;0.03806399926543236;-0.04782399907708168;1.060912013053894;0.0;0.0;0.0
2261;0.0;0.0;0.0;-0.0009759999811649323;-0.03611199930310249;1.0775039196014404;0.0;0.0;0.0
2264;-0.10223599523305893;0.0832040011882782;0.944767951965332;-0.01659199967980385;-0.03611199930310249;1.073599934577942;9.926875114440918;-2.5899999141693115;-15.255624771118164
2266;0.0;0.0;0.0;-0.004879999905824661;-0.024399999529123306;1.085312008857727;0.0;0.0;0.0
2268;0.0;0.0;0.0;-0.0009759999811649323;-0.020495999604463577;1.0648159980773926;0.0;0.0;0.0
2270;0.0;0.0;0.0;0.010735999792814255;0.0029279999434947968;1.0775039196014404;0.0;0.0;0.0
2272;-0.13639599084854126;0.12541599571704865;0.9545279741287231;-0.01659199967980385;0.006831999868154526;1.0814080238342285;15.176875114440918;-3.8499999046325684;-14.27562427520752
2274;0.0;0.0;0.0;-0.05172799900174141;0.03806399926543236;1.0862879753112793;0.0;0.0;0.0
2276;0.0;0.0;0.0;-0.032207999378442764;0.045871999114751816;1.0989760160446167;0.0;0.0;0.0
2278;0.0;0.0;0.0;0.006831999868154526;0.057583998888731;1.1106879711151123;0.0;0.0;0.0
2281;-0.13541999459266663;0.18519599735736847;0.9637999534606934;0.018543999642133713;0.08881600201129913;1.0940959453582764;20.566875457763672;-7.630000114440918;-12.875624656677246
2283;0.0;0.0;0.0;-0.0009759999811649323;0.12004800140857697;1.1067839860916138;0.0;0.0;0.0
2285;0.0;0.0;0.0;0.022447999566793442;0.12785600125789642;1.0940959453582764;0.0;0.0;0.0
2287;0.0;0.0;0.0;0.049775999039411545;0.13566400110721588;1.101904034614563;0.0;0.0;0.0
2289;-0.09857599437236786;0.25571200251579285;0.974291980266571;0.04196799919009209;0.1512800008058548;1.126304030418396;22.106874465942383;-12.739999771118164;-9.445624351501465
2291;0.0;0.0;0.0;0.06929600238800049;0.15518400073051453;1.10971200466156;0.0;0.0;0.0
2293;0.0;0.0;0.0;0.10833600163459778;0.15908800065517426;1.10971200466156;0.0;0.0;0.0
2295;0.0;0.0;0.0;0.08100800216197968;0.15908800065517426;1.097999930381775;0.0;0.0;0.0
2298;-0.034648001194000244;0.28767600655555725;0.9852719902992249;0.11126399785280228;0.1512800008058548;1.1136159896850586;19.72687530517578;-14.210000038146973;-4.405624866485596
2300;0.0;0.0;0.0;0.13468798995018005;0.1239520013332367;1.134112000465393;0.0;0.0;0.0
2302;0.0;0.0;0.0;0.1424959897994995;0.1239520013332367;1.126304030418396;0.0;0.0;0.0
2304;0.0;0.0;0.0;0.13078400492668152;0.1512800008058548;1.097999930381775;0.0;0.0;0.0
2306;0.01634800061583519;0.28426000475883484;0.9916160106658936;0.1424959897994995;0.14347200095653534;1.122399926185608;14.336874961853027;-10.289999961853027;0.984375
2308;0.0;0.0;0.0;0.17372798919677734;0.1395680010318756;1.085312008857727;0.0;0.0;0.0
2310;0.0;0.0;0.0;0.15030398964881897;0.1239520013332367;1.0892159938812256;0.0;0.0;0.0
2313;0.0;0.0;0.0;0.13078400492668152;0.11224000155925751;1.1175199747085571;0.0;0.0;0.0
2315;0.02025200054049492;0.2559559941291809;0.9838079810142517;0.13078400492668152;0.08881600201129913;1.0931199789047241;6.846875190734863;-3.1500000953674316;6.374374866485596
2317;0.0;0.0;0.0;0.11907199770212173;0.09662400186061859;1.10971200466156;0.0;0.0;0.0
2319;0.0;0.0;0.0;0.10735999792814255;0.09272000193595886;1.0931199789047241;0.0;0.0;0.0
2321;0.0;0.0;0.0;0.10735999792814255;0.09272000193595886;1.0892159938812256;0.0;0.0;0.0
2323;-0.011223999783396721;0.2198439985513687;0.97843998670578;0.0849120020866394;0.049775999039411545;1.097999930381775;-0.9931249618530273;3.2200000286102295;10.2943754196167
2325;0.0;0.0;0.0;0.06929600238800049;0.045871999114751816;1.1184959411621094;0.0;0.0;0.0
2327;0.0;0.0;0.0;0.07320000231266022;0.06929600238800049;1.0862879753112793;0.0;0.0;0.0
2330;0.0;0.0;0.0;0.057583998888731;0.03806399926543236;1.0940959453582764;0.0;0.0;0.0
2332;-0.04391999915242195;0.1739719957113266;0.966484010219574;0.07320000231266022;0.010735999792814255;1.0862879753112793;-8.063124656677246;6.929999828338623;12.814375877380371
2334;0.0;0.0;0.0;0.06929600238800049;0.014639999717473984;1.0784800052642822;0.0;0.0;0.0
2336;0.0;0.0;0.0;0.045871999114751816;-0.0009759999811649323;1.0901919603347778;0.0;0.0;0.0
2338;0.0;0.0;0.0;0.057583998888731;-0.004879999905824661;1.0862879753112793;0.0;0.0;0.0
2340;-0.07197999954223633;0.13005200028419495;0.9645319581031799;0.049775999039411545;0.010735999792814255;1.1028800010681152;-11.703125;10.359999656677246;14.774375915527344
2342;0.0;0.0;0.0;0.02635199949145317;-0.03611199930310249;1.1058080196380615;0.0;0.0;0.0
2344;0.0;0.0;0.0;0.0302559994161129;-0.04001599922776222;1.10971200466156;0.0;0.0;0.0
2347;0.0;0.0;0.0;0.018543999642133713;-0.0634399950504303;1.1214239597320557;0.0;0.0;0.0
2349;-0.09516000002622604;0.09955199807882309;0.9818559885025024;0.02635199949145317;-0.05172799900174141;1.134112000465393;-12.403124809265137;11.40999984741211;16.66437530517578
2351;0.0;0.0;0.0;-0.01659199967980385;-0.01268799975514412;1.1380159854888916;0.0;0.0;0.0
2353;0.0;0.0;0.0;0.018543999642133713;-0.032207999378442764;1.126304030418396;0.0;0.0;0.0
2355;0.0;0.0;0.0;0.006831999868154526;-0.020495999604463577;1.150704026222229;0.0;0.0;0.0
2357;-0.10516399890184402;0.10272400081157684;1.0050359964370728;0.045871999114751816;-0.05953599885106087;1.1419199705123901;-10.933124542236328;9.170000076293945;17.78437614440918
2359;0.0;0.0;0.0;0.018543999642133713;-0.08295999467372894;1.1516799926757812;0.0;0.0;0.0
2361;0.0;0.0;0.0;0.06148799881339073;-0.0634399950504303;1.1516799926757812;0.0;0.0;0.0
2364;0.0;0.0;0.0;0.022447999566793442;-0.05953599885106087;1.1272799968719482;0.0;0.0;0.0
2366;-0.0861319974064827;0.07490799576044083;1.012355923652649;0.0302559994161129;-0.08295999467372894;1.1311839818954468;-9.953125;6.720000267028809;18.344375610351562
2368;0.0;0.0;0.0;0.053679998964071274;-0.04782399907708168;1.122399926185608;0.0;0.0;0.0
2370;0.0;0.0;0.0;0.0302559994161129;-0.08686399459838867;1.1272799968719482;0.0;0.0;0.0
2372;0.0;0.0;0.0;0.06148799881339073;-0.07124799489974976;1.1184959411621094;0.0;0.0;0.0
2374;-0.07027199864387512;0.05782799795269966;1.0013760328292847;0.07320000231266022;-0.09857599437236786;1.1106879711151123;-8.273124694824219;5.25;18.904375076293945
2376;0.0;0.0;0.0;0.0302559994161129;-0.09857599437236786;1.1302080154418945;0.0;0.0;0.0
2378;0.0;0.0;0.0;0.06539200246334076;-0.07905599474906921;1.126304030418396;0.0;0.0;0.0
2381;0.0;0.0;0.0;0.045871999114751816;-0.09857599437236786;1.126304030418396;0.0;0.0;0.0
