Timestamp(ms);LG-Accel x(g);LG-Accel y(g);LG-Accel z(g);HG-Accel x(g);HG-Accel y(g);HG-Accel z(g);Gyro x(dps);Gyro y(dps);Gyro z(dps)
83;0.0;0.0;0.0;0.0663679987192154;0.0009759999811649323;1.1165440082550049;0.0;0.0;0.0
85;0.0;0.0;0.0;0.08979199826717377;-0.02635199949145317;1.1126400232315063;0.0;0.0;0.0
87;0.0;0.0;0.0;0.08588799834251404;-0.006831999868154526;1.0716480016708374;0.0;0.0;0.0
90;0.0;0.0;0.0;0.10150399804115295;-0.0029279999434947968;1.0843359231948853;0.0;0.0;0.0
92;0.0;0.0;0.0;0.08979199826717377;-0.010735999792814255;1.0677440166473389;0.0;0.0;0.0
94;0.0;0.0;0.0;0.10833600163459778;-0.0009759999811649323;1.0648159980773926;0.0;0.0;0.0
96;0.0;0.0;0.0;0.12785600125789642;0.006831999868154526;1.073599934577942;0.0;0.0;0.0
98;0.0;0.0;0.0;0.1239520013332367;-0.03611199930310249;1.085312008857727;0.0;0.0;0.0
100;-0.014639999717473984;0.12126799672842026;0.9459879994392395;0.12004800140857697;-0.004879999905824661;1.044319987297058;0.0;0.0;0.0
102;0.0;0.0;0.0;0.12785600125789642;-0.028303999453783035;1.0726239681243896;0.0;0.0;0.0
104;0.0;0.0;0.0;0.14347200095653534;-0.01659199967980385;1.0570080280303955;0.0;0.0;0.0
107;0.0;0.0;0.0;0.12004800140857697;-0.028303999453783035;1.0687199831008911;0.0;0.0;0.0
109;-0.005123999901115894;0.11297199875116348;0.9354959726333618;0.13176000118255615;-0.020495999604463577;1.060912013053894;0.0;0.0;0.0
111;0.0;0.0;0.0;0.10150399804115295;-0.05172799900174141;1.0491999387741089;0.0;0.0;0.0
113;0.0;0.0;0.0;0.10540799796581268;-0.04001599922776222;1.0726239681243896;0.0;0.0;0.0
115;0.0;0.0;0.0;0.10540799796581268;-0.01659199967980385;1.0687199831008911;0.0;0.0;0.0
117;-0.011223999783396721;0.10516399890184402;0.933788001537323;0.10833600163459778;-0.03611199930310249;1.0482239723205566;0.0;0.0;0.0
119;0.0;0.0;0.0;0.10931199789047241;-0.04001599922776222;1.0570080280303955;0.0;0.0;0.0
121;0.0;0.0;0.0;0.09662400186061859;-0.020495999604463577;1.0531039237976074;0.0;0.0;0.0
124;0.0;0.0;0.0;0.0936959981918335;-0.020495999604463577;1.0570080280303955;0.0;0.0;0.0
126;-0.020983999595046043;0.11272799968719482;0.937936007976532;0.10443200170993805;-0.01268799975514412;1.0726239681243896;0.0;0.0;0.0
128;0.0;0.0;0.0;0.09564799815416336;0.0029279999434947968;1.0648159980773926;0.0;0.0;0.0
130;0.0;0.0;0.0;0.08100800216197968;-0.0009759999811649323;1.097999930381775;0.0;0.0;0.0
132;0.0;0.0;0.0;0.10735999792814255;0.04196799919009209;1.0687199831008911;0.0;0.0;0.0
134;-0.032207999378442764;0.1437159925699234;0.9569680094718933;0.10443200170993805;0.03806399926543236;1.097999930381775;0.0;0.0;0.0
136;0.0;0.0;0.0;0.09662400186061859;0.0302559994161129;1.097999930381775;0.0;0.0;0.0
138;0.0;0.0;0.0;0.10735999792814255;0.014639999717473984;1.122399926185608;0.0;0.0;0.0
141;0.0;0.0;0.0;0.0849120020866394;0.045871999114751816;1.134112000465393;0.0;0.0;0.0
143;-0.03660000115633011;0.1698240041732788;0.9818559885025024;0.08881600201129913;0.03806399926543236;1.1136159896850586;4.458125114440918;5.503750324249268;10.517499923706055
145;0.0;0.0;0.0;0.07807999849319458;0.053679998964071274;1.134112000465393;0.0;0.0;0.0
147;0.0;0.0;0.0;0.09272000193595886;0.049775999039411545;1.146799921989441;0.0;0.0;0.0
149;0.0;0.0;0.0;0.08588799834251404;0.049775999039411545;1.1380159854888916;0.0;0.0;0.0
151;-0.04050400108098984;0.1786080002784729;1.0003999471664429;0.09759999811649323;0.045871999114751816;1.134112000465393;1.728124976158142;4.523750305175781;11.987500190734863
153;0.0;0.0;0.0;0.07807999849319458;0.04196799919009209;1.126304030418396;0.0;0.0;0.0
155;0.0;0.0;0.0;0.07417599856853485;0.022447999566793442;1.150704026222229;0.0;0.0;0.0
158;0.0;0.0;0.0;0.10150399804115295;0.045871999114751816;1.134112000465393;0.0;0.0;0.0
160;-0.03806399926543236;0.17128799855709076;1.0035719871520996;0.08979199826717377;0.0302559994161129;1.126304030418396;-2.1218748092651367;2.6337502002716064;13.17750072479248
162;0.0;0.0;0.0;0.07320000231266022;0.010735999792814255;1.134112000465393;0.0;0.0;0.0
164;0.0;0.0;0.0;0.06929600238800049;0.018543999642133713;1.10971200466156;0.0;0.0;0.0
166;0.0;0.0;0.0;0.09662400186061859;0.0029279999434947968;1.1175199747085571;0.0;0.0;0.0
168;-0.04001599922776222;0.1471319943666458;0.994055986404419;0.09662400186061859;-0.032207999378442764;1.1136159896850586;-5.271874904632568;-0.026250001043081284;14.227499961853027
170;0.0;0.0;0.0;0.10443200170993805;-0.00878399983048439;1.1302080154418945;0.0;0.0;0.0
172;0.0;0.0;0.0;0.057583998888731;-0.028303999453783035;1.097999930381775;0.0;0.0;0.0
175;0.0;0.0;0.0;0.06148799881339073;-0.03611199930310249;1.1136159896850586;0.0;0.0;0.0
177;-0.047335997223854065;0.10394399613142014;0.9889319539070129;0.08100800216197968;-0.05563199892640114;1.10971200466156;-6.531875133514404;-0.09624999761581421;14.507500648498535
179;0.0;0.0;0.0;0.08588799834251404;-0.05172799900174141;1.10971200466156;0.0;0.0;0.0
181;0.0;0.0;0.0;0.058559998869895935;-0.07124799489974976;1.122399926185608;0.0;0.0;0.0
183;0.0;0.0;0.0;0.0936959981918335;-0.06734399497509003;1.1184959411621094;0.0;0.0;0.0
185;-0.04440800100564957;0.07637199759483337;0.9933239817619324;0.10150399804115295;-0.05953599885106087;1.10971200466156;-6.181874752044678;3.40375018119812;13.037500381469727
187;0.0;0.0;0.0;0.07027199864387512;-0.06734399497509003;1.126304030418396;0.0;0.0;0.0
189;0.0;0.0;0.0;0.08198399841785431;-0.08295999467372894;1.10971200466156;0.0;0.0;0.0
192;0.0;0.0;0.0;0.07807999849319458;-0.05953599885106087;1.134112000465393;0.0;0.0;0.0
194;-0.04636000096797943;0.05953599885106087;0.9996680021286011;0.07417599856853485;-0.07515199482440948;1.134112000465393;-4.64187479019165;5.013750076293945;11.84749984741211
196;0.0;0.0;0.0;0.06539200246334076;-0.07905599474906921;1.1380159854888916;0.0;0.0;0.0
198;0.0;0.0;0.0;0.07320000231266022;-0.08295999467372894;1.134112000465393;0.0;0.0;0.0
200;0.0;0.0;0.0;0.053679998964071274;-0.10247999429702759;1.1419199705123901;0.0;0.0;0.0
202;-0.057583998888731;0.04562800005078316;1.0094280242919922;0.06539200246334076;-0.07515199482440948;1.150704026222229;-1.4918750524520874;3.963750123977661;11.707500457763672
205;0.0;0.0;0.0;0.049775999039411545;-0.0907679945230484;1.158511996269226;0.0;0.0;0.0
206;0.0;0.0;0.0;0.03806399926543236;-0.11028799414634705;1.1546080112457275;0.0;0.0;0.0
209;0.0;0.0;0.0;0.014639999717473984;-0.0634399950504303;1.158511996269226;0.0;0.0;0.0
211;-0.07515199482440948;0.03903999924659729;1.0243120193481445;0.0302559994161129;-0.0907679945230484;1.146799921989441;2.2881250381469727;3.0537500381469727;10.867500305175781
213;0.0;0.0;0.0;0.045871999114751816;-0.0907679945230484;1.1663199663162231;0.0;0.0;0.0
215;0.0;0.0;0.0;0.014639999717473984;-0.0907679945230484;1.1712000370025635;0.0;0.0;0.0
217;0.0;0.0;0.0;0.0029279999434947968;-0.0907679945230484;1.182911992073059;0.0;0.0;0.0
219;-0.08515600115060806;0.051239997148513794;1.0372439622879028;0.06148799881339073;-0.07124799489974976;1.158511996269226;4.528125286102295;0.4637500047683716;9.1875
222;0.0;0.0;0.0;0.03415999934077263;-0.07515199482440948;1.1302080154418945;0.0;0.0;0.0
224;0.0;0.0;0.0;0.0302559994161129;-0.0634399950504303;1.150704026222229;0.0;0.0;0.0
226;0.0;0.0;0.0;0.03415999934077263;-0.0907679945230484;1.1419199705123901;0.0;0.0;0.0
228;-0.08003199845552444;0.06563600152730942;1.0291919708251953;0.0302559994161129;-0.07515199482440948;1.1302080154418945;4.598124980926514;-4.646249771118164;7.297500133514404
230;0.0;0.0;0.0;0.08100800216197968;-0.08686399459838867;1.134112000465393;0.0;0.0;0.0
232;0.0;0.0;0.0;0.06929600238800049;-0.05172799900174141;1.146799921989441;0.0;0.0;0.0
234;0.0;0.0;0.0;0.07710400223731995;-0.05953599885106087;1.1175199747085571;0.0;0.0;0.0
236;-0.056120000779628754;0.07320000231266022;1.002351999282837;0.09272000193595886;-0.05953599885106087;1.0931199789047241;4.248125076293945;-9.126250267028809;5.407500267028809
239;0.0;0.0;0.0;0.10052800178527832;-0.05563199892640114;1.0931199789047241;0.0;0.0;0.0
241;0.0;0.0;0.0;0.13468798995018005;-0.06734399497509003;1.101904034614563;0.0;0.0;0.0
243;0.0;0.0;0.0;0.13468798995018005;-0.05563199892640114;1.097999930381775;0.0;0.0;0.0
245;-0.011711999773979187;0.07881199568510056;0.9708759784698486;0.15030398964881897;-0.05953599885106087;1.0531039237976074;4.458125114440918;-10.526249885559082;3.5875000953674316
247;0.0;0.0;0.0;0.16591998934745789;-0.0634399950504303;1.0814080238342285;0.0;0.0;0.0
249;0.0;0.0;0.0;0.14640000462532043;-0.08686399459838867;1.101904034614563;0.0;0.0;0.0
251;0.0;0.0;0.0;0.17763200402259827;-0.08295999467372894;1.0687199831008911;0.0;0.0;0.0
253;0.03684400022029877;0.07954400032758713;0.948915958404541;0.19324800372123718;-0.06734399497509003;1.0892159938812256;5.718125343322754;-7.586249828338623;3.0975000858306885
256;0.0;0.0;0.0;0.16201600432395935;-0.05172799900174141;1.0648159980773926;0.0;0.0;0.0
258;0.0;0.0;0.0;0.15811198949813843;-0.05563199892640114;1.060912013053894;0.0;0.0;0.0
260;0.0;0.0;0.0;0.1542080044746399;-0.07124799489974976;1.036512017250061;0.0;0.0;0.0
262;0.04758000001311302;0.0785679966211319;0.9325679540634155;0.15811198949813843;-0.04782399907708168;1.0531039237976074;7.818125247955322;-1.9862500429153442;3.797499895095825
264;0.0;0.0;0.0;0.17763200402259827;-0.05172799900174141;1.0491999387741089;0.0;0.0;0.0
266;0.0;0.0;0.0;0.14640000462532043;-0.05563199892640114;1.0531039237976074;0.0;0.0;0.0
268;0.0;0.0;0.0;0.16591998934745789;-0.05563199892640114;1.036512017250061;0.0;0.0;0.0
270;0.030499998480081558;0.08247199654579163;0.9281759858131409;0.1542080044746399;-0.05172799900174141;1.073599934577942;10.128124237060547;3.473750114440918;5.05750036239624
273;0.0;0.0;0.0;0.13078400492668152;-0.05172799900174141;1.060912013053894;0.0;0.0;0.0
275;0.0;0.0;0.0;0.13078400492668152;-0.024399999529123306;1.060912013053894;0.0;0.0;0.0
277;0.0;0.0;0.0;0.10345599800348282;-0.03611199930310249;1.0687199831008911;0.0;0.0;0.0
279;0.00878399983048439;0.1000399962067604;0.9391559958457947;0.11907199770212173;-0.020495999604463577;1.060912013053894;11.248125076293945;8.303750038146973;5.127500057220459
281;0.0;0.0;0.0;0.11907199770212173;-0.01659199967980385;1.0814080238342285;0.0;0.0;0.0
283;0.0;0.0;0.0;0.11126399785280228;-0.024399999529123306;1.0687199831008911;0.0;0.0;0.0
285;0.0;0.0;0.0;0.1268799901008606;-0.0009759999811649323;1.0775039196014404;0.0;0.0;0.0
287;-0.006099999882280827;0.13102799654006958;0.9469639658927917;0.11907199770212173;0.0029279999434947968;1.097999930381775;10.548124313354492;12.223750114440918;4.427500247955322
290;0.0;0.0;0.0;0.11126399785280228;0.02635199949145317;1.0687199831008911;0.0;0.0;0.0
292;0.0;0.0;0.0;0.08881600201129913;0.053679998964071274;1.0814080238342285;0.0;0.0;0.0
294;0.0;0.0;0.0;0.10735999792814255;0.045871999114751816;1.0687199831008911;0.0;0.0;0.0
296;-0.01903199963271618;0.17250800132751465;0.95306396484375;0.0849120020866394;0.053679998964071274;1.0931199789047241;8.308124542236328;15.863750457763672;4.427500247955322
298;0.0;0.0;0.0;0.08881600201129913;0.06929600238800049;1.0687199831008911;0.0;0.0;0.0
300;0.0;0.0;0.0;0.09272000193595886;0.07710400223731995;1.0726239681243896;0.0;0.0;0.0
302;0.0;0.0;0.0;0.10052800178527832;0.057583998888731;1.1136159896850586;0.0;0.0;0.0
304;-0.03635599836707115;0.20398399233818054;0.961359977722168;0.053679998964071274;0.08100800216197968;1.1136159896850586;5.298125267028809;18.733749389648438;4.987500190734863
307;0.0;0.0;0.0;0.08100800216197968;0.10833600163459778;1.0931199789047241;0.0;0.0;0.0
309;0.0;0.0;0.0;0.07320000231266022;0.07710400223731995;1.0892159938812256;0.0;0.0;0.0
311;0.0;0.0;0.0;0.06929600238800049;0.07710400223731995;1.097999930381775;0.0;0.0;0.0
313;-0.04758000001311302;0.21423199772834778;0.9789279699325562;0.06148799881339073;0.057583998888731;1.126304030418396;2.4281251430511475;20.41374969482422;6.107500076293945
315;0.0;0.0;0.0;0.06148799881339073;0.02635199949145317;1.1058080196380615;0.0;0.0;0.0
317;0.0;0.0;0.0;0.045871999114751816;0.08100800216197968;1.1380159854888916;0.0;0.0;0.0
319;0.0;0.0;0.0;0.053679998964071274;0.057583998888731;1.1380159854888916;0.0;0.0;0.0
321;-0.060999996960163116;0.2012999951839447;0.9950319528579712;0.053679998964071274;0.07320000231266022;1.1302080154418945;-0.09187500178813934;20.833749771118164;7.857500076293945
324;0.0;0.0;0.0;0.045871999114751816;0.045871999114751816;1.1136159896850586;0.0;0.0;0.0
326;0.0;0.0;0.0;0.03806399926543236;0.049775999039411545;1.134112000465393;0.0;0.0;0.0
328;0.0;0.0;0.0;0.06539200246334076;0.02635199949145317;1.146799921989441;0.0;0.0;0.0
330;-0.07905599474906921;0.17885199189186096;1.007964015007019;0.022447999566793442;0.018543999642133713;1.1380159854888916;-1.9818750619888306;20.833749771118164;8.83750057220459
332;0.0;0.0;0.0;0.03806399926543236;0.04196799919009209;1.175104022026062;0.0;0.0;0.0
334;0.0;0.0;0.0;0.0302559994161129;0.0029279999434947968;1.1546080112457275;0.0;0.0;0.0
336;0.0;0.0;0.0;-0.004879999905824661;0.010735999792814255;1.158511996269226;0.0;0.0;0.0
338;-0.10345599800348282;0.15054799616336823;1.019919991493225;0.006831999868154526;0.006831999868154526;1.1546080112457275;-3.801874876022339;19.36374855041504;9.467500686645508
341;0.0;0.0;0.0;-0.00878399983048439;-0.0009759999811649323;1.1624159812927246;0.0;0.0;0.0
343;0.0;0.0;0.0;0.014639999717473984;0.006831999868154526;1.1868159770965576;0.0;0.0;0.0
345;0.0;0.0;0.0;0.0029279999434947968;-0.028303999453783035;1.1624159812927246;0.0;0.0;0.0
347;-0.11882799863815308;0.1256600022315979;1.0338280200958252;0.014639999717473984;-0.032207999378442764;1.1458239555358887;-5.551875114440918;17.193748474121094;9.257500648498535
349;0.0;0.0;0.0;0.018543999642133713;-0.03611199930310249;1.1546080112457275;0.0;0.0;0.0
351;0.0;0.0;0.0;-0.0009759999811649323;-0.032207999378442764;1.182911992073059;0.0;0.0;0.0
353;0.0;0.0;0.0;-0.0009759999811649323;-0.05172799900174141;1.175104022026062;0.0;0.0;0.0
355;-0.11101999878883362;0.10858000069856644;1.047003984451294;-0.01659199967980385;-0.024399999529123306;1.1907199621200562;-7.511875152587891;14.533750534057617;8.83750057220459
358;0.0;0.0;0.0;-0.00878399983048439;-0.024399999529123306;1.1790080070495605;0.0;0.0;0.0
360;0.0;0.0;0.0;0.010735999792814255;-0.03611199930310249;1.1907199621200562;0.0;0.0;0.0
362;0.0;0.0;0.0;-0.00878399983048439;-0.04782399907708168;1.1790080070495605;0.0;0.0;0.0
364;-0.12053599953651428;0.10150399804115295;1.0467599630355835;-0.004879999905824661;-0.032207999378442764;1.150704026222229;-9.051875114440918;11.033750534057617;8.83750057220459
366;0.0;0.0;0.0;-0.00878399983048439;-0.032207999378442764;1.1624159812927246;0.0;0.0;0.0
368;0.0;0.0;0.0;-0.032207999378442764;-0.04001599922776222;1.175104022026062;0.0;0.0;0.0
370;0.0;0.0;0.0;-0.0009759999811649323;-0.024399999529123306;1.146799921989441;0.0;0.0;0.0
372;-0.1390800029039383;0.09272000193595886;1.0369999408721924;-0.028303999453783035;-0.04391999915242195;1.1546080112457275;-9.891875267028809;5.853750228881836;8.27750015258789
375;0.0;0.0;0.0;-0.04001599922776222;-0.05563199892640114;1.150704026222229;0.0;0.0;0.0
377;0.0;0.0;0.0;-0.04782399907708168;-0.06734399497509003;1.1380159854888916;0.0;0.0;0.0
379;0.0;0.0;0.0;-0.05563199892640114;-0.0634399950504303;1.126304030418396;0.0;0.0;0.0
381;-0.16030800342559814;0.0756400004029274;1.0140639543533325;-0.024399999529123306;-0.07124799489974976;1.10971200466156;-10.031875610351562;-1.496250033378601;6.80750036239624
383;0.0;0.0;0.0;-0.01659199967980385;-0.12590399384498596;1.0814080238342285;0.0;0.0;0.0
385;0.0;0.0;0.0;-0.05953599885106087;-0.01268799975514412;1.134112000465393;0.0;0.0;0.0
387;0.0;0.0;0.0;-0.04391999915242195;-0.08686399459838867;1.097999930381775;0.0;0.0;0.0
389;-0.16787199676036835;0.06880799680948257;0.986735999584198;-0.032207999378442764;-0.05563199892640114;1.1302080154418945;-7.931874752044678;-10.876250267028809;5.197500228881836
392;0.0;0.0;0.0;-0.00878399983048439;-0.03611199930310249;1.101904034614563;0.0;0.0;0.0
394;0.0;0.0;0.0;-0.01268799975514412;-0.04782399907708168;1.0648159980773926;0.0;0.0;0.0
396;0.0;0.0;0.0;-0.028303999453783035;-0.06734399497509003;1.0892159938812256;0.0;0.0;0.0
398;-0.13102799654006958;0.08149600028991699;0.9628239870071411;0.02635199949145317;-0.05563199892640114;1.0570080280303955;-6.601874828338623;-19.20625114440918;4.777500152587891
400;0.0;0.0;0.0;0.049775999039411545;-0.04001599922776222;1.0687199831008911;0.0;0.0;0.0
402;0.0;0.0;0.0;0.02635199949145317;-0.032207999378442764;1.0775039196014404;0.0;0.0;0.0
404;0.0;0.0;0.0;0.053679998964071274;-0.04782399907708168;1.073599934577942;0.0;0.0;0.0
406;-0.07588399946689606;0.09442799538373947;0.9413520097732544;0.10443200170993805;-0.020495999604463577;1.0726239681243896;-3.171875;-21.58625030517578;4.357500076293945
409;0.0;0.0;0.0;0.08881600201129913;-0.01268799975514412;1.0726239681243896;0.0;0.0;0.0
411;0.0;0.0;0.0;0.08881600201129913;-0.020495999604463577;1.0775039196014404;0.0;0.0;0.0
413;0.0;0.0;0.0;0.12297599762678146;-0.00878399983048439;1.073599934577942;0.0;0.0;0.0
415;-0.028060000389814377;0.10858000069856644;0.9452559947967529;0.10052800178527832;-0.01268799975514412;1.0814080238342285;1.3081250190734863;-16.33625030517578;3.9375
417;0.0;0.0;0.0;0.10052800178527832;-0.004879999905824661;1.0775039196014404;0.0;0.0;0.0
419;0.0;0.0;0.0;0.09662400186061859;-0.0009759999811649323;1.0931199789047241;0.0;0.0;0.0
421;0.0;0.0;0.0;0.12297599762678146;-0.01659199967980385;1.0570080280303955;0.0;0.0;0.0
423;-0.004635999910533428;0.1210239976644516;0.9574559926986694;0.11907199770212173;-0.00878399983048439;1.0892159938812256;3.898125171661377;-7.306250095367432;4.427500247955322
426;0.0;0.0;0.0;0.11907199770212173;-0.004879999905824661;1.073599934577942;0.0;0.0;0.0
428;0.0;0.0;0.0;0.10052800178527832;-0.0009759999811649323;1.101904034614563;0.0;0.0;0.0
430;0.0;0.0;0.0;0.11126399785280228;-0.004879999905824661;1.10971200466156;0.0;0.0;0.0
432;-0.003903999924659729;0.13078400492668152;0.9713639616966248;0.09662400186061859;-0.0009759999811649323;1.10971200466156;4.878125190734863;1.8637499809265137;5.127500057220459
434;0.0;0.0;0.0;0.10052800178527832;-0.01268799975514412;1.1058080196380615;0.0;0.0;0.0
436;0.0;0.0;0.0;0.11907199770212173;-0.0009759999811649323;1.1136159896850586;0.0;0.0;0.0
438;0.0;0.0;0.0;0.09272000193595886;-0.01268799975514412;1.1058080196380615;0.0;0.0;0.0
440;-0.016103999689221382;0.13249199092388153;0.9796599745750427;0.10052800178527832;0.02635199949145317;1.1136159896850586;4.598124980926514;8.303750038146973;6.947500228881836
443;0.0;0.0;0.0;0.0849120020866394;0.006831999868154526;1.1136159896850586;0.0;0.0;0.0
445;0.0;0.0;0.0;0.06148799881339073;-0.01268799975514412;1.10971200466156;0.0;0.0;0.0
447;0.0;0.0;0.0;0.0849120020866394;0.0029279999434947968;1.1302080154418945;0.0;0.0;0.0
449;-0.03903999924659729;0.1315159946680069;0.9821000099182129;0.06929600238800049;-0.00878399983048439;1.122399926185608;4.738125324249268;11.103750228881836;9.397500038146973
451;0.0;0.0;0.0;0.06539200246334076;-0.004879999905824661;1.1136159896850586;0.0;0.0;0.0
453;0.0;0.0;0.0;0.06148799881339073;-0.004879999905824661;1.10971200466156;0.0;0.0;0.0
455;0.0;0.0;0.0;0.049775999039411545;-0.00878399983048439;1.10971200466156;0.0;0.0;0.0
457;-0.05953599885106087;0.13981199264526367;0.9889319539070129;0.045871999114751816;-0.020495999604463577;1.1058080196380615;4.598124980926514;11.803750038146973;11.357500076293945
460;0.0;0.0;0.0;0.06148799881339073;0.022447999566793442;1.1058080196380615;0.0;0.0;0.0
462;0.0;0.0;0.0;0.045871999114751816;0.03806399926543236;1.101904034614563;0.0;0.0;0.0
464;0.0;0.0;0.0;0.04196799919009209;0.022447999566793442;1.1136159896850586;0.0;0.0;0.0
466;-0.08100800216197968;0.15323199331760406;0.9872239828109741;0.053679998964071274;-0.0009759999811649323;1.1302080154418945;3.338125228881836;11.103750228881836;13.387500762939453
468;0.0;0.0;0.0;0.04196799919009209;0.03806399926543236;1.122399926185608;0.0;0.0;0.0
470;0.0;0.0;0.0;0.03806399926543236;0.053679998964071274;1.1175199747085571;0.0;0.0;0.0
472;0.0;0.0;0.0;0.010735999792814255;0.03415999934077263;1.1136159896850586;0.0;0.0;0.0
474;-0.09272000193595886;0.1634799987077713;0.9989359974861145;0.022447999566793442;0.03806399926543236;1.1419199705123901;1.0981249809265137;8.443750381469727;14.857500076293945
477;0.0;0.0;0.0;0.010735999792814255;0.03806399926543236;1.1302080154418945;0.0;0.0;0.0
479;0.0;0.0;0.0;0.018543999642133713;0.02635199949145317;1.1380159854888916;0.0;0.0;0.0
481;0.0;0.0;0.0;0.022447999566793442;0.02635199949145317;1.1624159812927246;0.0;0.0;0.0
483;-0.09320800006389618;0.16274799406528473;1.013819932937622;0.045871999114751816;0.02635199949145317;1.126304030418396;-2.681874990463257;4.033750057220459;16.537500381469727
485;0.0;0.0;0.0;0.022447999566793442;0.0302559994161129;1.1868159770965576;0.0;0.0;0.0
487;0.0;0.0;0.0;0.03806399926543236;-0.00878399983048439;1.1663199663162231;0.0;0.0;0.0
489;0.0;0.0;0.0;0.057583998888731;-0.00878399983048439;1.1712000370025635;0.0;0.0;0.0
491;-0.0878399983048439;0.1483519971370697;1.0321199893951416;0.03415999934077263;-0.00878399983048439;1.1663199663162231;-7.301875114440918;-2.476249933242798;18.497499465942383
494;0.0;0.0;0.0;0.006831999868154526;0.006831999868154526;1.134112000465393;0.0;0.0;0.0
496;0.0;0.0;0.0;0.045871999114751816;-0.00878399983048439;1.1663199663162231;0.0;0.0;0.0
498;0.0;0.0;0.0;0.057583998888731;-0.00878399983048439;1.1624159812927246;0.0;0.0;0.0
500;-0.07637199759483337;0.12151199579238892;1.0333399772644043;0.049775999039411545;-0.05172799900174141;1.1546080112457275;-12.061875343322754;-9.896249771118164;21.087499618530273
502;0.0;0.0;0.0;0.045871999114751816;-0.032207999378442764;1.126304030418396;0.0;0.0;0.0
504;0.0;0.0;0.0;0.06929600238800049;-0.05563199892640114;1.1302080154418945;0.0;0.0;0.0
506;0.0;0.0;0.0;0.053679998964071274;-0.07124799489974976;1.134112000465393;0.0;0.0;0.0
508;-0.0605119988322258;0.07710400223731995;1.007964015007019;0.053679998964071274;-0.08686399459838867;1.10971200466156;-14.091875076293945;-15.426249504089355;23.1875
511;0.0;0.0;0.0;0.07320000231266022;-0.09467199444770813;1.1175199747085571;0.0;0.0;0.0
513;0.0;0.0;0.0;0.057583998888731;-0.10247999429702759;1.10971200466156;0.0;0.0;0.0
515;0.0;0.0;0.0;0.07320000231266022;-0.11028799414634705;1.097999930381775;0.0;0.0;0.0
517;-0.049531999975442886;0.03391600027680397;0.9791719913482666;0.08881600201129913;-0.11419199407100677;1.101904034614563;-12.901875495910645;-18.856250762939453;24.657501220703125
519;0.0;0.0;0.0;0.07320000231266022;-0.10247999429702759;1.085312008857727;0.0;0.0;0.0
521;0.0;0.0;0.0;0.09272000193595886;-0.12590399384498596;1.073599934577942;0.0;0.0;0.0
523;0.0;0.0;0.0;0.09272000193595886;-0.14151999354362488;1.060912013053894;0.0;0.0;0.0
525;-0.03952799737453461;0.01439599972218275;0.958187997341156;0.09272000193595886;-0.1180959939956665;1.0931199789047241;-9.681875228881836;-20.256250381469727;25.14750099182129
528;0.0;0.0;0.0;0.10833600163459778;-0.12590399384498596;1.0687199831008911;0.0;0.0;0.0
530;0.0;0.0;0.0;0.1268799901008606;-0.1298079937696457;1.097999930381775;0.0;0.0;0.0
532;0.0;0.0;0.0;0.0849120020866394;-0.11028799414634705;1.060912013053894;0.0;0.0;0.0
534;-0.025863999500870705;0.015371999703347683;0.9574559926986694;0.09272000193595886;-0.1180959939956665;1.0931199789047241;-6.181874752044678;-18.576250076293945;24.86750030517578
536;0.0;0.0;0.0;0.0849120020866394;-0.13371199369430542;1.085312008857727;0.0;0.0;0.0
538;0.0;0.0;0.0;0.12297599762678146;-0.10247999429702759;1.085312008857727;0.0;0.0;0.0
540;0.0;0.0;0.0;0.11224000155925751;-0.08686399459838867;1.0775039196014404;0.0;0.0;0.0
542;-0.014639999717473984;0.024887999519705772;0.9647759795188904;0.11907199770212173;-0.09857599437236786;1.0892159938812256;-3.661875009536743;-14.306249618530273;23.677499771118164
545;0.0;0.0;0.0;0.13859200477600098;-0.11028799414634705;1.0931199789047241;0.0;0.0;0.0
547;0.0;0.0;0.0;0.11126399785280228;-0.10247999429702759;1.097999930381775;0.0;0.0;0.0
549;0.0;0.0;0.0;0.1424959897994995;-0.07905599474906921;1.085312008857727;0.0;0.0;0.0
551;-0.004147999919950962;0.03684400022029877;0.9735599756240845;0.11126399785280228;-0.09857599437236786;1.0892159938812256;-2.8218748569488525;-10.176249504089355;23.11750030517578
553;0.0;0.0;0.0;0.10052800178527832;-0.08295999467372894;1.1058080196380615;0.0;0.0;0.0
555;0.0;0.0;0.0;0.1268799901008606;-0.09857599437236786;1.085312008857727;0.0;0.0;0.0
557;0.0;0.0;0.0;0.13078400492668152;-0.10638399422168732;1.0931199789047241;0.0;0.0;0.0
559;-0.0014639999717473984;0.040748000144958496;0.9701439738273621;0.11907199770212173;-0.09467199444770813;1.0726239681243896;-2.8218748569488525;-7.096250057220459;22.767499923706055
562;0.0;0.0;0.0;0.13078400492668152;-0.11028799414634705;1.0775039196014404;0.0;0.0;0.0
564;0.0;0.0;0.0;0.13078400492668152;-0.10247999429702759;1.0931199789047241;0.0;0.0;0.0
566;0.0;0.0;0.0;0.11907199770212173;-0.1180959939956665;1.0814080238342285;0.0;0.0;0.0
568;-0.003903999924659729;0.031964000314474106;0.9645319581031799;0.11126399785280228;-0.13371199369430542;1.101904034614563;-2.3318748474121094;-4.436249732971191;22.207500457763672
570;0.0;0.0;0.0;0.08881600201129913;-0.12199999392032623;1.085312008857727;0.0;0.0;0.0
572;0.0;0.0;0.0;0.12297599762678146;-0.11419199407100677;1.0814080238342285;0.0;0.0;0.0
574;0.0;0.0;0.0;0.10735999792814255;-0.12590399384498596;1.0687199831008911;0.0;0.0;0.0
576;-0.0058559998869895935;0.018055999651551247;0.9589200019836426;0.11126399785280228;-0.09857599437236786;1.101904034614563;-1.70187509059906;-1.0762499570846558;21.017499923706055
579;0.0;0.0;0.0;0.11907199770212173;-0.11028799414634705;1.0931199789047241;0.0;0.0;0.0
581;0.0;0.0;0.0;0.115167997777462;-0.1454239934682846;1.097999930381775;0.0;0.0;0.0
583;0.0;0.0;0.0;0.11907199770212173;-0.12590399384498596;1.0726239681243896;0.0;0.0;0.0
585;-0.01195599976927042;0.017324000597000122;0.961359977722168;0.15030398964881897;-0.11419199407100677;1.085312008857727;-0.6518750190734863;3.7537500858306885;18.637500762939453
587;0.0;0.0;0.0;0.10052800178527832;-0.13371199369430542;1.1058080196380615;0.0;0.0;0.0
589;0.0;0.0;0.0;0.11907199770212173;-0.11028799414634705;1.0931199789047241;0.0;0.0;0.0
591;0.0;0.0;0.0;0.10443200170993805;-0.1180959939956665;1.0931199789047241;0.0;0.0;0.0
593;-0.02147199958562851;0.01903199963271618;0.981611967086792;0.10735999792814255;-0.07905599474906921;1.122399926185608;-0.5818750262260437;8.233750343322754;15.907500267028809
596;0.0;0.0;0.0;0.08100800216197968;-0.10247999429702759;1.134112000465393;0.0;0.0;0.0
598;0.0;0.0;0.0;0.08100800216197968;-0.0907679945230484;1.1380159854888916;0.0;0.0;0.0
600;0.0;0.0;0.0;0.057583998888731;-0.0907679945230484;1.122399926185608;0.0;0.0;0.0
602;-0.062219999730587006;0.042211998254060745;1.0028399229049683;0.0302559994161129;-0.09467199444770813;1.1380159854888916;-1.421875;8.303750038146973;14.717500686645508
604;0.0;0.0;0.0;0.0302559994161129;-0.07515199482440948;1.150704026222229;0.0;0.0;0.0
606;0.0;0.0;0.0;0.018543999642133713;-0.07905599474906921;1.134112000465393;0.0;0.0;0.0
608;0.0;0.0;0.0;0.022447999566793442;-0.08295999467372894;1.1624159812927246;0.0;0.0;0.0
610;-0.08515600115060806;0.06148799881339073;1.02675199508667;0.02635199949145317;-0.07515199482440948;1.1663199663162231;-3.3118748664855957;5.083750247955322;13.59749984741211
613;0.0;0.0;0.0;0.02635199949145317;-0.07124799489974976;1.1712000370025635;0.0;0.0;0.0
615;0.0;0.0;0.0;0.022447999566793442;-0.07515199482440948;1.150704026222229;0.0;0.0;0.0
617;0.0;0.0;0.0;0.0302559994161129;-0.07905599474906921;1.158511996269226;0.0;0.0;0.0
619;-0.09125600010156631;0.06831999868154526;1.0377320051193237;0.0302559994161129;-0.05563199892640114;1.1712000370025635;-6.041874885559082;-0.09624999761581421;11.77750015258789
621;0.0;0.0;0.0;0.049775999039411545;-0.08295999467372894;1.150704026222229;0.0;0.0;0.0
623;0.0;0.0;0.0;0.022447999566793442;-0.0634399950504303;1.175104022026062;0.0;0.0;0.0
625;0.0;0.0;0.0;0.045871999114751816;-0.09467199444770813;1.175104022026062;0.0;0.0;0.0
628;-0.0861319974064827;0.06465999782085419;1.0348039865493774;0.06148799881339073;-0.07515199482440948;1.1712000370025635;-9.121875762939453;-6.186249732971191;10.447500228881836
630;0.0;0.0;0.0;0.04196799919009209;-0.07124799489974976;1.1546080112457275;0.0;0.0;0.0
632;0.0;0.0;0.0;0.07710400223731995;-0.08295999467372894;1.175104022026062;0.0;0.0;0.0
634;0.0;0.0;0.0;0.049775999039411545;-0.11028799414634705;1.1546080112457275;0.0;0.0;0.0
636;-0.07124799489974976;0.04294399917125702;1.0269960165023804;0.03806399926543236;-0.09857599437236786;1.150704026222229;-11.991875648498535;-12.90625;9.537500381469727
638;0.0;0.0;0.0;0.045871999114751816;-0.11419199407100677;1.1302080154418945;0.0;0.0;0.0
640;0.0;0.0;0.0;0.06929600238800049;-0.12590399384498596;1.1419199705123901;0.0;0.0;0.0
642;0.0;0.0;0.0;0.07320000231266022;-0.12199999392032623;1.1136159896850586;0.0;0.0;0.0
645;-0.054899998009204865;0.011467999778687954;1.0025960206985474;0.10052800178527832;-0.14151999354362488;1.134112000465393;-13.391875267028809;-18.576250076293945;8.557499885559082
647;0.0;0.0;0.0;0.09272000193595886;-0.11419199407100677;1.101904034614563;0.0;0.0;0.0
649;0.0;0.0;0.0;0.10052800178527832;-0.1454239934682846;1.126304030418396;0.0;0.0;0.0
651;0.0;0.0;0.0;0.0849120020866394;-0.1454239934682846;1.097999930381775;0.0;0.0;0.0
653;-0.03294000029563904;-0.010003999806940556;0.9833199977874756;0.10345599800348282;-0.16884799301624298;1.0892159938812256;-13.111875534057617;-20.396251678466797;7.437500476837158
655;0.0;0.0;0.0;0.09662400186061859;-0.16103999316692352;1.0931199789047241;0.0;0.0;0.0
657;0.0;0.0;0.0;0.10052800178527832;-0.14932799339294434;1.0892159938812256;0.0;0.0;0.0
659;0.0;0.0;0.0;0.11224000155925751;-0.1571359932422638;1.0814080238342285;0.0;0.0;0.0
662;-0.010247999802231789;-0.025863999500870705;0.9640439748764038;0.13859200477600098;-0.1727519929409027;1.0775039196014404;-11.431875228881836;-18.646251678466797;5.96750020980835
664;0.0;0.0;0.0;0.12297599762678146;-0.1571359932422638;1.085312008857727;0.0;0.0;0.0
666;0.0;0.0;0.0;0.13078400492668152;-0.1454239934682846;1.060912013053894;0.0;0.0;0.0
668;0.0;0.0;0.0;0.13078400492668152;-0.15323199331760406;1.0726239681243896;0.0;0.0;0.0
670;0.0058559998869895935;-0.026108000427484512;0.9569680094718933;0.1268799901008606;-0.13761599361896515;1.085312008857727;-8.91187572479248;-14.446249961853027;4.567500114440918
672;0.0;0.0;0.0;0.13859200477600098;-0.1454239934682846;1.085312008857727;0.0;0.0;0.0
674;0.0;0.0;0.0;0.13078400492668152;-0.14932799339294434;1.0892159938812256;0.0;0.0;0.0
676;0.0;0.0;0.0;0.13468798995018005;-0.16103999316692352;1.0775039196014404;0.0;0.0;0.0
679;0.015859998762607574;-0.023667998611927032;0.9564799666404724;0.16201600432395935;-0.16103999316692352;1.0775039196014404;-6.041874885559082;-9.40625;3.447499990463257
681;0.0;0.0;0.0;0.15811198949813843;-0.13371199369430542;1.0687199831008911;0.0;0.0;0.0
683;0.0;0.0;0.0;0.1542080044746399;-0.14932799339294434;1.0814080238342285;0.0;0.0;0.0
685;0.0;0.0;0.0;0.15811198949813843;-0.13761599361896515;1.0775039196014404;0.0;0.0;0.0
687;0.023667998611927032;-0.012199999764561653;0.9620919823646545;0.1268799901008606;-0.14151999354362488;1.10971200466156;-2.8218748569488525;-3.3862500190734863;3.1675000190734863
689;0.0;0.0;0.0;0.12297599762678146;-0.10638399422168732;1.0970239639282227;0.0;0.0;0.0
691;0.0;0.0;0.0;0.11907199770212173;-0.12199999392032623;1.0970239639282227;0.0;0.0;0.0
693;0.0;0.0;0.0;0.08881600201129913;-0.10638399422168732;1.097999930381775;0.0;0.0;0.0
696;-0.01878799870610237;0.009027999825775623;0.9794159531593323;0.09662400186061859;-0.10638399422168732;1.122399926185608;-1.071874976158142;1.3737499713897705;2.3975000381469727
698;0.0;0.0;0.0;0.0849120020866394;-0.12590399384498596;1.126304030418396;0.0;0.0;0.0
700;0.0;0.0;0.0;0.06539200246334076;-0.13371199369430542;1.10971200466156;0.0;0.0;0.0
702;0.0;0.0;0.0;0.04196799919009209;-0.1298079937696457;1.1419199705123901;0.0;0.0;0.0
704;-0.06319599598646164;0.015615999698638916;0.9979599714279175;0.03806399926543236;-0.1298079937696457;1.126304030418396;-1.6318750381469727;0.8837500214576721;0.29749998450279236
706;0.0;0.0;0.0;0.02635199949145317;-0.11028799414634705;1.134112000465393;0.0;0.0;0.0
708;0.0;0.0;0.0;0.018543999642133713;-0.11028799414634705;1.134112000465393;0.0;0.0;0.0
710;0.0;0.0;0.0;0.04196799919009209;-0.1180959939956665;1.150704026222229;0.0;0.0;0.0
713;-0.0849120020866394;0.012931999750435352;1.0072319507598877;0.006831999868154526;-0.12199999392032623;1.150704026222229;-3.731874942779541;-3.666249990463257;-2.2925000190734863
715;0.0;0.0;0.0;0.02635199949145317;-0.0907679945230484;1.1624159812927246;0.0;0.0;0.0
717;0.0;0.0;0.0;0.057583998888731;-0.10247999429702759;1.134112000465393;0.0;0.0;0.0
719;0.0;0.0;0.0;0.03415999934077263;-0.1180959939956665;1.1546080112457275;0.0;0.0;0.0
721;-0.08393599838018417;0.014151999726891518;1.012112021446228;0.0849120020866394;-0.11028799414634705;1.1663199663162231;-6.39187479019165;-9.476249694824219;-5.372499942779541
723;0.0;0.0;0.0;0.06539200246334076;-0.13371199369430542;1.126304030418396;0.0;0.0;0.0
725;0.0;0.0;0.0;0.06148799881339073;-0.1180959939956665;1.146799921989441;0.0;0.0;0.0
727;0.0;0.0;0.0;0.06929600238800049;-0.14151999354362488;1.1175199747085571;0.0;0.0;0.0
730;-0.05441199988126755;0.017079999670386314;1.010159969329834;0.057583998888731;-0.10638399422168732;1.122399926185608;-8.9818754196167;-13.116250038146973;-8.032500267028809
732;0.0;0.0;0.0;0.08100800216197968;-0.12199999392032623;1.122399926185608;0.0;0.0;0.0
734;0.0;0.0;0.0;0.08100800216197968;-0.11028799414634705;1.1302080154418945;0.0;0.0;0.0
736;0.0;0.0;0.0;0.08100800216197968;-0.10247999429702759;1.1302080154418945;0.0;0.0;0.0
738;-0.024399999529123306;0.01756799966096878;1.0072319507598877;0.12297599762678146;-0.1180959939956665;1.1380159854888916;-10.7318754196167;-13.886249542236328;-9.572500228881836
740;0.0;0.0;0.0;0.12297599762678146;-0.10638399422168732;1.1302080154418945;0.0;0.0;0.0
742;0.0;0.0;0.0;0.115167997777462;-0.11028799414634705;1.101904034614563;0.0;0.0;0.0
744;0.0;0.0;0.0;0.1424959897994995;-0.13761599361896515;1.0970239639282227;0.0;0.0;0.0
747;-0.0007319999858736992;0.010003999806940556;1.0003999471664429;0.15811198949813843;-0.11028799414634705;1.126304030418396;-11.921875;-12.696249961853027;-10.482500076293945
749;0.0;0.0;0.0;0.13078400492668152;-0.11028799414634705;1.126304030418396;0.0;0.0;0.0
751;0.0;0.0;0.0;0.14640000462532043;-0.14151999354362488;1.1058080196380615;0.0;0.0;0.0
753;0.0;0.0;0.0;0.1698240041732788;-0.14151999354362488;1.101904034614563;0.0;0.0;0.0
755;0.02147199958562851;-0.0019519999623298645;0.982587993144989;0.13859200477600098;-0.13371199369430542;1.0970239639282227;-12.131875038146973;-10.176249504089355;-10.97249984741211
757;0.0;0.0;0.0;0.1424959897994995;-0.13371199369430542;1.085312008857727;0.0;0.0;0.0
759;0.0;0.0;0.0;0.15030398964881897;-0.1454239934682846;1.0892159938812256;0.0;0.0;0.0
761;0.0;0.0;0.0;0.15811198949813843;-0.13761599361896515;1.0931199789047241;0.0;0.0;0.0
764;0.03513599932193756;-0.008295999839901924;0.9591639637947083;0.14640000462532043;-0.1298079937696457;1.0775039196014404;-10.941875457763672;-7.236249923706055;-9.992499351501465
766;0.0;0.0;0.0;0.15811198949813843;-0.15323199331760406;1.085312008857727;0.0;0.0;0.0
768;0.0;0.0;0.0;0.16201600432395935;-0.14932799339294434;1.0775039196014404;0.0;0.0;0.0
770;0.0;0.0;0.0;0.1815359890460968;-0.14932799339294434;1.0726239681243896;0.0;0.0;0.0
772;0.03928399831056595;-0.010491999797523022;0.9596520066261292;0.16201600432395935;-0.13371199369430542;1.0687199831008911;-8.281875610351562;-4.016250133514404;-7.822499752044678
774;0.0;0.0;0.0;0.1698240041732788;-0.11028799414634705;1.1175199747085571;0.0;0.0;0.0
776;0.0;0.0;0.0;0.13078400492668152;-0.11419199407100677;1.0892159938812256;0.0;0.0;0.0
778;0.0;0.0;0.0;0.1542080044746399;-0.11419199407100677;1.1175199747085571;0.0;0.0;0.0
781;0.023667998611927032;0.0024399999529123306;0.974291980266571;0.14640000462532043;-0.11419199407100677;1.10971200466156;-4.64187479019165;-2.966249942779541;-5.652499675750732
783;0.0;0.0;0.0;0.13468798995018005;-0.12199999392032623;1.126304030418396;0.0;0.0;0.0
785;0.0;0.0;0.0;0.1424959897994995;-0.11028799414634705;1.122399926185608;0.0;0.0;0.0
787;0.0;0.0;0.0;0.13859200477600098;-0.13761599361896515;1.10971200466156;0.0;0.0;0.0
789;0.019519999623298645;0.01634800061583519;0.9884439706802368;0.15811198949813843;-0.10247999429702759;1.1380159854888916;-1.2818750143051147;-5.066249847412109;-3.132499933242798
791;0.0;0.0;0.0;0.13078400492668152;-0.11419199407100677;1.1058080196380615;0.0;0.0;0.0
793;0.0;0.0;0.0;0.17763200402259827;-0.10638399422168732;1.101904034614563;0.0;0.0;0.0
795;0.0;0.0;0.0;0.1424959897994995;-0.11419199407100677;1.1302080154418945;0.0;0.0;0.0
798;0.03367199748754501;0.024156000465154648;0.9962520003318787;0.13859200477600098;-0.11028799414634705;1.1136159896850586;1.6581250429153442;-10.176249504089355;0.9275000095367432
800;0.0;0.0;0.0;0.1698240041732788;-0.09467199444770813;1.1058080196380615;0.0;0.0;0.0
802;0.0;0.0;0.0;0.1542080044746399;-0.11419199407100677;1.0931199789047241;0.0;0.0;0.0
804;0.0;0.0;0.0;0.1698240041732788;-0.10638399422168732;1.1136159896850586;0.0;0.0;0.0
806;0.04123599827289581;0.02122800052165985;0.9928359985351562;0.14640000462532043;-0.10638399422168732;1.1302080154418945;4.388124942779541;-13.4662504196167;5.127500057220459
808;0.0;0.0;0.0;0.16201600432395935;-0.08295999467372894;1.126304030418396;0.0;0.0;0.0
810;0.0;0.0;0.0;0.16201600432395935;-0.13761599361896515;1.126304030418396;0.0;0.0;0.0
813;0.0;0.0;0.0;0.15811198949813843;-0.11419199407100677;1.134112000465393;0.0;0.0;0.0
815;0.03367199748754501;0.018300000578165054;0.9957639575004578;0.16201600432395935;-0.11028799414634705;1.1419199705123901;5.578125;-12.556249618530273;7.577500343322754
817;0.0;0.0;0.0;0.1424959897994995;-0.09467199444770813;1.1136159896850586;0.0;0.0;0.0
819;0.0;0.0;0.0;0.13859200477600098;-0.1180959939956665;1.146799921989441;0.0;0.0;0.0
821;0.0;0.0;0.0;0.13078400492668152;-0.12590399384498596;1.1419199705123901;0.0;0.0;0.0
823;0.02391199953854084;0.026839999482035637;1.0104039907455444;0.1698240041732788;-0.13371199369430542;1.150704026222229;4.178124904632568;-9.686249732971191;7.927500247955322
825;0.0;0.0;0.0;0.17763200402259827;-0.08295999467372894;1.150704026222229;0.0;0.0;0.0
827;0.0;0.0;0.0;0.1542080044746399;-0.08686399459838867;1.158511996269226;0.0;0.0;0.0
830;0.0;0.0;0.0;0.14640000462532043;-0.10638399422168732;1.1419199705123901;0.0;0.0;0.0
832;0.020739998668432236;0.029279999434947968;1.0218719244003296;0.13468798995018005;-0.10638399422168732;1.1380159854888916;0.2581250071525574;-6.396249771118164;6.80750036239624
834;0.0;0.0;0.0;0.13468798995018005;-0.10247999429702759;1.150704026222229;0.0;0.0;0.0
836;0.0;0.0;0.0;0.13078400492668152;-0.09857599437236786;1.1546080112457275;0.0;0.0;0.0
838;0.0;0.0;0.0;0.115167997777462;-0.11419199407100677;1.1624159812927246;0.0;0.0;0.0
840;0.005367999896407127;0.022204000502824783;1.019919991493225;0.13468798995018005;-0.12199999392032623;1.134112000465393;-3.591874837875366;-3.8762497901916504;5.197500228881836
842;0.0;0.0;0.0;0.0849120020866394;-0.1298079937696457;1.146799921989441;0.0;0.0;0.0
844;0.0;0.0;0.0;0.07710400223731995;-0.11419199407100677;1.1302080154418945;0.0;0.0;0.0
846;0.0;0.0;0.0;0.0849120020866394;-0.11028799414634705;1.134112000465393;0.0;0.0;0.0
849;-0.018543999642133713;0.009759999811649323;1.0116239786148071;0.10345599800348282;-0.12590399384498596;1.122399926185608;-6.041874885559082;-4.506249904632568;4.357500076293945
851;0.0;0.0;0.0;0.09662400186061859;-0.12199999392032623;1.122399926185608;0.0;0.0;0.0
853;0.0;0.0;0.0;0.08881600201129913;-0.13761599361896515;1.126304030418396;0.0;0.0;0.0
855;0.0;0.0;0.0;0.09955199807882309;-0.12590399384498596;1.126304030418396;0.0;0.0;0.0
857;-0.027327999472618103;0.0021959999576210976;0.9933239817619324;0.08100800216197968;-0.1454239934682846;1.1058080196380615;-6.461874961853027;-8.706250190734863;3.867500066757202
859;0.0;0.0;0.0;0.10052800178527832;-0.1180959939956665;1.1058080196380615;0.0;0.0;0.0
861;0.0;0.0;0.0;0.11126399785280228;-0.13761599361896515;1.0892159938812256;0.0;0.0;0.0
864;0.0;0.0;0.0;0.11907199770212173;-0.10247999429702759;1.1136159896850586;0.0;0.0;0.0
866;-0.0026839999482035637;0.0026839999482035637;0.9711199998855591;0.14640000462532043;-0.13761599361896515;1.097999930381775;-5.131875038146973;-12.976249694824219;3.307500123977661
868;0.0;0.0;0.0;0.14640000462532043;-0.1180959939956665;1.0814080238342285;0.0;0.0;0.0
870;0.0;0.0;0.0;0.16201600432395935;-0.11419199407100677;1.0775039196014404;0.0;0.0;0.0
872;0.0;0.0;0.0;0.14640000462532043;-0.13371199369430542;1.0814080238342285;0.0;0.0;0.0
874;0.028060000389814377;0.011467999778687954;0.9535520076751709;0.13859200477600098;-0.13371199369430542;1.0687199831008911;-3.3818750381469727;-13.606249809265137;2.887500047683716
876;0.0;0.0;0.0;0.1542080044746399;-0.11419199407100677;1.060912013053894;0.0;0.0;0.0
878;0.0;0.0;0.0;0.16591998934745789;-0.10638399422168732;1.0531039237976074;0.0;0.0;0.0
881;0.0;0.0;0.0;0.19715198874473572;-0.11028799414634705;1.0687199831008911;0.0;0.0;0.0
883;0.04562800005078316;0.0226919986307621;0.9418399930000305;0.17763200402259827;-0.11028799414634705;1.0687199831008911;-1.6318750381469727;-9.266249656677246;2.5374999046325684
885;0.0;0.0;0.0;0.16201600432395935;-0.09857599437236786;1.0814080238342285;0.0;0.0;0.0
887;0.0;0.0;0.0;0.1698240041732788;-0.09857599437236786;1.0814080238342285;0.0;0.0;0.0
889;0.0;0.0;0.0;0.1542080044746399;-0.08686399459838867;1.0775039196014404;0.0;0.0;0.0
891;0.03684400022029877;0.04050400108098984;0.9528200030326843;0.15811198949813843;-0.07124799489974976;1.085312008857727;-0.3018749952316284;-1.496250033378601;2.257499933242798
894;0.0;0.0;0.0;0.15030398964881897;-0.0907679945230484;1.0892159938812256;0.0;0.0;0.0
895;0.0;0.0;0.0;0.11907199770212173;-0.08686399459838867;1.10971200466156;0.0;0.0;0.0
898;0.0;0.0;0.0;0.13859200477600098;-0.07515199482440948;1.1175199747085571;0.0;0.0;0.0
900;0.01756799966096878;0.050995998084545135;0.9779520034790039;0.10443200170993805;-0.08295999467372894;1.122399926185608;0.18812501430511475;5.853750228881836;1.627500057220459
902;0.0;0.0;0.0;0.13078400492668152;-0.07905599474906921;1.1175199747085571;0.0;0.0;0.0
904;0.0;0.0;0.0;0.10443200170993805;-0.04782399907708168;1.126304030418396;0.0;0.0;0.0
906;0.0;0.0;0.0;0.08881600201129913;-0.05172799900174141;1.1458239555358887;0.0;0.0;0.0
908;-0.0058559998869895935;0.06783200055360794;1.0086959600448608;0.08881600201129913;-0.06734399497509003;1.150704026222229;-0.16187499463558197;10.4037504196167;0.997499942779541
910;0.0;0.0;0.0;0.115167997777462;-0.05563199892640114;1.158511996269226;0.0;0.0;0.0
912;0.0;0.0;0.0;0.10345599800348282;-0.0634399950504303;1.150704026222229;0.0;0.0;0.0
915;0.0;0.0;0.0;0.11126399785280228;-0.01659199967980385;1.1868159770965576;0.0;0.0;0.0
917;-0.018543999642133713;0.08003199845552444;1.04066002368927;0.0849120020866394;-0.05953599885106087;1.1546080112457275;-1.421875;11.033750534057617;1.6974999904632568
919;0.0;0.0;0.0;0.10735999792814255;-0.04001599922776222;1.182911992073059;0.0;0.0;0.0
921;0.0;0.0;0.0;0.06148799881339073;-0.05953599885106087;1.1868159770965576;0.0;0.0;0.0
923;0.0;0.0;0.0;0.07710400223731995;-0.05563199892640114;1.1712000370025635;0.0;0.0;0.0
925;-0.04294399917125702;0.08173999935388565;1.0543240308761597;0.057583998888731;-0.07124799489974976;1.1868159770965576;-3.101874828338623;5.223750114440918;3.5174999237060547
927;0.0;0.0;0.0;0.057583998888731;-0.07124799489974976;1.175104022026062;0.0;0.0;0.0
929;0.0;0.0;0.0;0.06929600238800049;-0.05953599885106087;1.1956000328063965;0.0;0.0;0.0
932;0.0;0.0;0.0;0.07320000231266022;-0.04782399907708168;1.1712000370025635;0.0;0.0;0.0
934;-0.050995998084545135;0.07320000231266022;1.0535919666290283;0.06539200246334076;-0.04782399907708168;1.175104022026062;-4.011875152587891;-4.086249828338623;5.197500228881836
936;0.0;0.0;0.0;0.06148799881339073;-0.07515199482440948;1.1712000370025635;0.0;0.0;0.0
938;0.0;0.0;0.0;0.09174399822950363;-0.07905599474906921;1.1624159812927246;0.0;0.0;0.0
940;0.0;0.0;0.0;0.10833600163459778;-0.09467199444770813;1.1546080112457275;0.0;0.0;0.0
942;-0.03294000029563904;0.06758800148963928;1.0418800115585327;0.10735999792814255;-0.08295999467372894;1.146799921989441;-4.64187479019165;-12.836250305175781;6.6675004959106445
944;0.0;0.0;0.0;0.1268799901008606;-0.08686399459838867;1.158511996269226;0.0;0.0;0.0
946;0.0;0.0;0.0;0.115167997777462;-0.06734399497509003;1.146799921989441;0.0;0.0;0.0
949;0.0;0.0;0.0;0.08881600201129913;-0.07515199482440948;1.1624159812927246;0.0;0.0;0.0
951;-0.01659199967980385;0.0663679987192154;1.0238239765167236;0.11224000155925751;-0.07515199482440948;1.1380159854888916;-5.621874809265137;-19.066251754760742;8.137499809265137
953;0.0;0.0;0.0;0.10052800178527832;-0.07515199482440948;1.134112000465393;0.0;0.0;0.0
955;0.0;0.0;0.0;0.1268799901008606;-0.05563199892640114;1.1136159896850586;0.0;0.0;0.0
957;0.0;0.0;0.0;0.115167997777462;-0.06734399497509003;1.1302080154418945;0.0;0.0;0.0
959;-0.004391999915242195;0.05245999991893768;0.9991799592971802;0.115167997777462;-0.08295999467372894;1.134112000465393;-7.371874809265137;-23.686250686645508;8.907500267028809
961;0.0;0.0;0.0;0.13078400492668152;-0.12590399384498596;1.0814080238342285;0.0;0.0;0.0
963;0.0;0.0;0.0;0.115167997777462;-0.11419199407100677;1.0970239639282227;0.0;0.0;0.0
966;0.0;0.0;0.0;0.14640000462532043;-0.1180959939956665;1.097999930381775;0.0;0.0;0.0
968;0.014883999712765217;0.023423999547958374;0.9716079831123352;0.14640000462532043;-0.1180959939956665;1.0814080238342285;-8.91187572479248;-25.016250610351562;8.34749984741211
970;0.0;0.0;0.0;0.16591998934745789;-0.14151999354362488;1.0648159980773926;0.0;0.0;0.0
972;0.0;0.0;0.0;0.17372798919677734;-0.1180959939956665;1.0648159980773926;0.0;0.0;0.0
974;0.0;0.0;0.0;0.15811198949813843;-0.14932799339294434;1.0775039196014404;0.0;0.0;0.0
976;0.04123599827289581;-0.0017079999670386314;0.9418399930000305;0.16591998934745789;-0.13371199369430542;1.0326080322265625;-8.9818754196167;-21.096250534057617;6.457500457763672
978;0.0;0.0;0.0;0.17372798919677734;-0.1571359932422638;1.036512017250061;0.0;0.0;0.0
980;0.0;0.0;0.0;0.17372798919677734;-0.14151999354362488;1.0482239723205566;0.0;0.0;0.0
983;0.0;0.0;0.0;0.18934398889541626;-0.11028799414634705;1.0404160022735596;0.0;0.0;0.0
985;0.06002400070428848;-0.013907999731600285;0.9159759879112244;0.19324800372123718;-0.15323199331760406;1.0404160022735596;-7.231874942779541;-14.446249961853027;3.9375
987;0.0;0.0;0.0;0.2088640034198761;-0.16103999316692352;1.036512017250061;0.0;0.0;0.0
989;0.0;0.0;0.0;0.20495998859405518;-0.16103999316692352;1.0247999429702759;0.0;0.0;0.0
991;0.0;0.0;0.0;0.2205759882926941;-0.15323199331760406;1.0082080364227295;0.0;0.0;0.0
993;0.07612799853086472;-0.010247999802231789;0.9013359546661377;0.2088640034198761;-0.13371199369430542;1.0326080322265625;-4.571875095367432;-6.816249847412109;2.9574999809265137
996;0.0;0.0;0.0;0.20495998859405518;-0.12590399384498596;1.0238239765167236;0.0;0.0;0.0
997;0.0;0.0;0.0;0.19715198874473572;-0.12590399384498596;1.044319987297058;0.0;0.0;0.0
1000;0.0;0.0;0.0;0.21276798844337463;-0.1298079937696457;1.0531039237976074;0.0;0.0;0.0
1002;0.08759599924087524;0.013907999731600285;0.9157319664955139;0.22838398814201355;-0.09857599437236786;1.0531039237976074;-1.071874976158142;0.8137500286102295;4.077500343322754
1004;0.0;0.0;0.0;0.19715198874473572;-0.07515199482440948;1.060912013053894;0.0;0.0;0.0
1006;0.0;0.0;0.0;0.18934398889541626;-0.1180959939956665;1.0648159980773926;0.0;0.0;0.0
1008;0.0;0.0;0.0;0.16591998934745789;-0.07124799489974976;1.0931199789047241;0.0;0.0;0.0
1010;0.07197999954223633;0.047091998159885406;0.9496479630470276;0.15811198949813843;-0.07515199482440948;1.1136159896850586;1.3781249523162842;6.693750381469727;6.247500419616699
1013;0.0;0.0;0.0;0.19715198874473572;-0.08686399459838867;1.1184959411621094;0.0;0.0;0.0
1014;0.0;0.0;0.0;0.15811198949813843;-0.08295999467372894;1.122399926185608;0.0;0.0;0.0
1017;0.0;0.0;0.0;0.15811198949813843;-0.07124799489974976;1.1302080154418945;0.0;0.0;0.0
1019;0.04050400108098984;0.05636399984359741;1.0001559257507324;0.10735999792814255;-0.08686399459838867;1.1428959369659424;1.238124966621399;9.49375057220459;8.27750015258789
1021;0.0;0.0;0.0;0.13859200477600098;-0.05563199892640114;1.1419199705123901;0.0;0.0;0.0
1023;0.0;0.0;0.0;0.1268799901008606;-0.0907679945230484;1.146799921989441;0.0;0.0;0.0
1025;0.0;0.0;0.0;0.11126399785280228;-0.07515199482440948;1.175104022026062;0.0;0.0;0.0
1027;-0.0019519999623298645;0.050995998084545135;1.0313879251480103;0.10735999792814255;-0.09467199444770813;1.1702239513397217;-1.0018750429153442;8.233750343322754;9.117500305175781
1029;0.0;0.0;0.0;0.08881600201129913;-0.08295999467372894;1.1624159812927246;0.0;0.0;0.0
1031;0.0;0.0;0.0;0.10735999792814255;-0.11028799414634705;1.1546080112457275;0.0;0.0;0.0
1034;0.0;0.0;0.0;0.09955199807882309;-0.13761599361896515;1.1546080112457275;0.0;0.0;0.0
1036;-0.026108000427484512;0.033427998423576355;1.0369999408721924;0.09662400186061859;-0.11028799414634705;1.1790080070495605;-4.011875152587891;4.033750057220459;8.767499923706055
1038;0.0;0.0;0.0;0.10443200170993805;-0.11419199407100677;1.175104022026062;0.0;0.0;0.0
1040;0.0;0.0;0.0;0.09955199807882309;-0.1180959939956665;1.1428959369659424;0.0;0.0;0.0
1042;0.0;0.0;0.0;0.12297599762678146;-0.13761599361896515;1.1663199663162231;0.0;0.0;0.0
1044;-0.010735999792814255;0.009027999825775623;1.034559965133667;0.10052800178527832;-0.16103999316692352;1.1663199663162231;-6.951874732971191;-2.5462498664855957;8.137499809265137
1047;0.0;0.0;0.0;0.13078400492668152;-0.13761599361896515;1.146799921989441;0.0;0.0;0.0
1049;0.0;0.0;0.0;0.14640000462532043;-0.13371199369430542;1.1380159854888916;0.0;0.0;0.0
1051;0.0;0.0;0.0;0.15030398964881897;-0.14932799339294434;1.146799921989441;0.0;0.0;0.0
1053;0.024156000465154648;-0.013419999741017818;1.0155279636383057;0.16201600432395935;-0.13761599361896515;1.1302080154418945;-8.631875038146973;-9.336250305175781;8.557499885559082
1055;0.0;0.0;0.0;0.16591998934745789;-0.1454239934682846;1.101904034614563;0.0;0.0;0.0
1057;0.0;0.0;0.0;0.18544000387191772;-0.1727519929409027;1.1380159854888916;0.0;0.0;0.0
1059;0.0;0.0;0.0;0.20105600357055664;-0.17665599286556244;1.1175199747085571;0.0;0.0;0.0
1061;0.05636399984359741;-0.040748000144958496;0.9879559874534607;0.20495998859405518;-0.16103999316692352;1.097999930381775;-8.91187572479248;-12.556249618530273;8.83750057220459
1063;0.0;0.0;0.0;0.19715198874473572;-0.19227199256420135;1.0862879753112793;0.0;0.0;0.0
1066;0.0;0.0;0.0;0.20105600357055664;-0.2000799924135208;1.0901919603347778;0.0;0.0;0.0
1068;0.0;0.0;0.0;0.21667200326919556;-0.20398399233818054;1.097999930381775;0.0;0.0;0.0
1070;0.08442399650812149;-0.0727119967341423;0.9637999534606934;0.20105600357055664;-0.21959999203681946;1.0862879753112793;-7.581874847412109;-9.896249771118164;8.557499885559082
1072;0.0;0.0;0.0;0.22448000311851501;-0.23131199181079865;1.0618879795074463;0.0;0.0;0.0
1074;0.0;0.0;0.0;0.18544000387191772;-0.23131199181079865;1.0901919603347778;0.0;0.0;0.0
1076;0.0;0.0;0.0;0.21276798844337463;-0.21959999203681946;1.0618879795074463;0.0;0.0;0.0
1078;0.09223199635744095;-0.09272000193595886;0.9459879994392395;0.22838398814201355;-0.2391199916601181;1.0531039237976074;-4.921875;-3.1762499809265137;7.157500267028809
1081;0.0;0.0;0.0;0.21667200326919556;-0.2391199916601181;1.085312008857727;0.0;0.0;0.0
1083;0.0;0.0;0.0;0.2088640034198761;-0.23521599173545837;1.0687199831008911;0.0;0.0;0.0
1085;0.0;0.0;0.0;0.19715198874473572;-0.2508319914340973;1.060912013053894;0.0;0.0;0.0
1087;0.08466799557209015;-0.09857599437236786;0.9396439790725708;0.20495998859405518;-0.21569599211215973;1.0775039196014404;-1.421875;3.8237500190734863;5.757500171661377
1089;0.0;0.0;0.0;0.20105600357055664;-0.2235039919614792;1.0775039196014404;0.0;0.0;0.0
1091;0.0;0.0;0.0;0.20495998859405518;-0.21959999203681946;1.0687199831008911;0.0;0.0;0.0
1093;0.0;0.0;0.0;0.19324800372123718;-0.21959999203681946;1.0687199831008911;0.0;0.0;0.0
1095;0.07197999954223633;-0.08881600201129913;0.9513559937477112;0.1698240041732788;-0.20788799226284027;1.101904034614563;1.8681249618530273;8.373749732971191;4.917500019073486
1098;0.0;0.0;0.0;0.17372798919677734;-0.2000799924135208;1.101904034614563;0.0;0.0;0.0
1100;0.0;0.0;0.0;0.1815359890460968;-0.18836799263954163;1.1058080196380615;0.0;0.0;0.0
1102;0.0;0.0;0.0;0.20105600357055664;-0.18836799263954163;1.1136159896850586;0.0;0.0;0.0
1104;0.06392800062894821;-0.07124799489974976;0.9750239849090576;0.1698240041732788;-0.20398399233818054;1.1175199747085571;4.318125247955322;9.913749694824219;4.707500457763672
1106;0.0;0.0;0.0;0.1815359890460968;-0.18836799263954163;1.122399926185608;0.0;0.0;0.0
1108;0.0;0.0;0.0;0.17763200402259827;-0.20398399233818054;1.1380159854888916;0.0;0.0;0.0
1110;0.0;0.0;0.0;0.1698240041732788;-0.1844639927148819;1.1663199663162231;0.0;0.0;0.0
1112;0.045871999114751816;-0.05660799890756607;1.0030839443206787;0.16201600432395935;-0.18836799263954163;1.134112000465393;5.298125267028809;9.49375057220459;5.127500057220459
1115;0.0;0.0;0.0;0.18934398889541626;-0.2000799924135208;1.134112000465393;0.0;0.0;0.0
1117;0.0;0.0;0.0;0.14640000462532043;-0.18055999279022217;1.1546080112457275;0.0;0.0;0.0
1119;0.0;0.0;0.0;0.13859200477600098;-0.19617599248886108;1.158511996269226;0.0;0.0;0.0
1121;0.02391199953854084;-0.0500199981033802;1.0265079736709595;0.13468798995018005;-0.1844639927148819;1.1546080112457275;4.248125076293945;7.253750324249268;4.917500019073486
1123;0.0;0.0;0.0;0.13468798995018005;-0.17665599286556244;1.1663199663162231;0.0;0.0;0.0
1125;0.0;0.0;0.0;0.115167997777462;-0.1844639927148819;1.1868159770965576;0.0;0.0;0.0
1127;0.0;0.0;0.0;0.13859200477600098;-0.19617599248886108;1.1702239513397217;0.0;0.0;0.0
1129;0.01195599976927042;-0.05245999991893768;1.038219928741455;0.10443200170993805;-0.19617599248886108;1.1663199663162231;1.9381250143051147;4.033750057220459;3.797499895095825
1132;0.0;0.0;0.0;0.13859200477600098;-0.19227199256420135;1.1624159812927246;0.0;0.0;0.0
1134;0.0;0.0;0.0;0.12297599762678146;-0.20788799226284027;1.182911992073059;0.0;0.0;0.0
1136;0.0;0.0;0.0;0.13468798995018005;-0.2235039919614792;1.1546080112457275;0.0;0.0;0.0
1138;0.012199999764561653;-0.06368400156497955;1.0372439622879028;0.1268799901008606;-0.19227199256420135;1.1790080070495605;-1.0018750429153442;1.6537500619888306;2.117500066757202
1140;0.0;0.0;0.0;0.115167997777462;-0.2117919921875;1.1624159812927246;0.0;0.0;0.0
1142;0.0;0.0;0.0;0.16201600432395935;-0.23521599173545837;1.1663199663162231;0.0;0.0;0.0
1144;0.0;0.0;0.0;0.11907199770212173;-0.2117919921875;1.158511996269226;0.0;0.0;0.0
1146;0.016103999689221382;-0.0710039958357811;1.030411958694458;0.1424959897994995;-0.20788799226284027;1.1458239555358887;-3.241874933242798;2.0737500190734863;0.4375
1149;0.0;0.0;0.0;0.13078400492668152;-0.2117919921875;1.1302080154418945;0.0;0.0;0.0
1151;0.0;0.0;0.0;0.13078400492668152;-0.2235039919614792;1.122399926185608;0.0;0.0;0.0
1153;0.0;0.0;0.0;0.1424959897994995;-0.20398399233818054;1.1663199663162231;0.0;0.0;0.0
1155;0.01634800061583519;-0.06783200055360794;1.0155279636383057;0.13078400492668152;-0.20788799226284027;1.146799921989441;-4.221874713897705;2.0037500858306885;-0.8224999904632568
1157;0.0;0.0;0.0;0.115167997777462;-0.18055999279022217;1.146799921989441;0.0;0.0;0.0
1159;0.0;0.0;0.0;0.14640000462532043;-0.2117919921875;1.122399926185608;0.0;0.0;0.0
1161;0.0;0.0;0.0;0.1424959897994995;-0.16884799301624298;1.150704026222229;0.0;0.0;0.0
1163;0.015859998762607574;-0.0558759979903698;1.0074759721755981;0.15811198949813843;-0.17665599286556244;1.126304030418396;-4.151875019073486;-0.3062500059604645;-1.1725000143051147
1166;0.0;0.0;0.0;0.12004800140857697;-0.1844639927148819;1.1302080154418945;0.0;0.0;0.0
1168;0.0;0.0;0.0;0.1424959897994995;-0.15323199331760406;1.1419199705123901;0.0;0.0;0.0
1170;0.0;0.0;0.0;0.16201600432395935;-0.18055999279022217;1.1302080154418945;0.0;0.0;0.0
1172;0.02147199958562851;-0.0378200002014637;1.0043039321899414;0.1542080044746399;-0.16884799301624298;1.126304030418396;-4.291874885559082;-3.7362499237060547;-0.5425000190734863
1174;0.0;0.0;0.0;0.16201600432395935;-0.16494399309158325;1.134112000465393;0.0;0.0;0.0
1176;0.0;0.0;0.0;0.16591998934745789;-0.15323199331760406;1.1175199747085571;0.0;0.0;0.0
1178;0.0;0.0;0.0;0.1698240041732788;-0.16494399309158325;1.126304030418396;0.0;0.0;0.0
1180;0.033427998423576355;-0.03367199748754501;0.9911279678344727;0.16591998934745789;-0.16103999316692352;1.0931199789047241;-4.711874961853027;-7.166249752044678;0.5074999928474426
1183;0.0;0.0;0.0;0.15030398964881897;-0.17665599286556244;1.0931199789047241;0.0;0.0;0.0
1185;0.0;0.0;0.0;0.17763200402259827;-0.1727519929409027;1.101904034614563;0.0;0.0;0.0
1187;0.0;0.0;0.0;0.18544000387191772;-0.1844639927148819;1.101904034614563;0.0;0.0;0.0
1189;0.05148399993777275;-0.046115998178720474;0.9718520045280457;0.18544000387191772;-0.2117919921875;1.0814080238342285;-4.64187479019165;-8.8462495803833;1.277500033378601
1191;0.0;0.0;0.0;0.1815359890460968;-0.22740799188613892;1.085312008857727;0.0;0.0;0.0
1193;0.0;0.0;0.0;0.18544000387191772;-0.21569599211215973;1.085312008857727;0.0;0.0;0.0
1195;0.0;0.0;0.0;0.20495998859405518;-0.23521599173545837;1.097999930381775;0.0;0.0;0.0
1197;0.06954000145196915;-0.06905199587345123;0.9559919834136963;0.19324800372123718;-0.23521599173545837;1.0892159938812256;-4.011875152587891;-8.8462495803833;1.2074999809265137
1200;0.0;0.0;0.0;0.18934398889541626;-0.21569599211215973;1.0648159980773926;0.0;0.0;0.0
1202;0.0;0.0;0.0;0.20495998859405518;-0.2117919921875;1.0892159938812256;0.0;0.0;0.0
1204;0.0;0.0;0.0;0.20495998859405518;-0.22740799188613892;1.0814080238342285;0.0;0.0;0.0
1206;0.08466799557209015;-0.09125600010156631;0.9474520087242126;0.2205759882926941;-0.23131199181079865;1.0687199831008911;-3.101874828338623;-8.8462495803833;0.7174999713897705
1208;0.0;0.0;0.0;0.24009600281715393;-0.24302399158477783;1.0687199831008911;0.0;0.0;0.0
1210;0.0;0.0;0.0;0.21667200326919556;-0.21959999203681946;1.0775039196014404;0.0;0.0;0.0
1212;0.0;0.0;0.0;0.23228800296783447;-0.24302399158477783;1.0687199831008911;0.0;0.0;0.0
1214;0.10077200084924698;-0.10150399804115295;0.9450119733810425;0.23228800296783447;-0.24302399158477783;1.0931199789047241;-2.1218748092651367;-7.236249923706055;-0.05250000208616257
1217;0.0;0.0;0.0;0.21667200326919556;-0.24302399158477783;1.0814080238342285;0.0;0.0;0.0
1219;0.0;0.0;0.0;0.23228800296783447;-0.22740799188613892;1.0648159980773926;0.0;0.0;0.0
1221;0.0;0.0;0.0;0.2088640034198761;-0.27035200595855713;1.0648159980773926;0.0;0.0;0.0
1223;0.10199199616909027;-0.0936959981918335;0.9479399919509888;0.2205759882926941;-0.20398399233818054;1.0814080238342285;-1.3518750667572021;-2.6862499713897705;-1.9424999952316284
1225;0.0;0.0;0.0;0.20495998859405518;-0.22740799188613892;1.0648159980773926;0.0;0.0;0.0
1227;0.0;0.0;0.0;0.2205759882926941;-0.19617599248886108;1.085312008857727;0.0;0.0;0.0
1229;0.0;0.0;0.0;0.21276798844337463;-0.2117919921875;1.0931199789047241;0.0;0.0;0.0
1231;0.0983319953083992;-0.08076399564743042;0.9542839527130127;0.22838398814201355;-0.19617599248886108;1.0726239681243896;-0.6518750190734863;2.843750238418579;-3.9725000858306885
1234;0.0;0.0;0.0;0.2088640034198761;-0.2000799924135208;1.085312008857727;0.0;0.0;0.0
1236;0.0;0.0;0.0;0.18544000387191772;-0.19227199256420135;1.085312008857727;0.0;0.0;0.0
1238;0.0;0.0;0.0;0.2088640034198761;-0.20398399233818054;1.10971200466156;0.0;0.0;0.0
1240;0.08759599924087524;-0.0680759996175766;0.9647759795188904;0.20495998859405518;-0.21569599211215973;1.097999930381775;0.6781249642372131;7.953750133514404;-5.722499847412109
1242;0.0;0.0;0.0;0.18544000387191772;-0.21959999203681946;1.1058080196380615;0.0;0.0;0.0
1244;0.0;0.0;0.0;0.20105600357055664;-0.18055999279022217;1.097999930381775;0.0;0.0;0.0
1246;0.0;0.0;0.0;0.17372798919677734;-0.1727519929409027;1.122399926185608;0.0;0.0;0.0
1248;0.0680759996175766;-0.057583998888731;0.9833199977874756;0.1698240041732788;-0.16884799301624298;1.122399926185608;2.8481252193450928;11.943750381469727;-6.632499694824219
1251;0.0;0.0;0.0;0.1698240041732788;-0.1727519929409027;1.134112000465393;0.0;0.0;0.0
1253;0.0;0.0;0.0;0.13859200477600098;-0.17665599286556244;1.1380159854888916;0.0;0.0;0.0
1255;0.0;0.0;0.0;0.1268799901008606;-0.15323199331760406;1.150704026222229;0.0;0.0;0.0
1257;0.028060000389814377;-0.0348920002579689;1.014307975769043;0.1424959897994995;-0.16884799301624298;1.1624159812927246;4.388124942779541;13.9037504196167;-7.542500019073486
1259;0.0;0.0;0.0;0.11907199770212173;-0.16103999316692352;1.1546080112457275;0.0;0.0;0.0
1261;0.0;0.0;0.0;0.11907199770212173;-0.16494399309158325;1.1624159812927246;0.0;0.0;0.0
1263;0.0;0.0;0.0;0.1268799901008606;-0.13761599361896515;1.1624159812927246;0.0;0.0;0.0
1265;0.0021959999576210976;-0.016835998743772507;1.0291919708251953;0.1268799901008606;-0.13761599361896515;1.146799921989441;4.10812520980835;10.613750457763672;-8.452499389648438
1268;0.0;0.0;0.0;0.13859200477600098;-0.16103999316692352;1.1419199705123901;0.0;0.0;0.0
1270;0.0;0.0;0.0;0.12297599762678146;-0.1571359932422638;1.1302080154418945;0.0;0.0;0.0
1272;0.0;0.0;0.0;0.11907199770212173;-0.1298079937696457;1.134112000465393;0.0;0.0;0.0
1274;0.004391999915242195;-0.003659999929368496;1.0169919729232788;0.13468798995018005;-0.1454239934682846;1.1546080112457275;3.828125;3.8937501907348633;-9.012499809265137
1276;0.0;0.0;0.0;0.13468798995018005;-0.14151999354362488;1.1175199747085571;0.0;0.0;0.0
1278;0.0;0.0;0.0;0.15030398964881897;-0.12590399384498596;1.10971200466156;0.0;0.0;0.0
1280;0.0;0.0;0.0;0.18544000387191772;-0.11028799414634705;1.1136159896850586;0.0;0.0;0.0
1282;0.03757599741220474;0.005367999896407127;0.9923479557037354;0.19324800372123718;-0.14151999354362488;1.0775039196014404;4.668125152587891;-0.026250001043081284;-8.872499465942383
1285;0.0;0.0;0.0;0.16201600432395935;-0.1298079937696457;1.1175199747085571;0.0;0.0;0.0
1287;0.0;0.0;0.0;0.17763200402259827;-0.12199999392032623;1.0775039196014404;0.0;0.0;0.0
1289;0.0;0.0;0.0;0.17763200402259827;-0.1180959939956665;1.085312008857727;0.0;0.0;0.0
1291;0.0605119988322258;0.01659199967980385;0.9745360016822815;0.16201600432395935;-0.11419199407100677;1.0814080238342285;6.418125152587891;2.213750123977661;-8.102499961853027
1293;0.0;0.0;0.0;0.19324800372123718;-0.11419199407100677;1.085312008857727;0.0;0.0;0.0
1295;0.0;0.0;0.0;0.15030398964881897;-0.10247999429702759;1.10971200466156;0.0;0.0;0.0
1297;0.0;0.0;0.0;0.16201600432395935;-0.06734399497509003;1.085312008857727;0.0;0.0;0.0
1299;0.05245999991893768;0.03440399840474129;0.9730719923973083;0.1815359890460968;-0.08295999467372894;1.0892159938812256;7.60812520980835;7.323750019073486;-7.262499809265137
1302;0.0;0.0;0.0;0.1424959897994995;-0.0634399950504303;1.10971200466156;0.0;0.0;0.0
1304;0.0;0.0;0.0;0.13859200477600098;-0.10638399422168732;1.101904034614563;0.0;0.0;0.0
1306;0.0;0.0;0.0;0.1424959897994995;-0.12199999392032623;1.10971200466156;0.0;0.0;0.0
1308;0.027327999472618103;0.045871999114751816;0.981611967086792;0.1424959897994995;-0.09467199444770813;1.1302080154418945;7.328125;10.893750190734863;-6.842499732971191
1310;0.0;0.0;0.0;0.10735999792814255;-0.07515199482440948;1.10971200466156;0.0;0.0;0.0
1312;0.0;0.0;0.0;0.09955199807882309;-0.11028799414634705;1.150704026222229;0.0;0.0;0.0
1314;0.0;0.0;0.0;0.13078400492668152;-0.08686399459838867;1.1175199747085571;0.0;0.0;0.0
1316;0.0017079999670386314;0.039772000163793564;0.9903959631919861;0.07710400223731995;-0.10638399422168732;1.150704026222229;6.138124942779541;12.50374984741211;-6.772500038146973
1319;0.0;0.0;0.0;0.13078400492668152;-0.09467199444770813;1.1175199747085571;0.0;0.0;0.0
1321;0.0;0.0;0.0;0.09272000193595886;-0.1180959939956665;1.1136159896850586;0.0;0.0;0.0
1323;0.0;0.0;0.0;0.09662400186061859;-0.09857599437236786;1.134112000465393;0.0;0.0;0.0
1325;-0.02000799961388111;0.030499998480081558;1.0001559257507324;0.09662400186061859;-0.10638399422168732;1.1302080154418945;4.878125190734863;13.063750267028809;-7.472499847412109
1327;0.0;0.0;0.0;0.11126399785280228;-0.09857599437236786;1.1302080154418945;0.0;0.0;0.0
1329;0.0;0.0;0.0;0.08881600201129913;-0.11028799414634705;1.122399926185608;0.0;0.0;0.0
1331;0.0;0.0;0.0;0.115167997777462;-0.08295999467372894;1.1302080154418945;0.0;0.0;0.0
1333;-0.03269600123167038;0.03001200035214424;1.0047919750213623;0.0849120020866394;-0.10247999429702759;1.126304030418396;3.828125;10.75374984741211;-7.752499580383301
1336;0.0;0.0;0.0;0.10052800178527832;-0.09467199444770813;1.146799921989441;0.0;0.0;0.0
1338;0.0;0.0;0.0;0.06929600238800049;-0.07905599474906921;1.1458239555358887;0.0;0.0;0.0
1340;0.0;0.0;0.0;0.07710400223731995;-0.08686399459838867;1.134112000465393;0.0;0.0;0.0
1342;-0.0378200002014637;0.038307998329401016;1.0106480121612549;0.0849120020866394;-0.0634399950504303;1.1380159854888916;2.708125114440918;5.853750228881836;-7.19249963760376
1344;0.0;0.0;0.0;0.08100800216197968;-0.09857599437236786;1.126304030418396;0.0;0.0;0.0
1346;0.0;0.0;0.0;0.09272000193595886;-0.08686399459838867;1.146799921989441;0.0;0.0;0.0
1348;0.0;0.0;0.0;0.10443200170993805;-0.08686399459838867;1.150704026222229;0.0;0.0;0.0
1350;-0.024399999529123306;0.04025999829173088;1.0106480121612549;0.11907199770212173;-0.08295999467372894;1.146799921989441;1.3081250190734863;1.443750023841858;-6.492499828338623
1353;0.0;0.0;0.0;0.11126399785280228;-0.10638399422168732;1.1380159854888916;0.0;0.0;0.0
1355;0.0;0.0;0.0;0.1268799901008606;-0.09467199444770813;1.1419199705123901;0.0;0.0;0.0
1357;0.0;0.0;0.0;0.11907199770212173;-0.10638399422168732;1.1428959369659424;0.0;0.0;0.0
1359;-0.007075999863445759;0.03562399744987488;1.0045479536056519;0.115167997777462;-0.08686399459838867;1.122399926185608;-0.09187500178813934;-0.09624999761581421;-5.792500019073486
1361;0.0;0.0;0.0;0.115167997777462;-0.10638399422168732;1.1302080154418945;0.0;0.0;0.0
1363;0.0;0.0;0.0;0.13078400492668152;-0.10247999429702759;1.1136159896850586;0.0;0.0;0.0
1365;0.0;0.0;0.0;0.1424959897994995;-0.12199999392032623;1.1302080154418945;0.0;0.0;0.0
1367;0.00951599981635809;0.020983999595046043;0.9994239807128906;0.13859200477600098;-0.14151999354362488;1.122399926185608;-1.421875;-0.16625000536441803;-4.602499961853027
1370;0.0;0.0;0.0;0.1268799901008606;-0.1454239934682846;1.126304030418396;0.0;0.0;0.0
1372;0.0;0.0;0.0;0.11907199770212173;-0.14151999354362488;1.146799921989441;0.0;0.0;0.0
1374;0.0;0.0;0.0;0.12297599762678146;-0.14151999354362488;1.1380159854888916;0.0;0.0;0.0
1376;0.0019519999623298645;0.0014639999717473984;0.9964959621429443;0.0849120020866394;-0.13371199369430542;1.1136159896850586;-2.471874952316284;-1.3562500476837158;-3.0625
1378;0.0;0.0;0.0;0.12297599762678146;-0.1298079937696457;1.126304030418396;0.0;0.0;0.0
1380;0.0;0.0;0.0;0.10443200170993805;-0.1571359932422638;1.1175199747085571;0.0;0.0;0.0
1382;0.0;0.0;0.0;0.11224000155925751;-0.14151999354362488;1.10971200466156;0.0;0.0;0.0
1384;-0.003903999924659729;-0.023667998611927032;0.9894199967384338;0.11907199770212173;-0.18055999279022217;1.097999930381775;-3.661875009536743;-4.926249980926514;-2.9225001335144043
1387;0.0;0.0;0.0;0.1268799901008606;-0.18836799263954163;1.097999930381775;0.0;0.0;0.0
1389;0.0;0.0;0.0;0.1542080044746399;-0.18836799263954163;1.0775039196014404;0.0;0.0;0.0
1391;0.0;0.0;0.0;0.15030398964881897;-0.19227199256420135;1.101904034614563;0.0;0.0;0.0
1393;0.014151999726891518;-0.04806799814105034;0.9711199998855591;0.13078400492668152;-0.1844639927148819;1.101904034614563;-4.221874713897705;-7.516250133514404;-3.9725000858306885
1395;0.0;0.0;0.0;0.17763200402259827;-0.2117919921875;1.085312008857727;0.0;0.0;0.0
1397;0.0;0.0;0.0;0.1698240041732788;-0.18055999279022217;1.0814080238342285;0.0;0.0;0.0
1399;0.0;0.0;0.0;0.18544000387191772;-0.20398399233818054;1.0775039196014404;0.0;0.0;0.0
1402;0.05197199806571007;-0.07124799489974976;0.9515999555587769;0.18544000387191772;-0.21569599211215973;1.0491999387741089;-3.171875;-5.62624979019165;-5.302499771118164
1404;0.0;0.0;0.0;0.1815359890460968;-0.20788799226284027;1.0648159980773926;0.0;0.0;0.0
1406;0.0;0.0;0.0;0.19324800372123718;-0.20398399233818054;1.073599934577942;0.0;0.0;0.0
1408;0.0;0.0;0.0;0.19324800372123718;-0.22740799188613892;1.060912013053894;0.0;0.0;0.0
1410;0.07661599665880203;-0.0849120020866394;0.9484279751777649;0.2205759882926941;-0.21959999203681946;1.0814080238342285;-0.7918750047683716;0.11374999582767487;-6.002499580383301
1412;0.0;0.0;0.0;0.23228800296783447;-0.2235039919614792;1.0814080238342285;0.0;0.0;0.0
1414;0.0;0.0;0.0;0.1815359890460968;-0.21569599211215973;1.101904034614563;0.0;0.0;0.0
1416;0.0;0.0;0.0;0.21667200326919556;-0.22740799188613892;1.0775039196014404;0.0;0.0;0.0
1418;0.07539600133895874;-0.08686399459838867;0.9633119702339172;0.18934398889541626;-0.20788799226284027;1.101904034614563;2.078125;6.833750247955322;-6.422499656677246
1421;0.0;0.0;0.0;0.1698240041732788;-0.20788799226284027;1.1175199747085571;0.0;0.0;0.0
1423;0.0;0.0;0.0;0.17372798919677734;-0.22740799188613892;1.122399926185608;0.0;0.0;0.0
1425;0.0;0.0;0.0;0.15811198949813843;-0.19227199256420135;1.1136159896850586;0.0;0.0;0.0
1427;0.05050799995660782;-0.0785679966211319;0.9918599724769592;0.17372798919677734;-0.18836799263954163;1.122399926185608;3.6181252002716064;11.873749732971191;-7.122499942779541
1429;0.0;0.0;0.0;0.16591998934745789;-0.19617599248886108;1.1175199747085571;0.0;0.0;0.0
1431;0.0;0.0;0.0;0.1542080044746399;-0.2235039919614792;1.122399926185608;0.0;0.0;0.0
1434;0.0;0.0;0.0;0.1268799901008606;-0.21569599211215973;1.1546080112457275;0.0;0.0;0.0
1436;0.03001200035214424;-0.07197999954223633;1.0108920335769653;0.1424959897994995;-0.2235039919614792;1.134112000465393;3.828125;14.463749885559082;-8.732500076293945
1438;0.0;0.0;0.0;0.15030398964881897;-0.18836799263954163;1.146799921989441;0.0;0.0;0.0
1440;0.0;0.0;0.0;0.13468798995018005;-0.1844639927148819;1.1380159854888916;0.0;0.0;0.0
1442;0.0;0.0;0.0;0.14640000462532043;-0.1727519929409027;1.1624159812927246;0.0;0.0;0.0
1444;0.02122800052165985;-0.054655998945236206;1.0172359943389893;0.12297599762678146;-0.1571359932422638;1.146799921989441;4.528125286102295;15.793749809265137;-10.97249984741211
1446;0.0;0.0;0.0;0.1542080044746399;-0.16103999316692352;1.1663199663162231;0.0;0.0;0.0
1448;0.0;0.0;0.0;0.12297599762678146;-0.1571359932422638;1.158511996269226;0.0;0.0;0.0
1450;0.0;0.0;0.0;0.16591998934745789;-0.1298079937696457;1.1428959369659424;0.0;0.0;0.0
1453;0.018543999642133713;-0.021715998649597168;1.022603988647461;0.1542080044746399;-0.14932799339294434;1.1380159854888916;5.508125305175781;17.263750076293945;-13.282500267028809
1455;0.0;0.0;0.0;0.1424959897994995;-0.12199999392032623;1.1546080112457275;0.0;0.0;0.0
1457;0.0;0.0;0.0;0.17372798919677734;-0.1180959939956665;1.134112000465393;0.0;0.0;0.0
1459;0.0;0.0;0.0;0.13859200477600098;-0.08295999467372894;1.150704026222229;0.0;0.0;0.0
1461;0.022935999557375908;0.01903199963271618;1.0235799551010132;0.13468798995018005;-0.07905599474906921;1.1380159854888916;6.138124942779541;18.313749313354492;-13.842499732971191
1463;0.0;0.0;0.0;0.13468798995018005;-0.07515199482440948;1.1663199663162231;0.0;0.0;0.0
1465;0.0;0.0;0.0;0.1424959897994995;-0.08686399459838867;1.1302080154418945;0.0;0.0;0.0
1467;0.0;0.0;0.0;0.10443200170993805;-0.08295999467372894;1.1302080154418945;0.0;0.0;0.0
1470;0.016835998743772507;0.05685199797153473;1.012112021446228;0.1424959897994995;-0.04782399907708168;1.1302080154418945;6.418125152587891;18.943748474121094;-13.072500228881836
1472;0.0;0.0;0.0;0.13078400492668152;-0.05563199892640114;1.1428959369659424;0.0;0.0;0.0
1474;0.0;0.0;0.0;0.11614400148391724;-0.032207999378442764;1.1350879669189453;0.0;0.0;0.0
1476;0.0;0.0;0.0;0.13859200477600098;-0.04391999915242195;1.1311839818954468;0.0;0.0;0.0
1478;0.005123999901115894;0.09345199912786484;1.006011962890625;0.11907199770212173;-0.032207999378442764;1.1184959411621094;6.418125152587891;18.873748779296875;-11.742499351501465
1480;0.0;0.0;0.0;0.13078400492668152;-0.01268799975514412;1.1184959411621094;0.0;0.0;0.0
1482;0.0;0.0;0.0;0.11907199770212173;-0.0009759999811649323;1.1516799926757812;0.0;0.0;0.0
1484;0.0;0.0;0.0;0.11126399785280228;-0.024399999529123306;1.1067839860916138;0.0;0.0;0.0
1487;0.0017079999670386314;0.1134599968791008;0.9935680031776428;0.10345599800348282;-0.00878399983048439;1.1145919561386108;6.418125152587891;18.033748626708984;-9.992499351501465
1489;0.0;0.0;0.0;0.09955199807882309;-0.01268799975514412;1.1175199747085571;0.0;0.0;0.0
1491;0.0;0.0;0.0;0.13078400492668152;0.0029279999434947968;1.1058080196380615;0.0;0.0;0.0
1493;0.0;0.0;0.0;0.13859200477600098;0.0029279999434947968;1.1175199747085571;0.0;0.0;0.0
1495;0.0014639999717473984;0.12590399384498596;0.9855159521102905;0.13859200477600098;-0.028303999453783035;1.0931199789047241;6.138124942779541;16.423749923706055;-7.19249963760376
1497;0.0;0.0;0.0;0.1268799901008606;-0.0009759999811649323;1.101904034614563;0.0;0.0;0.0
1499;0.0;0.0;0.0;0.13078400492668152;-0.01659199967980385;1.10971200466156;0.0;0.0;0.0
1501;0.0;0.0;0.0;0.14640000462532043;-0.004879999905824661;1.1175199747085571;0.0;0.0;0.0
1504;0.009271999821066856;0.12590399384498596;0.9806360006332397;0.1424959897994995;-0.0009759999811649323;1.10971200466156;5.018125057220459;14.603750228881836;-3.9725000858306885
1506;0.0;0.0;0.0;0.14640000462532043;-0.004879999905824661;1.097999930381775;0.0;0.0;0.0
1508;0.0;0.0;0.0;0.1542080044746399;0.006831999868154526;1.1067839860916138;0.0;0.0;0.0
1510;0.0;0.0;0.0;0.13859200477600098;-0.05172799900174141;1.1106879711151123;0.0;0.0;0.0
1512;0.02147199958562851;0.11858399957418442;0.9879559874534607;0.13859200477600098;-0.020495999604463577;1.146799921989441;2.63812518119812;14.18375015258789;-1.1725000143051147
1514;0.0;0.0;0.0;0.14640000462532043;-0.00878399983048439;1.1184959411621094;0.0;0.0;0.0
1516;0.0;0.0;0.0;0.12297599762678146;-0.05953599885106087;1.1184959411621094;0.0;0.0;0.0
1518;0.0;0.0;0.0;0.1542080044746399;-0.04782399907708168;1.1106879711151123;0.0;0.0;0.0
1521;0.014883999712765217;0.09882000088691711;0.9847840070724487;0.1698240041732788;-0.032207999378442764;1.097999930381775;-0.7918750047683716;15.723750114440918;1.1375000476837158
1523;0.0;0.0;0.0;0.11126399785280228;-0.05172799900174141;1.1058080196380615;0.0;0.0;0.0
1525;0.0;0.0;0.0;0.11907199770212173;-0.06734399497509003;1.0931199789047241;0.0;0.0;0.0
1527;0.0;0.0;0.0;0.11126399785280228;-0.05172799900174141;1.1058080196380615;0.0;0.0;0.0
1529;0.0009759999811649323;0.08149600028991699;0.9752680063247681;0.11907199770212173;-0.0634399950504303;1.1175199747085571;-2.9618749618530273;17.61374855041504;2.4674999713897705
1531;0.0;0.0;0.0;0.11224000155925751;-0.07124799489974976;1.1136159896850586;0.0;0.0;0.0
1533;0.0;0.0;0.0;0.10345599800348282;-0.0907679945230484;1.0931199789047241;0.0;0.0;0.0
1535;0.0;0.0;0.0;0.115167997777462;-0.07515199482440948;1.10971200466156;0.0;0.0;0.0
1538;-0.01634800061583519;0.0680759996175766;0.9730719923973083;0.08881600201129913;-0.07124799489974976;1.1058080196380615;-3.591874837875366;18.313749313354492;3.0274999141693115
1540;0.0;0.0;0.0;0.0849120020866394;-0.09857599437236786;1.0814080238342285;0.0;0.0;0.0
1542;0.0;0.0;0.0;0.10833600163459778;-0.08295999467372894;1.10971200466156;0.0;0.0;0.0
1544;0.0;0.0;0.0;0.053679998964071274;-0.07905599474906921;1.1058080196380615;0.0;0.0;0.0
1546;-0.03513599932193756;0.05441199988126755;0.9767319560050964;0.06929600238800049;-0.08686399459838867;1.10971200466156;-3.661875009536743;17.053749084472656;3.797499895095825
1548;0.0;0.0;0.0;0.06539200246334076;-0.07124799489974976;1.101904034614563;0.0;0.0;0.0
1550;0.0;0.0;0.0;0.07710400223731995;-0.09467199444770813;1.101904034614563;0.0;0.0;0.0
1552;0.0;0.0;0.0;0.06929600238800049;-0.08295999467372894;1.122399926185608;0.0;0.0;0.0
1555;-0.05075199902057648;0.044652000069618225;0.9786840081214905;0.06148799881339073;-0.10638399422168732;1.097999930381775;-3.3118748664855957;14.533750534057617;5.05750036239624
1557;0.0;0.0;0.0;0.06929600238800049;-0.0907679945230484;1.1419199705123901;0.0;0.0;0.0
1559;0.0;0.0;0.0;0.06539200246334076;-0.10638399422168732;1.1058080196380615;0.0;0.0;0.0
1561;0.0;0.0;0.0;0.0849120020866394;-0.0907679945230484;1.10971200466156;0.0;0.0;0.0
1563;-0.06075599789619446;0.03757599741220474;0.9845399856567383;0.03806399926543236;-0.08686399459838867;1.1136159896850586;-2.541874885559082;12.50374984741211;5.547500133514404
1565;0.0;0.0;0.0;0.06929600238800049;-0.11028799414634705;1.1136159896850586;0.0;0.0;0.0
1567;0.0;0.0;0.0;0.049775999039411545;-0.08686399459838867;1.122399926185608;0.0;0.0;0.0
1569;0.0;0.0;0.0;0.03415999934077263;-0.10247999429702759;1.122399926185608;0.0;0.0;0.0
1572;-0.06026799976825714;0.03245199844241142;0.9921039938926697;0.057583998888731;-0.10247999429702759;1.122399926185608;-1.1418750286102295;11.453750610351562;5.267500400543213
1574;0.0;0.0;0.0;0.07710400223731995;-0.10638399422168732;1.126304030418396;0.0;0.0;0.0
1576;0.0;0.0;0.0;0.057583998888731;-0.07124799489974976;1.1302080154418945;0.0;0.0;0.0
1578;0.0;0.0;0.0;0.049775999039411545;-0.09857599437236786;1.122399926185608;0.0;0.0;0.0
1580;-0.057583998888731;0.035868000239133835;0.9960079789161682;0.06539200246334076;-0.11028799414634705;1.10971200466156;0.11812499910593033;10.123749732971191;5.197500228881836
1582;0.0;0.0;0.0;0.053679998964071274;-0.09467199444770813;1.1419199705123901;0.0;0.0;0.0
1584;0.0;0.0;0.0;0.057583998888731;-0.10638399422168732;1.1419199705123901;0.0;0.0;0.0
1586;0.0;0.0;0.0;0.07710400223731995;-0.0907679945230484;1.1380159854888916;0.0;0.0;0.0
1589;-0.05660799890756607;0.04050400108098984;0.9918599724769592;0.06539200246334076;-0.08686399459838867;1.1136159896850586;0.18812501430511475;9.00374984741211;4.637500286102295
1591;0.0;0.0;0.0;0.06148799881339073;-0.12199999392032623;1.085312008857727;0.0;0.0;0.0
1593;0.0;0.0;0.0;0.049775999039411545;-0.0907679945230484;1.1302080154418945;0.0;0.0;0.0
1595;0.0;0.0;0.0;0.03806399926543236;-0.07515199482440948;1.101904034614563;0.0;0.0;0.0
1597;-0.06075599789619446;0.038307998329401016;0.982587993144989;0.06148799881339073;-0.11419199407100677;1.1136159896850586;-0.3018749952316284;8.233750343322754;3.0975000858306885
1599;0.0;0.0;0.0;0.06148799881339073;-0.07905599474906921;1.085312008857727;0.0;0.0;0.0
1601;0.0;0.0;0.0;0.057583998888731;-0.10247999429702759;1.0892159938812256;0.0;0.0;0.0
1603;0.0;0.0;0.0;0.09272000193595886;-0.11028799414634705;1.0775039196014404;0.0;0.0;0.0
1606;-0.04660400003194809;0.031231999397277832;0.97843998670578;0.07320000231266022;-0.1454239934682846;1.101904034614563;-0.37187498807907104;8.373749732971191;1.627500057220459
1608;0.0;0.0;0.0;0.07612799853086472;-0.0907679945230484;1.0892159938812256;0.0;0.0;0.0
1610;0.0;0.0;0.0;0.10345599800348282;-0.07124799489974976;1.1302080154418945;0.0;0.0;0.0
1612;0.0;0.0;0.0;0.09272000193595886;-0.10247999429702759;1.1184959411621094;0.0;0.0;0.0
1614;-0.0331839993596077;0.030743999406695366;0.9864919781684875;0.10345599800348282;-0.08295999467372894;1.1136159896850586;-0.44187501072883606;10.263750076293945;1.277500033378601
1616;0.0;0.0;0.0;0.1268799901008606;-0.11419199407100677;1.1136159896850586;0.0;0.0;0.0
1618;0.0;0.0;0.0;0.09272000193595886;-0.0907679945230484;1.126304030418396;0.0;0.0;0.0
1620;0.0;0.0;0.0;0.0849120020866394;-0.10638399422168732;1.1380159854888916;0.0;0.0;0.0
1623;-0.031964000314474106;0.03269600123167038;0.9996680021286011;0.10052800178527832;-0.10247999429702759;1.122399926185608;-1.0018750429153442;12.293749809265137;2.6075000762939453
1625;0.0;0.0;0.0;0.057583998888731;-0.09857599437236786;1.158511996269226;0.0;0.0;0.0
1627;0.0;0.0;0.0;0.06148799881339073;-0.09467199444770813;1.1428959369659424;0.0;0.0;0.0
1629;0.0;0.0;0.0;0.057583998888731;-0.10247999429702759;1.1419199705123901;0.0;0.0;0.0
1631;-0.06880799680948257;0.031964000314474106;1.0084519386291504;0.04196799919009209;-0.0907679945230484;1.150704026222229;-1.9818750619888306;12.083749771118164;4.497500419616699
1633;0.0;0.0;0.0;0.022447999566793442;-0.0907679945230484;1.1419199705123901;0.0;0.0;0.0
1635;0.0;0.0;0.0;0.010735999792814255;-0.11028799414634705;1.1624159812927246;0.0;0.0;0.0
1638;0.0;0.0;0.0;0.022447999566793442;-0.11419199407100677;1.1175199747085571;0.0;0.0;0.0
1640;-0.10077200084924698;0.02537599951028824;1.0140639543533325;0.006831999868154526;-0.09857599437236786;1.1458239555358887;-3.171875;8.163749694824219;4.637500286102295
1642;0.0;0.0;0.0;0.022447999566793442;-0.11028799414634705;1.126304030418396;0.0;0.0;0.0
1644;0.0;0.0;0.0;-0.00878399983048439;-0.11419199407100677;1.134112000465393;0.0;0.0;0.0
1646;0.0;0.0;0.0;-0.0009759999811649323;-0.13371199369430542;1.1663199663162231;0.0;0.0;0.0
1648;-0.10784799605607986;0.006099999882280827;1.0152839422225952;0.006831999868154526;-0.1454239934682846;1.146799921989441;-4.711874961853027;2.1437501907348633;3.6575000286102295
1650;0.0;0.0;0.0;0.0302559994161129;-0.15323199331760406;1.1663199663162231;0.0;0.0;0.0
1652;0.0;0.0;0.0;0.022447999566793442;-0.16103999316692352;1.122399926185608;0.0;0.0;0.0
1655;0.0;0.0;0.0;0.014639999717473984;-0.16884799301624298;1.1302080154418945;0.0;0.0;0.0
1657;-0.09930799901485443;-0.02391199953854084;1.0140639543533325;-0.0009759999811649323;-0.1727519929409027;1.134112000465393;-6.111875057220459;-3.1762499809265137;2.047499895095825
1659;0.0;0.0;0.0;0.006831999868154526;-0.1844639927148819;1.134112000465393;0.0;0.0;0.0
1661;0.0;0.0;0.0;0.045871999114751816;-0.18055999279022217;1.126304030418396;0.0;0.0;0.0
1663;0.0;0.0;0.0;0.022447999566793442;-0.19227199256420135;1.1136159896850586;0.0;0.0;0.0
1665;-0.09272000193595886;-0.057339999824762344;1.0011320114135742;0.03415999934077263;-0.20398399233818054;1.1214239597320557;-6.741875171661377;-6.886250019073486;-0.8224999904632568
1667;0.0;0.0;0.0;0.045871999114751816;-0.2117919921875;1.1058080196380615;0.0;0.0;0.0
1669;0.0;0.0;0.0;0.045871999114751816;-0.21569599211215973;1.101904034614563;0.0;0.0;0.0
1672;0.0;0.0;0.0;0.045871999114751816;-0.20398399233818054;1.085312008857727;0.0;0.0;0.0
1674;-0.06612399965524673;-0.0785679966211319;0.9755119681358337;0.115167997777462;-0.21569599211215973;1.0775039196014404;-6.181874752044678;-9.476249694824219;-4.672499656677246
1676;0.0;0.0;0.0;0.0849120020866394;-0.19227199256420135;1.0775039196014404;0.0;0.0;0.0
1678;0.0;0.0;0.0;0.10443200170993805;-0.2117919921875;1.0404160022735596;0.0;0.0;0.0
1680;0.0;0.0;0.0;0.10443200170993805;-0.19227199256420135;1.0687199831008911;0.0;0.0;0.0
1682;-0.024887999519705772;-0.08076399564743042;0.9467200040817261;0.115167997777462;-0.20398399233818054;1.044319987297058;-4.291874885559082;-10.106249809265137;-8.032500267028809
1684;0.0;0.0;0.0;0.13468798995018005;-0.20398399233818054;1.060912013053894;0.0;0.0;0.0
1686;0.0;0.0;0.0;0.14640000462532043;-0.20788799226284027;1.0404160022735596;0.0;0.0;0.0
1689;0.0;0.0;0.0;0.14640000462532043;-0.21959999203681946;1.044319987297058;0.0;0.0;0.0
1691;0.013663999736309052;-0.07344400137662888;0.9250040054321289;0.09662400186061859;-0.20398399233818054;1.044319987297058;-1.0018750429153442;-6.396249771118164;-10.132499694824219
1693;0.0;0.0;0.0;0.15811198949813843;-0.19227199256420135;1.0482239723205566;0.0;0.0;0.0
1695;0.0;0.0;0.0;0.1698240041732788;-0.21959999203681946;1.0648159980773926;0.0;0.0;0.0
1697;0.0;0.0;0.0;0.15811198949813843;-0.19227199256420135;1.019919991493225;0.0;0.0;0.0
1699;0.039772000163793564;-0.05953599885106087;0.9174399971961975;0.1698240041732788;-0.16494399309158325;1.0491999387741089;3.898125171661377;1.443750023841858;-11.392499923706055
1701;0.0;0.0;0.0;0.16201600432395935;-0.1454239934682846;1.044319987297058;0.0;0.0;0.0
1704;0.0;0.0;0.0;0.14640000462532043;-0.1571359932422638;1.0570080280303955;0.0;0.0;0.0
1706;0.0;0.0;0.0;0.17372798919677734;-0.14151999354362488;1.085312008857727;0.0;0.0;0.0
1708;0.0424560010433197;-0.023423999547958374;0.9315919876098633;0.15811198949813843;-0.1180959939956665;1.0726239681243896;8.378124237060547;10.75374984741211;-11.042499542236328
1710;0.0;0.0;0.0;0.13078400492668152;-0.10247999429702759;1.0531039237976074;0.0;0.0;0.0
1712;0.0;0.0;0.0;0.12297599762678146;-0.12199999392032623;1.085312008857727;0.0;0.0;0.0
1714;0.0;0.0;0.0;0.115167997777462;-0.11028799414634705;1.0814080238342285;0.0;0.0;0.0
1716;0.012199999764561653;0.024887999519705772;0.9691680073738098;0.10443200170993805;-0.10247999429702759;1.1302080154418945;10.618124961853027;17.963748931884766;-9.082499504089355
1718;0.0;0.0;0.0;0.07710400223731995;-0.08686399459838867;1.134112000465393;0.0;0.0;0.0
1720;0.0;0.0;0.0;0.06539200246334076;-0.05563199892640114;1.134112000465393;0.0;0.0;0.0
1723;0.0;0.0;0.0;0.049775999039411545;-0.06734399497509003;1.1712000370025635;0.0;0.0;0.0
1725;-0.048555999994277954;0.06295199692249298;1.020651936531067;0.022447999566793442;-0.0634399950504303;1.1790080070495605;9.568124771118164;21.04374885559082;-7.612499713897705
1727;0.0;0.0;0.0;0.03806399926543236;-0.03611199930310249;1.175104022026062;0.0;0.0;0.0
1729;0.0;0.0;0.0;0.02635199949145317;-0.05563199892640114;1.1956000328063965;0.0;0.0;0.0
1731;0.0;0.0;0.0;0.0029279999434947968;-0.06734399497509003;1.175104022026062;0.0;0.0;0.0
1733;-0.09637999534606934;0.08222799748182297;1.0560319423675537;0.0302559994161129;-0.04782399907708168;1.207311987876892;5.438125133514404;19.29374885559082;-7.19249963760376
1735;0.0;0.0;0.0;0.0029279999434947968;-0.05953599885106087;1.207311987876892;0.0;0.0;0.0
1737;0.0;0.0;0.0;-0.00878399983048439;-0.05172799900174141;1.1956000328063965;0.0;0.0;0.0
1740;0.0;0.0;0.0;-0.020495999604463577;-0.0634399950504303;1.2151199579238892;0.0;0.0;0.0
1742;-0.1298079937696457;0.08393599838018417;1.0760400295257568;-0.024399999529123306;-0.06734399497509003;1.2034080028533936;-0.6518750190734863;12.99375057220459;-6.422499656677246
1744;0.0;0.0;0.0;-0.024399999529123306;-0.0634399950504303;1.2112159729003906;0.0;0.0;0.0
1746;0.0;0.0;0.0;-0.01268799975514412;-0.032207999378442764;1.2034080028533936;0.0;0.0;0.0
1748;0.0;0.0;0.0;-0.032207999378442764;-0.05953599885106087;1.207311987876892;0.0;0.0;0.0
1750;-0.1500599980354309;0.07149200141429901;1.0794559717178345;-0.024399999529123306;-0.0907679945230484;1.199504017829895;-7.511875152587891;2.843750238418579;-5.792500019073486
1752;0.0;0.0;0.0;-0.024399999529123306;-0.08295999467372894;1.199504017829895;0.0;0.0;0.0
1754;0.0;0.0;0.0;-0.032207999378442764;-0.0634399950504303;1.207311987876892;0.0;0.0;0.0
1757;0.0;0.0;0.0;-0.024399999529123306;-0.12199999392032623;1.1663199663162231;0.0;0.0;0.0
1759;-0.13639599084854126;0.03903999924659729;1.0621320009231567;-0.004879999905824661;-0.12590399384498596;1.1712000370025635;-13.32187557220459;-9.476249694824219;-5.162499904632568
1761;0.0;0.0;0.0;0.010735999792814255;-0.11419199407100677;1.1624159812927246;0.0;0.0;0.0
1763;0.0;0.0;0.0;0.0302559994161129;-0.13371199369430542;1.1624159812927246;0.0;0.0;0.0
1765;0.0;0.0;0.0;0.06148799881339073;-0.09857599437236786;1.1790080070495605;0.0;0.0;0.0
1767;-0.10028399527072906;0.012443999759852886;1.034559965133667;0.022447999566793442;-0.1454239934682846;1.1380159854888916;-16.33187484741211;-19.83625030517578;-5.302499771118164
1769;0.0;0.0;0.0;0.049775999039411545;-0.1454239934682846;1.1624159812927246;0.0;0.0;0.0
1771;0.0;0.0;0.0;0.06539200246334076;-0.13761599361896515;1.1136159896850586;0.0;0.0;0.0
1774;0.0;0.0;0.0;0.07710400223731995;-0.16103999316692352;1.1175199747085571;0.0;0.0;0.0
1776;-0.05441199988126755;-0.005367999896407127;1.0062559843063354;0.0849120020866394;-0.15323199331760406;1.122399926185608;-17.591875076293945;-24.946250915527344;-6.912499904632568
1778;0.0;0.0;0.0;0.1268799901008606;-0.17665599286556244;1.1136159896850586;0.0;0.0;0.0
1780;0.0;0.0;0.0;0.13078400492668152;-0.12590399384498596;1.1058080196380615;0.0;0.0;0.0
1782;0.0;0.0;0.0;0.12297599762678146;-0.14932799339294434;1.0892159938812256;0.0;0.0;0.0
1784;-0.004879999905824661;-0.013175999745726585;0.9708759784698486;0.1268799901008606;-0.1298079937696457;1.0814080238342285;-17.10187530517578;-23.896251678466797;-8.802499771118164
1786;0.0;0.0;0.0;0.15030398964881897;-0.15323199331760406;1.0687199831008911;0.0;0.0;0.0
1788;0.0;0.0;0.0;0.1424959897994995;-0.14151999354362488;1.0326080322265625;0.0;0.0;0.0
1791;0.0;0.0;0.0;0.1542080044746399;-0.1571359932422638;1.060912013053894;0.0;0.0;0.0
1793;0.037331998348236084;-0.018300000578165054;0.9401319622993469;0.1698240041732788;-0.16103999316692352;1.044319987297058;-14.651875495910645;-18.856250762939453;-9.782500267028809
1795;0.0;0.0;0.0;0.18934398889541626;-0.14932799339294434;1.0570080280303955;0.0;0.0;0.0
1797;0.0;0.0;0.0;0.20105600357055664;-0.16494399309158325;1.0326080322265625;0.0;0.0;0.0
1799;0.0;0.0;0.0;0.18544000387191772;-0.16103999316692352;1.0570080280303955;0.0;0.0;0.0
1801;0.06880799680948257;-0.023667998611927032;0.9235399961471558;0.20105600357055664;-0.15323199331760406;1.0491999387741089;-9.961874961853027;-11.646249771118164;-9.22249984741211
1803;0.0;0.0;0.0;0.20105600357055664;-0.1454239934682846;1.060912013053894;0.0;0.0;0.0
1805;0.0;0.0;0.0;0.19324800372123718;-0.16494399309158325;1.0570080280303955;0.0;0.0;0.0
1808;0.0;0.0;0.0;0.19324800372123718;-0.15323199331760406;1.0482239723205566;0.0;0.0;0.0
1810;0.07393199950456619;-0.03294000029563904;0.9330559968948364;0.18544000387191772;-0.16103999316692352;1.0648159980773926;-3.241874933242798;-3.036249876022339;-7.122499942779541
1812;0.0;0.0;0.0;0.1815359890460968;-0.1727519929409027;1.0775039196014404;0.0;0.0;0.0
1814;0.0;0.0;0.0;0.1698240041732788;-0.16103999316692352;1.0931199789047241;0.0;0.0;0.0
1816;0.0;0.0;0.0;0.13859200477600098;-0.17665599286556244;1.126304030418396;0.0;0.0;0.0
1818;0.04270000010728836;-0.03294000029563904;0.9662399888038635;0.13468798995018005;-0.16494399309158325;1.101904034614563;3.828125;5.923749923706055;-5.722499847412109
1821;0.0;0.0;0.0;0.10052800178527832;-0.13761599361896515;1.1380159854888916;0.0;0.0;0.0
1822;0.0;0.0;0.0;0.11224000155925751;-0.16494399309158325;1.126304030418396;0.0;0.0;0.0
1825;0.0;0.0;0.0;0.12297599762678146;-0.1571359932422638;1.1419199705123901;0.0;0.0;0.0
1827;-0.008051999844610691;-0.01878799870610237;1.0040600299835205;0.06539200246334076;-0.1298079937696457;1.146799921989441;8.448124885559082;10.613750457763672;-6.002499580383301
1829;0.0;0.0;0.0;0.08881600201129913;-0.16494399309158325;1.1419199705123901;0.0;0.0;0.0
1831;0.0;0.0;0.0;0.057583998888731;-0.12590399384498596;1.1624159812927246;0.0;0.0;0.0
1833;0.0;0.0;0.0;0.07710400223731995;-0.12199999392032623;1.1663199663162231;0.0;0.0;0.0
1835;-0.047091998159885406;0.007807999849319458;1.0287039279937744;0.0849120020866394;-0.07515199482440948;1.1546080112457275;9.848124504089355;8.163749694824219;-7.19249963760376
1838;0.0;0.0;0.0;0.07320000231266022;-0.08295999467372894;1.1702239513397217;0.0;0.0;0.0
1840;0.0;0.0;0.0;0.06148799881339073;-0.09857599437236786;1.175104022026062;0.0;0.0;0.0
1842;0.0;0.0;0.0;0.07710400223731995;-0.08686399459838867;1.175104022026062;0.0;0.0;0.0
1844;-0.05148399993777275;0.05538799986243248;1.046515941619873;0.053679998964071274;-0.04782399907708168;1.1712000370025635;8.378124237060547;2.0737500190734863;-8.032500267028809
1846;0.0;0.0;0.0;0.08100800216197968;-0.05563199892640114;1.1712000370025635;0.0;0.0;0.0
1848;0.0;0.0;0.0;0.06929600238800049;-0.04391999915242195;1.1790080070495605;0.0;0.0;0.0
1850;0.0;0.0;0.0;0.0849120020866394;-0.024399999529123306;1.1790080070495605;0.0;0.0;0.0
1852;-0.03611199930310249;0.08930400013923645;1.0482239723205566;0.08100800216197968;-0.04391999915242195;1.1712000370025635;4.598124980926514;-3.8762497901916504;-7.892499923706055
1855;0.0;0.0;0.0;0.09272000193595886;-0.04001599922776222;1.1380159854888916;0.0;0.0;0.0
1857;0.0;0.0;0.0;0.11126399785280228;-0.05563199892640114;1.175104022026062;0.0;0.0;0.0
1859;0.0;0.0;0.0;0.1424959897994995;-0.03611199930310249;1.1907199621200562;0.0;0.0;0.0
1861;-0.01439599972218275;0.09686800092458725;1.038219928741455;0.12297599762678146;-0.01659199967980385;1.1546080112457275;0.048124998807907104;-8.216249465942383;-6.702499866485596
1863;0.0;0.0;0.0;0.10443200170993805;-0.020495999604463577;1.1380159854888916;0.0;0.0;0.0
1865;0.0;0.0;0.0;0.115167997777462;-0.03611199930310249;1.1546080112457275;0.0;0.0;0.0
1867;0.0;0.0;0.0;0.13859200477600098;-0.04391999915242195;1.126304030418396;0.0;0.0;0.0
1869;0.004635999910533428;0.0924759954214096;1.030900001525879;0.14640000462532043;-0.028303999453783035;1.1624159812927246;-5.831874847412109;-10.036250114440918;-4.672499656677246
1872;0.0;0.0;0.0;0.16591998934745789;-0.05953599885106087;1.1136159896850586;0.0;0.0;0.0
1874;0.0;0.0;0.0;0.13859200477600098;-0.07124799489974976;1.1419199705123901;0.0;0.0;0.0
1876;0.0;0.0;0.0;0.14640000462532043;-0.07124799489974976;1.122399926185608;0.0;0.0;0.0
1878;0.018300000578165054;0.06929600238800049;1.0013760328292847;0.115167997777462;-0.0634399950504303;1.122399926185608;-9.961874961853027;-11.716249465942383;-1.5225000381469727
1880;0.0;0.0;0.0;0.14347200095653534;-0.08295999467372894;1.1058080196380615;0.0;0.0;0.0
1882;0.0;0.0;0.0;0.13078400492668152;-0.1180959939956665;1.1175199747085571;0.0;0.0;0.0
1884;0.0;0.0;0.0;0.1424959897994995;-0.13371199369430542;1.1058080196380615;0.0;0.0;0.0
1886;0.008539999835193157;0.024887999519705772;0.9796599745750427;0.1268799901008606;-0.11419199407100677;1.097999930381775;-10.871875762939453;-13.396249771118164;1.1375000476837158
1889;0.0;0.0;0.0;0.13468798995018005;-0.13761599361896515;1.0775039196014404;0.0;0.0;0.0
1891;0.0;0.0;0.0;0.10833600163459778;-0.16103999316692352;1.0775039196014404;0.0;0.0;0.0
1893;0.0;0.0;0.0;0.1424959897994995;-0.19227199256420135;1.085312008857727;0.0;0.0;0.0
1895;0.00317199993878603;-0.020495999604463577;0.965507984161377;0.13078400492668152;-0.17665599286556244;1.101904034614563;-9.611875534057617;-12.696249961853027;2.1875
1897;0.0;0.0;0.0;0.13859200477600098;-0.1727519929409027;1.0931199789047241;0.0;0.0;0.0
1899;0.0;0.0;0.0;0.15030398964881897;-0.17665599286556244;1.0931199789047241;0.0;0.0;0.0
1901;0.0;0.0;0.0;0.13078400492668152;-0.19617599248886108;1.0892159938812256;0.0;0.0;0.0
1903;0.005367999896407127;-0.04391999915242195;0.9552599787712097;0.12297599762678146;-0.18836799263954163;1.0814080238342285;-7.581874847412109;-10.666250228881836;1.347499966621399
1906;0.0;0.0;0.0;0.11907199770212173;-0.2000799924135208;1.0775039196014404;0.0;0.0;0.0
1908;0.0;0.0;0.0;0.11907199770212173;-0.18055999279022217;1.1058080196380615;0.0;0.0;0.0
1910;0.0;0.0;0.0;0.1542080044746399;-0.16884799301624298;1.0648159980773926;0.0;0.0;0.0
1912;0.01659199967980385;-0.05075199902057648;0.9633119702339172;0.1698240041732788;-0.1727519929409027;1.0892159938812256;-5.271874904632568;-7.586249828338623;-0.05250000208616257
1914;0.0;0.0;0.0;0.13859200477600098;-0.18055999279022217;1.1058080196380615;0.0;0.0;0.0
1916;0.0;0.0;0.0;0.13468798995018005;-0.1727519929409027;1.1136159896850586;0.0;0.0;0.0
1918;0.0;0.0;0.0;0.13468798995018005;-0.2000799924135208;1.097999930381775;0.0;0.0;0.0
1920;0.011223999783396721;-0.056120000779628754;0.9708759784698486;0.13468798995018005;-0.18055999279022217;1.1058080196380615;-3.101874828338623;-4.016250133514404;-1.2425000667572021
1923;0.0;0.0;0.0;0.11907199770212173;-0.20398399233818054;1.0814080238342285;0.0;0.0;0.0
1925;0.0;0.0;0.0;0.1424959897994995;-0.20788799226284027;1.1136159896850586;0.0;0.0;0.0
1927;0.0;0.0;0.0;0.11907199770212173;-0.18836799263954163;1.0892159938812256;0.0;0.0;0.0
1929;0.008051999844610691;-0.05660799890756607;0.9718520045280457;0.1268799901008606;-0.18836799263954163;1.097999930381775;-0.721875011920929;-0.5162500143051147;-3.692500114440918
1931;0.0;0.0;0.0;0.1268799901008606;-0.1727519929409027;1.0775039196014404;0.0;0.0;0.0
1933;0.0;0.0;0.0;0.12297599762678146;-0.1844639927148819;1.1136159896850586;0.0;0.0;0.0
1935;0.0;0.0;0.0;0.1268799901008606;-0.1844639927148819;1.1136159896850586;0.0;0.0;0.0
1937;0.006099999882280827;-0.05172799900174141;0.9716079831123352;0.1542080044746399;-0.1844639927148819;1.1058080196380615;1.0981249809265137;1.3037500381469727;-5.582499980926514
1940;0.0;0.0;0.0;0.13859200477600098;-0.1727519929409027;1.0931199789047241;0.0;0.0;0.0
1942;0.0;0.0;0.0;0.14640000462532043;-0.16494399309158325;1.101904034614563;0.0;0.0;0.0
1944;0.0;0.0;0.0;0.1424959897994995;-0.14151999354362488;1.126304030418396;0.0;0.0;0.0
1946;0.009759999811649323;-0.0348920002579689;0.9840520024299622;0.13078400492668152;-0.14932799339294434;1.10971200466156;1.7981250286102295;1.3037500381469727;-6.28249979019165
1948;0.0;0.0;0.0;0.11907199770212173;-0.1571359932422638;1.1302080154418945;0.0;0.0;0.0
1950;0.0;0.0;0.0;0.1424959897994995;-0.14932799339294434;1.1302080154418945;0.0;0.0;0.0
1952;0.0;0.0;0.0;0.13859200477600098;-0.1571359932422638;1.1419199705123901;0.0;0.0;0.0
1954;0.013907999731600285;-0.019519999623298645;1.0008879899978638;0.13468798995018005;-0.16103999316692352;1.150704026222229;0.6781249642372131;0.39375001192092896;-6.422499656677246
1957;0.0;0.0;0.0;0.13859200477600098;-0.1298079937696457;1.146799921989441;0.0;0.0;0.0
1959;0.0;0.0;0.0;0.10833600163459778;-0.16103999316692352;1.122399926185608;0.0;0.0;0.0
1961;0.0;0.0;0.0;0.12297599762678146;-0.13371199369430542;1.146799921989441;0.0;0.0;0.0
1963;0.009759999811649323;-0.010979999788105488;1.0089399814605713;0.11126399785280228;-0.13761599361896515;1.1419199705123901;-1.70187509059906;-0.23625001311302185;-5.652499675750732
1965;0.0;0.0;0.0;0.10052800178527832;-0.12590399384498596;1.1458239555358887;0.0;0.0;0.0
1967;0.0;0.0;0.0;0.09662400186061859;-0.1298079937696457;1.146799921989441;0.0;0.0;0.0
1969;0.0;0.0;0.0;0.10052800178527832;-0.1571359932422638;1.134112000465393;0.0;0.0;0.0
1971;-0.007563999854028225;-0.01195599976927042;1.006011962890625;0.10833600163459778;-0.13761599361896515;1.134112000465393;-3.5218749046325684;-1.496250033378601;-4.602499961853027
1974;0.0;0.0;0.0;0.10345599800348282;-0.16884799301624298;1.1136159896850586;0.0;0.0;0.0
1976;0.0;0.0;0.0;0.08881600201129913;-0.1454239934682846;1.1058080196380615;0.0;0.0;0.0
1978;0.0;0.0;0.0;0.10345599800348282;-0.16103999316692352;1.10971200466156;0.0;0.0;0.0
1980;-0.028547998517751694;-0.02000799961388111;0.9911279678344727;0.10735999792814255;-0.16494399309158325;1.097999930381775;-4.221874713897705;-3.526249885559082;-4.742499828338623
1982;0.0;0.0;0.0;0.11224000155925751;-0.16494399309158325;1.1175199747085571;0.0;0.0;0.0
1984;0.0;0.0;0.0;0.10735999792814255;-0.16494399309158325;1.0970239639282227;0.0;0.0;0.0
1986;0.0;0.0;0.0;0.09662400186061859;-0.1571359932422638;1.0931199789047241;0.0;0.0;0.0
1988;-0.029767999425530434;-0.034648001194000244;0.9772199988365173;0.09662400186061859;-0.18055999279022217;1.085312008857727;-3.9418749809265137;-5.136250019073486;-5.932499885559082
1991;0.0;0.0;0.0;0.09662400186061859;-0.2000799924135208;1.0931199789047241;0.0;0.0;0.0
1993;0.0;0.0;0.0;0.0849120020866394;-0.20398399233818054;1.097999930381775;0.0;0.0;0.0
1995;0.0;0.0;0.0;0.08100800216197968;-0.1844639927148819;1.101904034614563;0.0;0.0;0.0
1997;-0.024643998593091965;-0.05441199988126755;0.9625799655914307;0.09955199807882309;-0.2235039919614792;1.0814080238342285;-3.031874895095825;-6.536250114440918;-7.612499713897705
1999;0.0;0.0;0.0;0.12297599762678146;-0.20398399233818054;1.085312008857727;0.0;0.0;0.0
2001;0.0;0.0;0.0;0.115167997777462;-0.20788799226284027;1.0814080238342285;0.0;0.0;0.0
2003;0.0;0.0;0.0;0.13859200477600098;-0.20788799226284027;1.0814080238342285;0.0;0.0;0.0
2005;0.0056119998916983604;-0.06905199587345123;0.9601399898529053;0.15811198949813843;-0.2235039919614792;1.0775039196014404;-1.4918750524520874;-7.37624979019165;-8.802499771118164
2008;0.0;0.0;0.0;0.1542080044746399;-0.21959999203681946;1.0814080238342285;0.0;0.0;0.0
2010;0.0;0.0;0.0;0.14640000462532043;-0.20398399233818054;1.085312008857727;0.0;0.0;0.0
2012;0.0;0.0;0.0;0.13468798995018005;-0.20788799226284027;1.1058080196380615;0.0;0.0;0.0
2014;0.030743999406695366;-0.0773480013012886;0.9686799645423889;0.13468798995018005;-0.21569599211215973;1.126304030418396;-0.2318750023841858;-5.90625;-9.292499542236328
2016;0.0;0.0;0.0;0.1698240041732788;-0.23131199181079865;1.1136159896850586;0.0;0.0;0.0
2018;0.0;0.0;0.0;0.15811198949813843;-0.2547360062599182;1.0892159938812256;0.0;0.0;0.0
2020;0.0;0.0;0.0;0.14640000462532043;-0.22740799188613892;1.0775039196014404;0.0;0.0;0.0
2022;0.029279999434947968;-0.08759599924087524;0.9679479598999023;0.15811198949813843;-0.21959999203681946;1.0892159938812256;1.0281249284744263;-2.896250009536743;-9.782500267028809
2025;0.0;0.0;0.0;0.11907199770212173;-0.23521599173545837;1.0931199789047241;0.0;0.0;0.0
2027;0.0;0.0;0.0;0.1424959897994995;-0.20398399233818054;1.0931199789047241;0.0;0.0;0.0
2029;0.0;0.0;0.0;0.13468798995018005;-0.19227199256420135;1.0775039196014404;0.0;0.0;0.0
2031;0.020495999604463577;-0.0802759975194931;0.9657520055770874;0.15030398964881897;-0.21569599211215973;1.085312008857727;2.4281251430511475;1.1637500524520874;-11.602499961853027
2033;0.0;0.0;0.0;0.1542080044746399;-0.1727519929409027;1.085312008857727;0.0;0.0;0.0
2035;0.0;0.0;0.0;0.15030398964881897;-0.16884799301624298;1.101904034614563;0.0;0.0;0.0
2037;0.0;0.0;0.0;0.17372798919677734;-0.16884799301624298;1.1136159896850586;0.0;0.0;0.0
2039;0.027327999472618103;-0.04782399907708168;0.9720959663391113;0.13859200477600098;-0.14932799339294434;1.085312008857727;2.9181251525878906;5.013750076293945;-13.0024995803833
2042;0.0;0.0;0.0;0.1542080044746399;-0.1571359932422638;1.097999930381775;0.0;0.0;0.0
2044;0.0;0.0;0.0;0.1542080044746399;-0.1454239934682846;1.1175199747085571;0.0;0.0;0.0
2046;0.0;0.0;0.0;0.12297599762678146;-0.1571359932422638;1.122399926185608;0.0;0.0;0.0
2048;0.013663999736309052;-0.023667998611927032;0.9794159531593323;0.13468798995018005;-0.16103999316692352;1.1302080154418945;3.0581250190734863;8.023750305175781;-12.65250015258789
2050;0.0;0.0;0.0;0.11907199770212173;-0.14151999354362488;1.1058080196380615;0.0;0.0;0.0
2052;0.0;0.0;0.0;0.1268799901008606;-0.16103999316692352;1.1175199747085571;0.0;0.0;0.0
2054;0.0;0.0;0.0;0.10833600163459778;-0.1298079937696457;1.1058080196380615;0.0;0.0;0.0
2056;0.0004879999905824661;-0.01781199872493744;0.9864919781684875;0.10052800178527832;-0.1454239934682846;1.1058080196380615;4.598124980926514;10.123749732971191;-12.232500076293945
2059;0.0;0.0;0.0;0.11126399785280228;-0.15323199331760406;1.122399926185608;0.0;0.0;0.0
2061;0.0;0.0;0.0;0.13468798995018005;-0.16103999316692352;1.122399926185608;0.0;0.0;0.0
2063;0.0;0.0;0.0;0.09662400186061859;-0.15323199331760406;1.134112000465393;0.0;0.0;0.0
2065;-0.009027999825775623;-0.010003999806940556;0.9923479557037354;0.09662400186061859;-0.14151999354362488;1.122399926185608;7.258125305175781;10.823750495910645;-12.302499771118164
2067;0.0;0.0;0.0;0.08881600201129913;-0.16494399309158325;1.1136159896850586;0.0;0.0;0.0
2069;0.0;0.0;0.0;0.10052800178527832;-0.13371199369430542;1.1302080154418945;0.0;0.0;0.0
2071;0.0;0.0;0.0;0.12297599762678146;-0.1298079937696457;1.146799921989441;0.0;0.0;0.0
2073;-0.02391199953854084;-0.0029279999434947968;1.0013760328292847;0.09272000193595886;-0.14932799339294434;1.122399926185608;9.148124694824219;10.4037504196167;-12.302499771118164
2076;0.0;0.0;0.0;0.10345599800348282;-0.11419199407100677;1.134112000465393;0.0;0.0;0.0
2078;0.0;0.0;0.0;0.115167997777462;-0.1180959939956665;1.134112000465393;0.0;0.0;0.0
2080;0.0;0.0;0.0;0.09662400186061859;-0.11419199407100677;1.122399926185608;0.0;0.0;0.0
2082;-0.02147199958562851;0.017324000597000122;1.0043039321899414;0.10735999792814255;-0.10638399422168732;1.1546080112457275;9.358124732971191;7.953750133514404;-12.022500038146973
2084;0.0;0.0;0.0;0.08881600201129913;-0.08686399459838867;1.1380159854888916;0.0;0.0;0.0
2086;0.0;0.0;0.0;0.08881600201129913;-0.12199999392032623;1.126304030418396;0.0;0.0;0.0
2088;0.0;0.0;0.0;0.0849120020866394;-0.11419199407100677;1.1419199705123901;0.0;0.0;0.0
2090;-0.03171999752521515;0.015615999698638916;1.0045479536056519;0.06148799881339073;-0.1454239934682846;1.10971200466156;7.818125247955322;6.833750247955322;-11.8125
2093;0.0;0.0;0.0;0.07710400223731995;-0.10247999429702759;1.1136159896850586;0.0;0.0;0.0
2095;0.0;0.0;0.0;0.08100800216197968;-0.14151999354362488;1.1175199747085571;0.0;0.0;0.0
2097;0.0;0.0;0.0;0.03806399926543236;-0.1298079937696457;1.1175199747085571;0.0;0.0;0.0
2099;-0.05636399984359741;0.004391999915242195;0.9977160096168518;0.06148799881339073;-0.11419199407100677;1.1380159854888916;5.718125343322754;7.883749961853027;-14.262499809265137
2101;0.0;0.0;0.0;0.049775999039411545;-0.15323199331760406;1.1136159896850586;0.0;0.0;0.0
2103;0.0;0.0;0.0;0.06148799881339073;-0.1298079937696457;1.122399926185608;0.0;0.0;0.0
2105;0.0;0.0;0.0;0.06148799881339073;-0.13371199369430542;1.122399926185608;0.0;0.0;0.0
2107;-0.06709999591112137;-0.00024399999529123306;0.9903959631919861;0.06539200246334076;-0.12590399384498596;1.1058080196380615;4.948124885559082;7.743750095367432;-16.99250030517578
2110;0.0;0.0;0.0;0.057583998888731;-0.11028799414634705;1.10971200466156;0.0;0.0;0.0
2112;0.0;0.0;0.0;0.07710400223731995;-0.1298079937696457;1.134112000465393;0.0;0.0;0.0
2114;0.0;0.0;0.0;0.07710400223731995;-0.10247999429702759;1.1302080154418945;0.0;0.0;0.0
2116;-0.06197600066661835;0.014639999717473984;0.994055986404419;0.06539200246334076;-0.09857599437236786;1.101904034614563;5.018125057220459;7.46375036239624;-19.092500686645508
2118;0.0;0.0;0.0;0.0849120020866394;-0.12590399384498596;1.122399926185608;0.0;0.0;0.0
2120;0.0;0.0;0.0;0.08881600201129913;-0.08686399459838867;1.122399926185608;0.0;0.0;0.0
2122;0.0;0.0;0.0;0.07710400223731995;-0.08686399459838867;1.1380159854888916;0.0;0.0;0.0
2124;-0.05416800081729889;0.03391600027680397;1.0006439685821533;0.07320000231266022;-0.1298079937696457;1.1136159896850586;5.088125228881836;7.883749961853027;-19.792499542236328
2127;0.0;0.0;0.0;0.049775999039411545;-0.07515199482440948;1.134112000465393;0.0;0.0;0.0
2129;0.0;0.0;0.0;0.07710400223731995;-0.09857599437236786;1.158511996269226;0.0;0.0;0.0
2131;0.0;0.0;0.0;0.06539200246334076;-0.05563199892640114;1.1175199747085571;0.0;0.0;0.0
2133;-0.05245999991893768;0.05172799900174141;1.0116239786148071;0.07710400223731995;-0.08686399459838867;1.158511996269226;5.438125133514404;7.253750324249268;-18.672500610351562
2135;0.0;0.0;0.0;0.057583998888731;-0.09467199444770813;1.134112000465393;0.0;0.0;0.0
2137;0.0;0.0;0.0;0.03415999934077263;-0.05953599885106087;1.146799921989441;0.0;0.0;0.0
2139;0.0;0.0;0.0;0.06539200246334076;-0.08686399459838867;1.126304030418396;0.0;0.0;0.0
2141;-0.05929199978709221;0.057583998888731;1.0099159479141235;0.07320000231266022;-0.07124799489974976;1.1428959369659424;5.998125076293945;4.943749904632568;-16.15250015258789
2144;0.0;0.0;0.0;0.018543999642133713;-0.07515199482440948;1.150704026222229;0.0;0.0;0.0
2146;0.0;0.0;0.0;0.06148799881339073;-0.07124799489974976;1.122399926185608;0.0;0.0;0.0
2148;0.0;0.0;0.0;0.053679998964071274;-0.08295999467372894;1.1302080154418945;0.0;0.0;0.0
2150;-0.06685599684715271;0.057339999824762344;1.0028399229049683;0.057583998888731;-0.05563199892640114;1.1136159896850586;6.69812536239624;1.09375;-13.702499389648438
2152;0.0;0.0;0.0;0.06539200246334076;-0.07124799489974976;1.126304030418396;0.0;0.0;0.0
2154;0.0;0.0;0.0;0.06539200246334076;-0.10247999429702759;1.1458239555358887;0.0;0.0;0.0
2156;0.0;0.0;0.0;0.02635199949145317;-0.09467199444770813;1.134112000465393;0.0;0.0;0.0
2158;-0.06880799680948257;0.0558759979903698;1.0062559843063354;0.045871999114751816;-0.10247999429702759;1.1624159812927246;7.048125267028809;-2.826249837875366;-11.882499694824219
2161;0.0;0.0;0.0;0.04196799919009209;-0.10638399422168732;1.1302080154418945;0.0;0.0;0.0
2163;0.0;0.0;0.0;0.06539200246334076;-0.0634399950504303;1.1546080112457275;0.0;0.0;0.0
2165;0.0;0.0;0.0;0.04196799919009209;-0.07905599474906921;1.1546080112457275;0.0;0.0;0.0
2167;-0.06929600238800049;0.04806799814105034;1.0155279636383057;0.045871999114751816;-0.09857599437236786;1.1428959369659424;6.208125114440918;-6.676249980926514;-10.692500114440918
2169;0.0;0.0;0.0;0.06539200246334076;-0.09467199444770813;1.1175199747085571;0.0;0.0;0.0
2171;0.0;0.0;0.0;0.03415999934077263;-0.0907679945230484;1.1624159812927246;0.0;0.0;0.0
2173;0.0;0.0;0.0;0.02635199949145317;-0.10247999429702759;1.1380159854888916;0.0;0.0;0.0
2175;-0.0680759996175766;0.04416399821639061;1.0150399208068848;0.03415999934077263;-0.09467199444770813;1.1428959369659424;4.038125038146973;-10.456250190734863;-11.112500190734863
2178;0.0;0.0;0.0;0.045871999114751816;-0.0907679945230484;1.134112000465393;0.0;0.0;0.0
2180;0.0;0.0;0.0;0.06148799881339073;-0.09467199444770813;1.1380159854888916;0.0;0.0;0.0
2182;0.0;0.0;0.0;0.04196799919009209;-0.09467199444770813;1.122399926185608;0.0;0.0;0.0
2184;-0.05538799986243248;0.03635599836707115;1.0021079778671265;0.07710400223731995;-0.09857599437236786;1.1136159896850586;1.5181249380111694;-11.576250076293945;-13.0024995803833
2186;0.0;0.0;0.0;0.08100800216197968;-0.09467199444770813;1.1058080196380615;0.0;0.0;0.0
2188;0.0;0.0;0.0;0.08100800216197968;-0.09467199444770813;1.1302080154418945;0.0;0.0;0.0
2190;0.0;0.0;0.0;0.049775999039411545;-0.07905599474906921;1.1302080154418945;0.0;0.0;0.0
2192;-0.04879999905824661;0.040991999208927155;0.9791719913482666;0.045871999114751816;-0.08295999467372894;1.0814080238342285;-0.7918750047683716;-9.966249465942383;-14.052499771118164
2195;0.0;0.0;0.0;0.08881600201129913;-0.11419199407100677;1.10971200466156;0.0;0.0;0.0
2197;0.0;0.0;0.0;0.08100800216197968;-0.0907679945230484;1.097999930381775;0.0;0.0;0.0
2199;0.0;0.0;0.0;0.06929600238800049;-0.08686399459838867;1.101904034614563;0.0;0.0;0.0
2201;-0.045871999114751816;0.05392399802803993;0.9647759795188904;0.07710400223731995;-0.07124799489974976;1.085312008857727;-1.9118750095367432;-6.886250019073486;-15.102499961853027
2203;0.0;0.0;0.0;0.09272000193595886;-0.07124799489974976;1.101904034614563;0.0;0.0;0.0
2205;0.0;0.0;0.0;0.11126399785280228;-0.07515199482440948;1.085312008857727;0.0;0.0;0.0
2207;0.0;0.0;0.0;0.09955199807882309;-0.0907679945230484;1.0814080238342285;0.0;0.0;0.0
2209;-0.0287919994443655;0.059779997915029526;0.9537959694862366;0.10833600163459778;-0.08686399459838867;1.0814080238342285;-1.6318750381469727;-3.3862500190734863;-14.40250015258789
2212;0.0;0.0;0.0;0.09662400186061859;-0.07124799489974976;1.0726239681243896;0.0;0.0;0.0
2214;0.0;0.0;0.0;0.10443200170993805;-0.07905599474906921;1.097999930381775;0.0;0.0;0.0
2216;0.0;0.0;0.0;0.09662400186061859;-0.09467199444770813;1.085312008857727;0.0;0.0;0.0
2218;-0.010735999792814255;0.05148399993777275;0.9574559926986694;0.08881600201129913;-0.08686399459838867;1.0931199789047241;0.8181250095367432;-0.09624999761581421;-11.322500228881836
2220;0.0;0.0;0.0;0.10735999792814255;-0.10638399422168732;1.0931199789047241;0.0;0.0;0.0
2222;0.0;0.0;0.0;0.0849120020866394;-0.11028799414634705;1.1136159896850586;0.0;0.0;0.0
2224;0.0;0.0;0.0;0.09272000193595886;-0.11419199407100677;1.134112000465393;0.0;0.0;0.0
2226;-0.02122800052165985;0.04391999915242195;0.9830759763717651;0.0849120020866394;-0.0907679945230484;1.1380159854888916;3.898125171661377;2.213750123977661;-7.962499618530273
2229;0.0;0.0;0.0;0.07320000231266022;-0.09857599437236786;1.1458239555358887;0.0;0.0;0.0
2231;0.0;0.0;0.0;0.057583998888731;-0.09467199444770813;1.146799921989441;0.0;0.0;0.0
2233;0.0;0.0;0.0;0.06148799881339073;-0.11419199407100677;1.134112000465393;0.0;0.0;0.0
2235;-0.04684799909591675;0.04367600008845329;1.0089399814605713;0.07320000231266022;-0.0907679945230484;1.1380159854888916;5.298125267028809;1.5137499570846558;-6.212499618530273
2237;0.0;0.0;0.0;0.06148799881339073;-0.08686399459838867;1.146799921989441;0.0;0.0;0.0
2239;0.0;0.0;0.0;0.06148799881339073;-0.0907679945230484;1.158511996269226;0.0;0.0;0.0
2241;0.0;0.0;0.0;0.06929600238800049;-0.09467199444770813;1.1380159854888916;0.0;0.0;0.0
2244;-0.05782799795269966;0.04196799919009209;1.0152839422225952;0.06539200246334076;-0.07515199482440948;1.1419199705123901;4.318125247955322;-3.036249876022339;-5.44249963760376
2246;0.0;0.0;0.0;0.057583998888731;-0.07515199482440948;1.1419199705123901;0.0;0.0;0.0
2248;0.0;0.0;0.0;0.0849120020866394;-0.11028799414634705;1.122399926185608;0.0;0.0;0.0
2250;0.0;0.0;0.0;0.09662400186061859;-0.0907679945230484;1.122399926185608;0.0;0.0;0.0
2252;-0.044652000069618225;0.031231999397277832;1.00381600856781;0.08100800216197968;-0.10638399422168732;1.1380159854888916;2.4281251430511475;-8.356249809265137;-4.53249979019165
2254;0.0;0.0;0.0;0.08881600201129913;-0.11419199407100677;1.1175199747085571;0.0;0.0;0.0
2256;0.0;0.0;0.0;0.07320000231266022;-0.11028799414634705;1.1302080154418945;0.0;0.0;0.0
2258;0.0;0.0;0.0;0.09662400186061859;-0.09857599437236786;1.097999930381775;0.0;0.0;0.0
2261;-0.020739998668432236;0.022204000502824783;0.9891759753227234;0.1268799901008606;-0.11028799414634705;1.1058080196380615;1.6581250429153442;-11.926249504089355;-3.4125001430511475
2263;0.0;0.0;0.0;0.11126399785280228;-0.1298079937696457;1.0892159938812256;0.0;0.0;0.0
2265;0.0;0.0;0.0;0.1424959897994995;-0.11028799414634705;1.1058080196380615;0.0;0.0;0.0
2267;0.0;0.0;0.0;0.12297599762678146;-0.10247999429702759;1.0931199789047241;0.0;0.0;0.0
2269;-0.008051999844610691;0.018300000578165054;0.9730719923973083;0.10735999792814255;-0.10638399422168732;1.0931199789047241;2.2881250381469727;-13.326250076293945;-1.5225000381469727
2271;0.0;0.0;0.0;0.09662400186061859;-0.12199999392032623;1.073599934577942;0.0;0.0;0.0
2273;0.0;0.0;0.0;0.12297599762678146;-0.10638399422168732;1.0814080238342285;0.0;0.0;0.0
2275;0.0;0.0;0.0;0.07320000231266022;-0.1180959939956665;1.10971200466156;0.0;0.0;0.0
2278;-0.015859998762607574;0.020983999595046043;0.9674599766731262;0.0849120020866394;-0.1180959939956665;1.1058080196380615;3.408125162124634;-12.486249923706055;1.0674999952316284
2280;0.0;0.0;0.0;0.0849120020866394;-0.09857599437236786;1.097999930381775;0.0;0.0;0.0
2282;0.0;0.0;0.0;0.09272000193595886;-0.11419199407100677;1.101904034614563;0.0;0.0;0.0
2284;0.0;0.0;0.0;0.07320000231266022;-0.10247999429702759;1.1058080196380615;0.0;0.0;0.0
2286;-0.035868000239133835;0.023180000483989716;0.9757559895515442;0.08881600201129913;-0.13371199369430542;1.101904034614563;4.178124904632568;-12.766249656677246;3.447499990463257
2288;0.0;0.0;0.0;0.06148799881339073;-0.11419199407100677;1.101904034614563;0.0;0.0;0.0
2290;0.0;0.0;0.0;0.08881600201129913;-0.0907679945230484;1.1058080196380615;0.0;0.0;0.0
2292;0.0;0.0;0.0;0.04196799919009209;-0.13371199369430542;1.126304030418396;0.0;0.0;0.0
2295;-0.048555999994277954;0.020495999604463577;0.9886879920959473;0.08100800216197968;-0.12199999392032623;1.101904034614563;4.10812520980835;-15.56624984741211;4.427500247955322
2297;0.0;0.0;0.0;0.08100800216197968;-0.12199999392032623;1.1380159854888916;0.0;0.0;0.0
2299;0.0;0.0;0.0;0.06148799881339073;-0.12199999392032623;1.134112000465393;0.0;0.0;0.0
2301;0.0;0.0;0.0;0.10833600163459778;-0.13371199369430542;1.1136159896850586;0.0;0.0;0.0
2303;-0.04025999829173088;0.015371999703347683;0.9962520003318787;0.09662400186061859;-0.1180959939956665;1.126304030418396;2.008125066757202;-19.90625;4.357500076293945
2305;0.0;0.0;0.0;0.09955199807882309;-0.12199999392032623;1.10971200466156;0.0;0.0;0.0
2307;0.0;0.0;0.0;0.12004800140857697;-0.14151999354362488;1.101904034614563;0.0;0.0;0.0
2309;0.0;0.0;0.0;0.11907199770212173;-0.1454239934682846;1.1058080196380615;0.0;0.0;0.0
2312;-0.01903199963271618;-0.003659999929368496;0.9821000099182129;0.08881600201129913;-0.16494399309158325;1.0970239639282227;-1.3518750667572021;-22.986251831054688;3.7274999618530273
2314;0.0;0.0;0.0;0.10443200170993805;-0.1571359932422638;1.101904034614563;0.0;0.0;0.0
2316;0.0;0.0;0.0;0.10735999792814255;-0.1844639927148819;1.0892159938812256;0.0;0.0;0.0
2318;0.0;0.0;0.0;0.11126399785280228;-0.16494399309158325;1.101904034614563;0.0;0.0;0.0
2320;-0.009759999811649323;-0.03562399744987488;0.9647759795188904;0.13078400492668152;-0.16884799301624298;1.0775039196014404;-4.151875019073486;-22.146251678466797;1.7675000429153442
2322;0.0;0.0;0.0;0.10833600163459778;-0.20398399233818054;1.0814080238342285;0.0;0.0;0.0
2324;0.0;0.0;0.0;0.11907199770212173;-0.20788799226284027;1.0892159938812256;0.0;0.0;0.0
2326;0.0;0.0;0.0;0.12297599762678146;-0.2000799924135208;1.0775039196014404;0.0;0.0;0.0
2329;-0.010979999788105488;-0.05929199978709221;0.9535520076751709;0.12297599762678146;-0.2000799924135208;1.073599934577942;-5.271874904632568;-14.936249732971191;-2.502500057220459
2331;0.0;0.0;0.0;0.10443200170993805;-0.19227199256420135;1.0648159980773926;0.0;0.0;0.0
2333;0.0;0.0;0.0;0.1268799901008606;-0.2000799924135208;1.0726239681243896;0.0;0.0;0.0
2335;0.0;0.0;0.0;0.12297599762678146;-0.1844639927148819;1.0814080238342285;0.0;0.0;0.0
2337;-0.0024399999529123306;-0.06465999782085419;0.949891984462738;0.12297599762678146;-0.20788799226284027;1.0892159938812256;-4.361875057220459;-4.716249942779541;-7.752499580383301
2339;0.0;0.0;0.0;0.12297599762678146;-0.20398399233818054;1.073599934577942;0.0;0.0;0.0
2341;0.0;0.0;0.0;0.1268799901008606;-0.20788799226284027;1.0726239681243896;0.0;0.0;0.0
2343;0.0;0.0;0.0;0.13468798995018005;-0.17665599286556244;1.0648159980773926;0.0;0.0;0.0
2346;0.007563999854028225;-0.05660799890756607;0.9525759816169739;0.13859200477600098;-0.1727519929409027;1.097999930381775;-1.771875023841858;1.09375;-10.692500114440918
2348;0.0;0.0;0.0;0.12297599762678146;-0.15323199331760406;1.097999930381775;0.0;0.0;0.0
2350;0.0;0.0;0.0;0.13078400492668152;-0.1727519929409027;1.0775039196014404;0.0;0.0;0.0
2352;0.0;0.0;0.0;0.1542080044746399;-0.2117919921875;1.0775039196014404;0.0;0.0;0.0
2354;0.00951599981635809;-0.04001599922776222;0.9596520066261292;0.1424959897994995;-0.13371199369430542;1.0940959453582764;0.6781249642372131;1.3037500381469727;-10.97249984741211
2356;0.0;0.0;0.0;0.11907199770212173;-0.14932799339294434;1.0931199789047241;0.0;0.0;0.0
2358;0.0;0.0;0.0;0.13859200477600098;-0.17665599286556244;1.097999930381775;0.0;0.0;0.0
2360;0.0;0.0;0.0;0.13468798995018005;-0.1571359932422638;1.085312008857727;0.0;0.0;0.0
2363;0.014883999712765217;-0.02781599946320057;0.9740479588508606;0.13468798995018005;-0.14151999354362488;1.1136159896850586;2.2881250381469727;-0.3762499988079071;-10.482500076293945
2365;0.0;0.0;0.0;0.13859200477600098;-0.16494399309158325;1.134112000465393;0.0;0.0;0.0
2367;0.0;0.0;0.0;0.13078400492668152;-0.14151999354362488;1.1302080154418945;0.0;0.0;0.0
2369;0.0;0.0;0.0;0.12297599762678146;-0.1571359932422638;1.10971200466156;0.0;0.0;0.0
2371;0.01634800061583519;-0.015859998762607574;0.9999119639396667;0.13468798995018005;-0.13761599361896515;1.126304030418396;1.5881249904632568;-0.7262499928474426;-11.672499656677246
2373;0.0;0.0;0.0;0.17763200402259827;-0.13761599361896515;1.150704026222229;0.0;0.0;0.0
2375;0.0;0.0;0.0;0.15030398964881897;-0.15323199331760406;1.126304030418396;0.0;0.0;0.0
2377;0.0;0.0;0.0;0.13468798995018005;-0.14932799339294434;1.146799921989441;0.0;0.0;0.0
2380;0.015371999703347683;-0.01512799970805645;1.009671926498413;0.14640000462532043;-0.18055999279022217;1.126304030418396;-1.4918750524520874;0.11374999582767487;-13.212499618530273
2382;0.0;0.0;0.0;0.12297599762678146;-0.12199999392032623;1.1302080154418945;0.0;0.0;0.0
2384;0.0;0.0;0.0;0.1268799901008606;-0.16103999316692352;1.1136159896850586;0.0;0.0;0.0
2386;0.0;0.0;0.0;0.13078400492668152;-0.18836799263954163;1.10971200466156;0.0;0.0;0.0
