Timestamp(ms);LG-Accel x(g);LG-Accel y(g);LG-Accel z(g);HG-Accel x(g);HG-Accel y(g);HG-Accel z(g);Gyro x(dps);Gyro y(dps);Gyro z(dps)
69;0.0;0.0;0.0;0.053679998964071274;-0.013663999736309052;1.1253279447555542;0.0;0.0;0.0
71;0.0;0.0;0.0;0.07320000231266022;0.0019519999623298645;1.1175199747085571;0.0;0.0;0.0
74;0.0;0.0;0.0;0.045871999114751816;-0.02147199958562851;1.0804319381713867;0.0;0.0;0.0
76;0.0;0.0;0.0;0.06148799881339073;0.013663999736309052;1.1048319339752197;0.0;0.0;0.0
78;0.0;0.0;0.0;0.06539200246334076;-0.02147199958562851;1.0931199789047241;0.0;0.0;0.0
80;0.0;0.0;0.0;0.08198399841785431;-0.031231999397277832;1.09116792678833;0.0;0.0;0.0
82;0.0;0.0;0.0;0.07515199482440948;-0.03903999924659729;1.0745760202407837;0.0;0.0;0.0
84;0.0;0.0;0.0;0.07905599474906921;-0.05075199902057648;1.083359956741333;0.0;0.0;0.0
86;-0.044895999133586884;0.10247999429702759;0.9550159573554993;0.07124799489974976;-0.023423999547958374;1.09116792678833;0.0;0.0;0.0
88;0.0;0.0;0.0;0.09857599437236786;-0.031231999397277832;1.0872639417648315;0.0;0.0;0.0
91;0.0;0.0;0.0;0.08295999467372894;-0.058559998869895935;1.0706720352172852;0.0;0.0;0.0
93;0.0;0.0;0.0;0.07124799489974976;-0.058559998869895935;1.066767930984497;0.0;0.0;0.0
95;-0.031231999397277832;0.09393999725580215;0.9437919855117798;0.12199999392032623;-0.03903999924659729;1.0628639459609985;0.0;0.0;0.0
97;0.0;0.0;0.0;0.07222399860620499;-0.031231999397277832;1.0374879837036133;0.0;0.0;0.0
99;0.0;0.0;0.0;0.09857599437236786;-0.05075199902057648;1.0540800094604492;0.0;0.0;0.0
101;0.0;0.0;0.0;0.08393599838018417;-0.058559998869895935;1.0618879795074463;0.0;0.0;0.0
103;-0.024399999529123306;0.08369199931621552;0.9354959726333618;0.09955199807882309;-0.031231999397277832;1.0374879837036133;0.0;0.0;0.0
105;0.0;0.0;0.0;0.06441599875688553;-0.054655998945236206;1.0579839944839478;0.0;0.0;0.0
108;0.0;0.0;0.0;0.08003199845552444;-0.04294399917125702;1.0452959537506104;0.0;0.0;0.0
110;0.0;0.0;0.0;0.0878399983048439;-0.0663679987192154;1.0579839944839478;0.0;0.0;0.0
112;-0.03757599741220474;0.07612799853086472;0.9330559968948364;0.08003199845552444;-0.08588799834251404;1.0618879795074463;0.0;0.0;0.0
114;0.0;0.0;0.0;0.08295999467372894;-0.054655998945236206;1.0589599609375;0.0;0.0;0.0
116;0.0;0.0;0.0;0.0634399950504303;-0.0936959981918335;1.0628639459609985;0.0;0.0;0.0
118;0.0;0.0;0.0;0.05172799900174141;-0.08588799834251404;1.0784800052642822;0.0;0.0;0.0
120;-0.05636399984359741;0.07368800044059753;0.937936007976532;0.0634399950504303;-0.04684799909591675;1.0784800052642822;0.0;0.0;0.0
122;0.0;0.0;0.0;0.08295999467372894;-0.08198399841785431;1.066767930984497;0.0;0.0;0.0
125;0.0;0.0;0.0;0.05563199892640114;-0.058559998869895935;1.066767930984497;0.0;0.0;0.0
127;0.0;0.0;0.0;0.03611199930310249;-0.0663679987192154;1.09116792678833;0.0;0.0;0.0
129;-0.0773480013012886;0.07783599942922592;0.9557479619979858;0.028303999453783035;-0.07417599856853485;1.0872639417648315;13.58437442779541;8.500624656677246;3.9025001525878906
131;0.0;0.0;0.0;0.00878399983048439;-0.03903999924659729;1.1028800010681152;0.0;0.0;0.0
133;0.0;0.0;0.0;0.01659199967980385;-0.031231999397277832;1.1194720268249512;0.0;0.0;0.0
135;0.0;0.0;0.0;0.01268799975514412;-0.027327999472618103;1.1116639375686646;0.0;0.0;0.0
137;-0.09808799624443054;0.09393999725580215;0.9796599745750427;0.032207999378442764;-0.03903999924659729;1.1116639375686646;13.864375114440918;6.120625019073486;3.9025001525878906
140;0.0;0.0;0.0;0.020495999604463577;-0.019519999623298645;1.1477760076522827;0.0;0.0;0.0
142;0.0;0.0;0.0;0.004879999905824661;-0.019519999623298645;1.156559944152832;0.0;0.0;0.0
144;0.0;0.0;0.0;0.0009759999811649323;0.0;1.1116639375686646;0.0;0.0;0.0
146;-0.10711599886417389;0.10735999792814255;1.0021079778671265;0.020495999604463577;-0.015615999698638916;1.1477760076522827;11.904375076293945;3.7406249046325684;2.9225001335144043
148;0.0;0.0;0.0;0.024399999529123306;-0.027327999472618103;1.1272799968719482;0.0;0.0;0.0
150;0.0;0.0;0.0;0.024399999529123306;-0.027327999472618103;1.139967918395996;0.0;0.0;0.0
152;0.0;0.0;0.0;0.01268799975514412;-0.007807999849319458;1.1360639333724976;0.0;0.0;0.0
154;-0.1041879951953888;0.11711999773979187;1.0118680000305176;0.01659199967980385;-0.011711999773979187;1.1438720226287842;8.544374465942383;2.340625047683716;1.4524999856948853
157;0.0;0.0;0.0;0.004879999905824661;-0.019519999623298645;1.1360639333724976;0.0;0.0;0.0
159;0.0;0.0;0.0;0.03611199930310249;-0.019519999623298645;1.1477760076522827;0.0;0.0;0.0
161;0.0;0.0;0.0;0.028303999453783035;-0.023423999547958374;1.132159948348999;0.0;0.0;0.0
163;-0.0924759954214096;0.11760799586772919;1.013819932937622;0.05563199892640114;-0.04294399917125702;1.1438720226287842;5.324374675750732;2.130625009536743;0.33249998092651367
165;0.0;0.0;0.0;0.03611199930310249;-0.015615999698638916;1.1477760076522827;0.0;0.0;0.0
167;0.0;0.0;0.0;0.024399999529123306;-0.04684799909591675;1.1272799968719482;0.0;0.0;0.0
169;0.0;0.0;0.0;0.04001599922776222;-0.027327999472618103;1.139967918395996;0.0;0.0;0.0
171;-0.07295599579811096;0.11004399508237839;1.0062559843063354;0.0634399950504303;-0.03903999924659729;1.1360639333724976;3.29437518119812;2.830625057220459;-0.08749999850988388
174;0.0;0.0;0.0;0.04001599922776222;-0.054655998945236206;1.139967918395996;0.0;0.0;0.0
176;0.0;0.0;0.0;0.07515199482440948;-0.027327999472618103;1.1360639333724976;0.0;0.0;0.0
178;0.0;0.0;0.0;0.05953599885106087;-0.031231999397277832;1.1360639333724976;0.0;0.0;0.0
180;-0.06563600152730942;0.10247999429702759;1.00381600856781;0.05563199892640114;-0.015615999698638916;1.1272799968719482;3.224375009536743;4.090625286102295;0.4025000035762787
182;0.0;0.0;0.0;0.07124799489974976;-0.05075199902057648;1.1272799968719482;0.0;0.0;0.0
184;0.0;0.0;0.0;0.05172799900174141;-0.03903999924659729;1.1272799968719482;0.0;0.0;0.0
186;0.0;0.0;0.0;0.03611199930310249;-0.019519999623298645;1.1194720268249512;0.0;0.0;0.0
188;-0.07197999954223633;0.1029679998755455;0.9996680021286011;0.0634399950504303;-0.03513599932193756;1.1311839818954468;4.344374656677246;4.790625095367432;1.2424999475479126
191;0.0;0.0;0.0;0.05172799900174141;-0.04684799909591675;1.1272799968719482;0.0;0.0;0.0
193;0.0;0.0;0.0;0.04391999915242195;-0.027327999472618103;1.1194720268249512;0.0;0.0;0.0
195;0.0;0.0;0.0;0.04782399907708168;-0.011711999773979187;1.1194720268249512;0.0;0.0;0.0
197;-0.06929600238800049;0.10613999515771866;0.994055986404419;0.0634399950504303;-0.054655998945236206;1.1272799968719482;6.024374961853027;4.860625267028809;1.7324999570846558
199;0.0;0.0;0.0;0.05172799900174141;-0.007807999849319458;1.1233760118484497;0.0;0.0;0.0
201;0.0;0.0;0.0;0.0634399950504303;-0.04684799909591675;1.1038559675216675;0.0;0.0;0.0
203;0.0;0.0;0.0;0.07124799489974976;-0.04684799909591675;1.107759952545166;0.0;0.0;0.0
205;-0.056120000779628754;0.10565199702978134;0.9855159521102905;0.08295999467372894;-0.023423999547958374;1.1067839860916138;7.354374885559082;5.490625381469727;2.2925000190734863
208;0.0;0.0;0.0;0.03611199930310249;-0.015615999698638916;1.0989760160446167;0.0;0.0;0.0
210;0.0;0.0;0.0;0.05953599885106087;-0.019519999623298645;1.107759952545166;0.0;0.0;0.0
212;0.0;0.0;0.0;0.0936959981918335;-0.019519999623298645;1.107759952545166;0.0;0.0;0.0
214;-0.052947998046875;0.10906799882650375;0.9738039970397949;0.07515199482440948;0.0;1.0950720310211182;8.33437442779541;7.520625114440918;2.572499990463257
216;0.0;0.0;0.0;0.0634399950504303;-0.027327999472618103;1.115567922592163;0.0;0.0;0.0
218;0.0;0.0;0.0;0.08295999467372894;-0.019519999623298645;1.1028800010681152;0.0;0.0;0.0
220;0.0;0.0;0.0;0.04001599922776222;-0.015615999698638916;1.09116792678833;0.0;0.0;0.0
222;-0.05831599980592728;0.12029200047254562;0.9669719934463501;0.0634399950504303;0.0;1.0872639417648315;9.454375267028809;9.620624542236328;2.572499990463257
225;0.0;0.0;0.0;0.06734399497509003;0.011711999773979187;1.107759952545166;0.0;0.0;0.0
227;0.0;0.0;0.0;0.04782399907708168;-0.007807999849319458;1.115567922592163;0.0;0.0;0.0
229;0.0;0.0;0.0;0.04782399907708168;0.023423999547958374;1.0872639417648315;0.0;0.0;0.0
231;-0.06392800062894821;0.13102799654006958;0.9672159552574158;0.06734399497509003;0.003903999924659729;1.0950720310211182;10.504374504089355;9.620624542236328;3.132500171661377
233;0.0;0.0;0.0;0.04782399907708168;-0.011711999773979187;1.115567922592163;0.0;0.0;0.0
235;0.0;0.0;0.0;0.020495999604463577;-0.003903999924659729;1.0950720310211182;0.0;0.0;0.0
237;0.0;0.0;0.0;0.03611199930310249;0.023423999547958374;1.0989760160446167;0.0;0.0;0.0
239;-0.06465999782085419;0.14127600193023682;0.9662399888038635;0.04782399907708168;0.011711999773979187;1.0989760160446167;11.414375305175781;8.570624351501465;3.8324999809265137
242;0.0;0.0;0.0;0.04391999915242195;0.023423999547958374;1.1028800010681152;0.0;0.0;0.0
244;0.0;0.0;0.0;0.05172799900174141;0.011711999773979187;1.1116639375686646;0.0;0.0;0.0
246;0.0;0.0;0.0;0.07905599474906921;0.019519999623298645;1.0950720310211182;0.0;0.0;0.0
248;-0.058803997933864594;0.1554279923439026;0.9703879952430725;0.07905599474906921;0.015615999698638916;1.09116792678833;12.044374465942383;7.240625381469727;4.742500305175781
250;0.0;0.0;0.0;0.08686399459838867;0.003903999924659729;1.083359956741333;0.0;0.0;0.0
252;0.0;0.0;0.0;0.07905599474906921;0.019519999623298645;1.0950720310211182;0.0;0.0;0.0
254;0.0;0.0;0.0;0.05953599885106087;0.031231999397277832;1.0950720310211182;0.0;0.0;0.0
256;-0.0500199981033802;0.1559159904718399;0.9703879952430725;0.06734399497509003;0.023423999547958374;1.1028800010681152;11.974374771118164;6.190625190734863;6.002500057220459
259;0.0;0.0;0.0;0.06734399497509003;0.027327999472618103;1.0872639417648315;0.0;0.0;0.0
261;0.0;0.0;0.0;0.0907679945230484;0.011711999773979187;1.1116639375686646;0.0;0.0;0.0
263;0.0;0.0;0.0;0.05953599885106087;0.04684799909591675;1.107759952545166;0.0;0.0;0.0
265;-0.05563199892640114;0.15615999698638916;0.9694119691848755;0.08295999467372894;0.015615999698638916;1.09116792678833;11.204375267028809;6.050625324249268;7.052500247955322
267;0.0;0.0;0.0;0.05563199892640114;0.027327999472618103;1.1116639375686646;0.0;0.0;0.0
269;0.0;0.0;0.0;0.05953599885106087;0.011711999773979187;1.1028800010681152;0.0;0.0;0.0
271;0.0;0.0;0.0;0.028303999453783035;0.023423999547958374;1.0794559717178345;0.0;0.0;0.0
273;-0.07075999677181244;0.1605519950389862;0.9725840091705322;0.04782399907708168;0.011711999773979187;1.09116792678833;9.944375038146973;5.840625286102295;7.962500095367432
276;0.0;0.0;0.0;0.01659199967980385;0.023423999547958374;1.1116639375686646;0.0;0.0;0.0
278;0.0;0.0;0.0;0.024399999529123306;0.031231999397277832;1.1233760118484497;0.0;0.0;0.0
280;0.0;0.0;0.0;0.028303999453783035;0.019519999623298645;1.107759952545166;0.0;0.0;0.0
282;-0.08808399736881256;0.1651879996061325;0.9847840070724487;0.03611199930310249;0.027327999472618103;1.1194720268249512;8.264374732971191;4.650625228881836;8.732500076293945
284;0.0;0.0;0.0;0.028303999453783035;0.03513599932193756;1.1233760118484497;0.0;0.0;0.0
286;0.0;0.0;0.0;0.01268799975514412;0.03513599932193756;1.1194720268249512;0.0;0.0;0.0
288;0.0;0.0;0.0;-0.0029279999434947968;0.058559998869895935;1.139967918395996;0.0;0.0;0.0
290;-0.09516000002622604;0.1698240041732788;0.9979599714279175;0.032207999378442764;0.03513599932193756;1.1311839818954468;6.584374904632568;3.1806249618530273;8.942500114440918
293;0.0;0.0;0.0;0.028303999453783035;0.03903999924659729;1.139967918395996;0.0;0.0;0.0
295;0.0;0.0;0.0;0.03611199930310249;0.03513599932193756;1.1438720226287842;0.0;0.0;0.0
297;0.0;0.0;0.0;0.05172799900174141;0.04684799909591675;1.139967918395996;0.0;0.0;0.0
299;-0.09320800006389618;0.17031200230121613;1.0084519386291504;0.05953599885106087;0.031231999397277832;1.1438720226287842;4.904374599456787;2.6206250190734863;9.012499809265137
301;0.0;0.0;0.0;0.05563199892640114;0.03513599932193756;1.1555839776992798;0.0;0.0;0.0
303;0.0;0.0;0.0;0.05172799900174141;0.015615999698638916;1.1272799968719482;0.0;0.0;0.0
305;0.0;0.0;0.0;0.020495999604463577;0.062463998794555664;1.139967918395996;0.0;0.0;0.0
307;-0.08759599924087524;0.17031200230121613;1.009671926498413;0.03611199930310249;0.058559998869895935;1.132159948348999;3.0843751430511475;3.320625066757202;9.432499885559082
310;0.0;0.0;0.0;0.032207999378442764;0.04684799909591675;1.132159948348999;0.0;0.0;0.0
312;0.0;0.0;0.0;0.01268799975514412;0.011711999773979187;1.1233760118484497;0.0;0.0;0.0
314;0.0;0.0;0.0;0.05172799900174141;0.015615999698638916;1.139967918395996;0.0;0.0;0.0
316;-0.08661999553442001;0.1681160032749176;1.010159969329834;0.024399999529123306;0.03903999924659729;1.139967918395996;1.334375023841858;5.210625171661377;9.71250057220459
318;0.0;0.0;0.0;0.01659199967980385;0.027327999472618103;1.156559944152832;0.0;0.0;0.0
320;0.0;0.0;0.0;0.020495999604463577;0.031231999397277832;1.1477760076522827;0.0;0.0;0.0
322;0.0;0.0;0.0;0.03611199930310249;0.04294399917125702;1.1360639333724976;0.0;0.0;0.0
324;-0.09223199635744095;0.16835999488830566;1.0125999450683594;0.01268799975514412;0.015615999698638916;1.139967918395996;0.5643749833106995;7.100625038146973;10.132499694824219
327;0.0;0.0;0.0;-0.0029279999434947968;0.05075199902057648;1.1272799968719482;0.0;0.0;0.0
329;0.0;0.0;0.0;0.004879999905824661;0.04684799909591675;1.139967918395996;0.0;0.0;0.0
331;0.0;0.0;0.0;0.024399999529123306;0.007807999849319458;1.1438720226287842;0.0;0.0;0.0
333;-0.1076039969921112;0.1668960005044937;1.010159969329834;-0.010735999792814255;0.019519999623298645;1.139967918395996;0.9143750071525574;7.030625343322754;11.252500534057617
335;0.0;0.0;0.0;0.004879999905824661;0.04684799909591675;1.139967918395996;0.0;0.0;0.0
337;0.0;0.0;0.0;0.01659199967980385;0.027327999472618103;1.132159948348999;0.0;0.0;0.0
339;0.0;0.0;0.0;0.01659199967980385;-0.05075199902057648;1.083359956741333;0.0;0.0;0.0
341;-0.11150799691677094;0.14908400177955627;0.9901520013809204;0.01268799975514412;0.0936959981918335;1.1360639333724976;2.104375123977661;5.280625343322754;12.3725004196167
344;0.0;0.0;0.0;-0.006831999868154526;0.07027199864387512;1.1233760118484497;0.0;0.0;0.0
346;0.0;0.0;0.0;0.028303999453783035;0.027327999472618103;1.1194720268249512;0.0;0.0;0.0
348;0.0;0.0;0.0;0.04001599922776222;0.027327999472618103;1.09116792678833;0.0;0.0;0.0
350;-0.0983319953083992;0.1647000014781952;0.9813680052757263;0.05172799900174141;0.019519999623298645;1.0872639417648315;2.104375123977661;3.7406249046325684;13.282500267028809
352;0.0;0.0;0.0;0.01659199967980385;0.05075199902057648;1.115567922592163;0.0;0.0;0.0
354;0.0;0.0;0.0;0.04391999915242195;0.031231999397277832;1.0794559717178345;0.0;0.0;0.0
356;0.0;0.0;0.0;0.0634399950504303;0.011711999773979187;1.0745760202407837;0.0;0.0;0.0
358;-0.07515199482440948;0.1617719978094101;0.9555040001869202;0.03611199930310249;0.027327999472618103;1.066767930984497;1.824375033378601;4.580625057220459;15.3125
361;0.0;0.0;0.0;0.03611199930310249;0.019519999623298645;1.0589599609375;0.0;0.0;0.0
363;0.0;0.0;0.0;0.04782399907708168;0.031231999397277832;1.0784800052642822;0.0;0.0;0.0
365;0.0;0.0;0.0;0.04782399907708168;0.027327999472618103;1.0784800052642822;0.0;0.0;0.0
367;-0.08442399650812149;0.15274399518966675;0.9425719976425171;0.04391999915242195;0.019519999623298645;1.083359956741333;4.344374656677246;6.120625019073486;17.832500457763672
369;0.0;0.0;0.0;0.032207999378442764;0.003903999924659729;1.0628639459609985;0.0;0.0;0.0
371;0.0;0.0;0.0;0.04391999915242195;-0.011711999773979187;1.0745760202407837;0.0;0.0;0.0
373;0.0;0.0;0.0;0.004879999905824661;-0.007807999849319458;1.0628639459609985;0.0;0.0;0.0
375;-0.1000399962067604;0.13639599084854126;0.9476959705352783;0.00878399983048439;0.011711999773979187;1.0989760160446167;7.564374923706055;4.790625095367432;21.612499237060547
378;0.0;0.0;0.0;-0.010735999792814255;0.015615999698638916;1.0872639417648315;0.0;0.0;0.0
380;0.0;0.0;0.0;-0.006831999868154526;-0.011711999773979187;1.0950720310211182;0.0;0.0;0.0
382;0.0;0.0;0.0;-0.0029279999434947968;-0.007807999849319458;1.0989760160446167;0.0;0.0;0.0
384;-0.12809999287128448;0.12761199474334717;0.9645319581031799;0.024399999529123306;0.0;1.1116639375686646;9.874374389648438;0.940625011920929;24.90250015258789
386;0.0;0.0;0.0;-0.018543999642133713;-0.031231999397277832;1.1028800010681152;0.0;0.0;0.0
388;0.0;0.0;0.0;-0.014639999717473984;-0.011711999773979187;1.1233760118484497;0.0;0.0;0.0
390;0.0;0.0;0.0;-0.014639999717473984;-0.015615999698638916;1.1360639333724976;0.0;0.0;0.0
392;-0.1298079937696457;0.11589999496936798;0.9916160106658936;-0.010735999792814255;-0.023423999547958374;1.1194720268249512;10.434374809265137;-1.7893749475479126;26.582500457763672
395;0.0;0.0;0.0;-0.03806399926543236;-0.03903999924659729;1.156559944152832;0.0;0.0;0.0
397;0.0;0.0;0.0;-0.010735999792814255;-0.019519999623298645;1.156559944152832;0.0;0.0;0.0
399;0.0;0.0;0.0;-0.006831999868154526;-0.027327999472618103;1.1516799926757812;0.0;0.0;0.0
401;-0.130295991897583;0.11199599504470825;1.019919991493225;-0.014639999717473984;-0.031231999397277832;1.1721760034561157;9.664375305175781;-2.41937518119812;27.352500915527344
403;0.0;0.0;0.0;-0.018543999642133713;-0.007807999849319458;1.156559944152832;0.0;0.0;0.0
405;0.0;0.0;0.0;-0.02635199949145317;-0.03903999924659729;1.1438720226287842;0.0;0.0;0.0
407;0.0;0.0;0.0;-0.018543999642133713;-0.031231999397277832;1.1643680334091187;0.0;0.0;0.0
409;-0.13298000395298004;0.11004399508237839;1.0333399772644043;-0.006831999868154526;-0.023423999547958374;1.1848639249801636;7.284374713897705;-2.979375123977661;26.9325008392334
412;0.0;0.0;0.0;-0.010735999792814255;0.0;1.1721760034561157;0.0;0.0;0.0
414;0.0;0.0;0.0;0.004879999905824661;-0.04684799909591675;1.1721760034561157;0.0;0.0;0.0
416;0.0;0.0;0.0;0.0009759999811649323;-0.03903999924659729;1.1438720226287842;0.0;0.0;0.0
418;-0.13224799931049347;0.10077200084924698;1.038707971572876;0.01659199967980385;-0.027327999472618103;1.1887680292129517;3.5043749809265137;-5.149374961853027;25.88249969482422
420;0.0;0.0;0.0;0.004879999905824661;-0.058559998869895935;1.1555839776992798;0.0;0.0;0.0
422;0.0;0.0;0.0;-0.006831999868154526;-0.05075199902057648;1.1721760034561157;0.0;0.0;0.0
424;0.0;0.0;0.0;0.01659199967980385;-0.031231999397277832;1.1721760034561157;0.0;0.0;0.0
427;-0.11834000051021576;0.08637599647045135;1.0352920293807983;0.004879999905824661;-0.04294399917125702;1.139967918395996;-0.8356249928474426;-7.669374942779541;25.042499542236328
429;0.0;0.0;0.0;0.024399999529123306;-0.07417599856853485;1.1682720184326172;0.0;0.0;0.0
431;0.0;0.0;0.0;0.01659199967980385;-0.0663679987192154;1.1477760076522827;0.0;0.0;0.0
433;0.0;0.0;0.0;0.032207999378442764;-0.07807999849319458;1.1555839776992798;0.0;0.0;0.0
435;-0.09759999811649323;0.07441999763250351;1.0245559215545654;0.04001599922776222;-0.058559998869895935;1.1682720184326172;-4.475625038146973;-8.159375190734863;23.852500915527344
437;0.0;0.0;0.0;0.06734399497509003;-0.07027199864387512;1.1477760076522827;0.0;0.0;0.0
439;0.0;0.0;0.0;0.06734399497509003;-0.08198399841785431;1.1516799926757812;0.0;0.0;0.0
441;0.0;0.0;0.0;0.032207999378442764;-0.054655998945236206;1.1477760076522827;0.0;0.0;0.0
444;-0.07588399946689606;0.0680759996175766;1.020408034324646;0.05172799900174141;-0.058559998869895935;1.1604639291763306;-6.995625019073486;-5.709374904632568;22.592500686645508
446;0.0;0.0;0.0;0.04782399907708168;-0.08588799834251404;1.1116639375686646;0.0;0.0;0.0
448;0.0;0.0;0.0;0.05953599885106087;-0.07417599856853485;1.1555839776992798;0.0;0.0;0.0
450;0.0;0.0;0.0;0.07515199482440948;-0.0663679987192154;1.132159948348999;0.0;0.0;0.0
452;-0.06612399965524673;0.060999996960163116;1.012112021446228;0.03611199930310249;-0.08588799834251404;1.1272799968719482;-7.625625133514404;-3.3993752002716064;22.38249969482422
454;0.0;0.0;0.0;0.05563199892640114;-0.07807999849319458;1.139967918395996;0.0;0.0;0.0
456;0.0;0.0;0.0;0.04001599922776222;-0.08588799834251404;1.1360639333724976;0.0;0.0;0.0
458;0.0;0.0;0.0;0.06734399497509003;-0.0936959981918335;1.1360639333724976;0.0;0.0;0.0
461;-0.0605119988322258;0.048312000930309296;0.9957639575004578;0.06734399497509003;-0.0663679987192154;1.1116639375686646;-6.085625171661377;-1.859375;22.942501068115234
463;0.0;0.0;0.0;0.0907679945230484;-0.08588799834251404;1.1194720268249512;0.0;0.0;0.0
465;0.0;0.0;0.0;0.05953599885106087;-0.08979199826717377;1.115567922592163;0.0;0.0;0.0
467;0.0;0.0;0.0;0.07515199482440948;-0.08588799834251404;1.1028800010681152;0.0;0.0;0.0
469;-0.058803997933864594;0.040991999208927155;0.977463960647583;0.07905599474906921;-0.08588799834251404;1.0950720310211182;-3.4956250190734863;-0.5993750095367432;23.22249984741211
471;0.0;0.0;0.0;0.04782399907708168;-0.10540799796581268;1.0784800052642822;0.0;0.0;0.0
473;0.0;0.0;0.0;0.07515199482440948;-0.11711999773979187;1.0872639417648315;0.0;0.0;0.0
475;0.0;0.0;0.0;0.0634399950504303;-0.10150399804115295;1.0706720352172852;0.0;0.0;0.0
478;-0.053435999900102615;0.03903999924659729;0.9559919834136963;0.05563199892640114;-0.10931199789047241;1.083359956741333;-0.765625;0.5206249952316284;22.872499465942383
480;0.0;0.0;0.0;0.0907679945230484;-0.07807999849319458;1.09116792678833;0.0;0.0;0.0
482;0.0;0.0;0.0;0.07515199482440948;-0.08588799834251404;1.083359956741333;0.0;0.0;0.0
484;0.0;0.0;0.0;0.0634399950504303;-0.08198399841785431;1.0745760202407837;0.0;0.0;0.0
486;-0.051239997148513794;0.047091998159885406;0.9442799687385559;0.0634399950504303;-0.054655998945236206;1.0872639417648315;1.5443750619888306;0.8706250190734863;22.52250099182129
488;0.0;0.0;0.0;0.05563199892640114;-0.07807999849319458;1.0628639459609985;0.0;0.0;0.0
490;0.0;0.0;0.0;0.0634399950504303;-0.09759999811649323;1.0784800052642822;0.0;0.0;0.0
492;0.0;0.0;0.0;0.04391999915242195;-0.03903999924659729;1.0784800052642822;0.0;0.0;0.0
495;-0.05514399707317352;0.07002799957990646;0.9518439769744873;0.06734399497509003;-0.054655998945236206;1.0872639417648315;3.1543750762939453;0.31062498688697815;22.592500686645508
497;0.0;0.0;0.0;0.0634399950504303;-0.04294399917125702;1.107759952545166;0.0;0.0;0.0
499;0.0;0.0;0.0;0.04001599922776222;-0.03903999924659729;1.1028800010681152;0.0;0.0;0.0
501;0.0;0.0;0.0;0.05953599885106087;-0.058559998869895935;1.0872639417648315;0.0;0.0;0.0
503;-0.062219999730587006;0.08930400013923645;0.9633119702339172;0.05563199892640114;-0.019519999623298645;1.1038559675216675;3.5743751525878906;-1.57937490940094;22.662500381469727
505;0.0;0.0;0.0;0.05953599885106087;-0.03903999924659729;1.09116792678833;0.0;0.0;0.0
507;0.0;0.0;0.0;0.07905599474906921;-0.019519999623298645;1.107759952545166;0.0;0.0;0.0
509;0.0;0.0;0.0;0.0634399950504303;-0.03903999924659729;1.115567922592163;0.0;0.0;0.0
512;-0.060999996960163116;0.10028399527072906;0.9701439738273621;0.06734399497509003;-0.023423999547958374;1.0950720310211182;2.5243749618530273;-3.609375;22.802499771118164
514;0.0;0.0;0.0;0.06734399497509003;-0.03513599932193756;1.0784800052642822;0.0;0.0;0.0
516;0.0;0.0;0.0;0.07515199482440948;-0.015615999698638916;1.1116639375686646;0.0;0.0;0.0
518;0.0;0.0;0.0;0.0634399950504303;-0.03513599932193756;1.0950720310211182;0.0;0.0;0.0
520;-0.056120000779628754;0.10247999429702759;0.9708759784698486;0.07124799489974976;-0.03903999924659729;1.1194720268249512;-0.2056249976158142;-4.099374771118164;21.6825008392334
522;0.0;0.0;0.0;0.09467199444770813;-0.003903999924659729;1.0950720310211182;0.0;0.0;0.0
524;0.0;0.0;0.0;0.08295999467372894;-0.04684799909591675;1.0872639417648315;0.0;0.0;0.0
526;0.0;0.0;0.0;0.11028799414634705;-0.015615999698638916;1.083359956741333;0.0;0.0;0.0
529;-0.04391999915242195;0.09589199721813202;0.961359977722168;0.07124799489974976;-0.04294399917125702;1.09116792678833;-3.215625047683716;-2.9093751907348633;19.9325008392334
531;0.0;0.0;0.0;0.0936959981918335;-0.031231999397277832;1.0501760244369507;0.0;0.0;0.0
533;0.0;0.0;0.0;0.07124799489974976;-0.04294399917125702;1.0706720352172852;0.0;0.0;0.0
535;0.0;0.0;0.0;0.08295999467372894;-0.03903999924659729;1.0706720352172852;0.0;0.0;0.0
537;-0.03391600027680397;0.08808399736881256;0.9415959715843201;0.0936959981918335;-0.05075199902057648;1.066767930984497;-5.175625324249268;-0.8793750405311584;18.252500534057617
539;0.0;0.0;0.0;0.07515199482440948;-0.058559998869895935;1.017967939376831;0.0;0.0;0.0
541;0.0;0.0;0.0;0.0907679945230484;-0.04294399917125702;1.0589599609375;0.0;0.0;0.0
543;0.0;0.0;0.0;0.10540799796581268;-0.03513599932193756;1.034559965133667;0.0;0.0;0.0
546;-0.026108000427484512;0.0832040011882782;0.9218319654464722;0.09857599437236786;-0.07807999849319458;1.0540800094604492;-5.595625400543213;1.1506251096725464;16.922500610351562
548;0.0;0.0;0.0;0.09467199444770813;-0.058559998869895935;1.0384639501571655;0.0;0.0;0.0
550;0.0;0.0;0.0;0.0907679945230484;-0.058559998869895935;1.034559965133667;0.0;0.0;0.0
552;0.0;0.0;0.0;0.08686399459838867;-0.0663679987192154;1.0589599609375;0.0;0.0;0.0
554;-0.019519999623298645;0.07930000126361847;0.90938800573349;0.07905599474906921;-0.04294399917125702;1.017967939376831;-4.895625114440918;2.5506248474121094;16.362499237060547
556;0.0;0.0;0.0;0.06734399497509003;-0.03903999924659729;1.0306559801101685;0.0;0.0;0.0
558;0.0;0.0;0.0;0.11711999773979187;-0.05075199902057648;1.042367935180664;0.0;0.0;0.0
560;0.0;0.0;0.0;0.0907679945230484;-0.04684799909591675;1.0257760286331177;0.0;0.0;0.0
563;-0.018055999651551247;0.0832040011882782;0.9128040075302124;0.10638399422168732;-0.023423999547958374;1.042367935180664;-2.7956249713897705;3.320625066757202;16.712499618530273
565;0.0;0.0;0.0;0.0907679945230484;-0.04684799909591675;1.042367935180664;0.0;0.0;0.0
567;0.0;0.0;0.0;0.07515199482440948;-0.07027199864387512;1.0550559759140015;0.0;0.0;0.0
569;0.0;0.0;0.0;0.0907679945230484;-0.031231999397277832;1.0706720352172852;0.0;0.0;0.0
571;-0.027084000408649445;0.09149999916553497;0.9301279783248901;0.07124799489974976;-0.027327999472618103;1.0794559717178345;0.004375003278255463;3.810624837875366;17.90250015258789
573;0.0;0.0;0.0;0.09857599437236786;-0.054655998945236206;1.066767930984497;0.0;0.0;0.0
575;0.0;0.0;0.0;0.07515199482440948;-0.019519999623298645;1.0745760202407837;0.0;0.0;0.0
577;0.0;0.0;0.0;0.05953599885106087;-0.027327999472618103;1.0950720310211182;0.0;0.0;0.0
580;-0.0424560010433197;0.09759999811649323;0.9503799676895142;0.07515199482440948;-0.04294399917125702;1.0872639417648315;2.664375066757202;3.7406249046325684;18.8125
582;0.0;0.0;0.0;0.07515199482440948;-0.031231999397277832;1.1116639375686646;0.0;0.0;0.0
584;0.0;0.0;0.0;0.07515199482440948;-0.015615999698638916;1.1028800010681152;0.0;0.0;0.0
586;0.0;0.0;0.0;0.06734399497509003;-0.019519999623298645;1.107759952545166;0.0;0.0;0.0
588;-0.06173199787735939;0.09930799901485443;0.9708759784698486;0.04001599922776222;-0.027327999472618103;1.1272799968719482;4.764374732971191;3.390625;19.372499465942383
590;0.0;0.0;0.0;0.07124799489974976;-0.015615999698638916;1.115567922592163;0.0;0.0;0.0
592;0.0;0.0;0.0;0.05172799900174141;-0.027327999472618103;1.1272799968719482;0.0;0.0;0.0
594;0.0;0.0;0.0;0.028303999453783035;-0.019519999623298645;1.1272799968719482;0.0;0.0;0.0
597;-0.07905599474906921;0.1105320006608963;0.9879559874534607;0.04782399907708168;-0.023423999547958374;1.1272799968719482;5.884374618530273;3.1106250286102295;19.092500686645508
599;0.0;0.0;0.0;0.028303999453783035;-0.015615999698638916;1.1360639333724976;0.0;0.0;0.0
601;0.0;0.0;0.0;0.028303999453783035;-0.015615999698638916;1.1477760076522827;0.0;0.0;0.0
603;0.0;0.0;0.0;0.00878399983048439;0.0;1.1477760076522827;0.0;0.0;0.0
605;-0.09125600010156631;0.1327359974384308;1.0089399814605713;0.04001599922776222;0.027327999472618103;1.1477760076522827;4.834374904632568;2.9706249237060547;17.832500457763672
607;0.0;0.0;0.0;0.01659199967980385;0.019519999623298645;1.1555839776992798;0.0;0.0;0.0
609;0.0;0.0;0.0;0.004879999905824661;-0.003903999924659729;1.1477760076522827;0.0;0.0;0.0
612;0.0;0.0;0.0;0.04391999915242195;0.003903999924659729;1.139967918395996;0.0;0.0;0.0
614;-0.09589199721813202;0.1471319943666458;1.020651936531067;0.01268799975514412;0.027327999472618103;1.1516799926757812;1.9643750190734863;2.4806249141693115;16.082500457763672
616;0.0;0.0;0.0;0.04782399907708168;0.011711999773979187;1.1555839776992798;0.0;0.0;0.0
618;0.0;0.0;0.0;0.0634399950504303;0.015615999698638916;1.1477760076522827;0.0;0.0;0.0
620;0.0;0.0;0.0;0.0634399950504303;0.023423999547958374;1.1438720226287842;0.0;0.0;0.0
622;-0.07954400032758713;0.15567199885845184;1.0223599672317505;0.05172799900174141;0.007807999849319458;1.139967918395996;-0.9756250381469727;2.900624990463257;14.612500190734863
624;0.0;0.0;0.0;0.06734399497509003;0.023423999547958374;1.1555839776992798;0.0;0.0;0.0
626;0.0;0.0;0.0;0.05563199892640114;0.027327999472618103;1.139967918395996;0.0;0.0;0.0
629;0.0;0.0;0.0;0.05953599885106087;0.03513599932193756;1.1516799926757812;0.0;0.0;0.0
631;-0.06588000059127808;0.15811198949813843;1.0155279636383057;0.07905599474906921;0.003903999924659729;1.1272799968719482;-2.9356250762939453;3.810624837875366;14.682499885559082
633;0.0;0.0;0.0;0.05953599885106087;0.011711999773979187;1.1194720268249512;0.0;0.0;0.0
635;0.0;0.0;0.0;0.05563199892640114;0.031231999397277832;1.132159948348999;0.0;0.0;0.0
637;0.0;0.0;0.0;0.05563199892640114;-0.003903999924659729;1.1116639375686646;0.0;0.0;0.0
639;-0.058803997933864594;0.15323199331760406;1.0001559257507324;0.0634399950504303;0.019519999623298645;1.139967918395996;-4.265625;5.070625305175781;15.3125
641;0.0;0.0;0.0;0.06734399497509003;-0.015615999698638916;1.107759952545166;0.0;0.0;0.0
643;0.0;0.0;0.0;0.05953599885106087;0.019519999623298645;1.1028800010681152;0.0;0.0;0.0
646;0.0;0.0;0.0;0.04391999915242195;0.019519999623298645;1.0989760160446167;0.0;0.0;0.0
648;-0.06392800062894821;0.14591199159622192;0.9806360006332397;0.05563199892640114;0.011711999773979187;1.066767930984497;-4.335625171661377;6.890625;16.22249984741211
650;0.0;0.0;0.0;0.04001599922776222;0.023423999547958374;1.0989760160446167;0.0;0.0;0.0
652;0.0;0.0;0.0;0.05563199892640114;0.023423999547958374;1.0950720310211182;0.0;0.0;0.0
654;0.0;0.0;0.0;0.04001599922776222;0.0;1.0989760160446167;0.0;0.0;0.0
656;-0.08051999658346176;0.1420079916715622;0.965507984161377;0.00878399983048439;0.023423999547958374;1.1116639375686646;-3.2856249809265137;7.660624980926514;17.27250099182129
658;0.0;0.0;0.0;0.03611199930310249;0.007807999849319458;1.0745760202407837;0.0;0.0;0.0
660;0.0;0.0;0.0;0.020495999604463577;0.011711999773979187;1.0989760160446167;0.0;0.0;0.0
663;0.0;0.0;0.0;0.004879999905824661;0.027327999472618103;1.0950720310211182;0.0;0.0;0.0
665;-0.09930799901485443;0.14347200095653534;0.9618479609489441;0.04001599922776222;0.023423999547958374;1.1116639375686646;-1.2556250095367432;6.6806254386901855;18.392499923706055
667;0.0;0.0;0.0;-0.0029279999434947968;0.007807999849319458;1.0872639417648315;0.0;0.0;0.0
669;0.0;0.0;0.0;0.01659199967980385;0.03903999924659729;1.083359956741333;0.0;0.0;0.0
671;0.0;0.0;0.0;0.024399999529123306;0.011711999773979187;1.1194720268249512;0.0;0.0;0.0
673;-0.10955599695444107;0.15103599429130554;0.9679479598999023;0.01659199967980385;0.011711999773979187;1.115567922592163;0.7743750214576721;4.160624980926514;19.582500457763672
675;0.0;0.0;0.0;0.00878399983048439;0.031231999397277832;1.1116639375686646;0.0;0.0;0.0
677;0.0;0.0;0.0;0.03611199930310249;0.019519999623298645;1.1116639375686646;0.0;0.0;0.0
680;0.0;0.0;0.0;0.032207999378442764;0.023423999547958374;1.0989760160446167;0.0;0.0;0.0
682;-0.10394399613142014;0.15567199885845184;0.9803919792175293;0.04001599922776222;0.019519999623298645;1.1028800010681152;1.4043750762939453;1.2906250953674316;20.49250030517578
684;0.0;0.0;0.0;0.0009759999811649323;0.03513599932193756;1.1360639333724976;0.0;0.0;0.0
686;0.0;0.0;0.0;0.01659199967980385;0.027327999472618103;1.1116639375686646;0.0;0.0;0.0
688;0.0;0.0;0.0;0.020495999604463577;0.03513599932193756;1.1116639375686646;0.0;0.0;0.0
690;-0.08930400013923645;0.15445199608802795;0.9925919771194458;0.04782399907708168;0.015615999698638916;1.1116639375686646;0.21437500417232513;0.31062498688697815;20.912500381469727
692;0.0;0.0;0.0;0.024399999529123306;0.027327999472618103;1.1233760118484497;0.0;0.0;0.0
694;0.0;0.0;0.0;0.05172799900174141;0.003903999924659729;1.156559944152832;0.0;0.0;0.0
697;0.0;0.0;0.0;0.020495999604463577;0.03903999924659729;1.1360639333724976;0.0;0.0;0.0
699;-0.0861319974064827;0.1571359932422638;1.0028399229049683;0.04782399907708168;0.019519999623298645;1.1438720226287842;-2.445625066757202;1.8506250381469727;20.63249969482422
701;0.0;0.0;0.0;0.04001599922776222;0.04294399917125702;1.1233760118484497;0.0;0.0;0.0
703;0.0;0.0;0.0;0.032207999378442764;0.027327999472618103;1.1233760118484497;0.0;0.0;0.0
705;0.0;0.0;0.0;-0.0029279999434947968;0.015615999698638916;1.1272799968719482;0.0;0.0;0.0
707;-0.09125600010156631;0.15689200162887573;1.001863956451416;0.00878399983048439;0.019519999623298645;1.1360639333724976;-5.38562536239624;3.1106250286102295;20.142499923706055
709;0.0;0.0;0.0;0.03611199930310249;0.011711999773979187;1.1272799968719482;0.0;0.0;0.0
711;0.0;0.0;0.0;0.04001599922776222;-0.027327999472618103;1.115567922592163;0.0;0.0;0.0
714;0.0;0.0;0.0;0.028303999453783035;0.003903999924659729;1.1194720268249512;0.0;0.0;0.0
716;-0.09223199635744095;0.14761999249458313;0.9896639585494995;0.03611199930310249;0.003903999924659729;1.0989760160446167;-7.765625;3.250624895095825;19.442501068115234
718;0.0;0.0;0.0;0.04001599922776222;0.015615999698638916;1.1028800010681152;0.0;0.0;0.0
720;0.0;0.0;0.0;0.05563199892640114;-0.011711999773979187;1.107759952545166;0.0;0.0;0.0
722;0.0;0.0;0.0;0.028303999453783035;-0.011711999773979187;1.09116792678833;0.0;0.0;0.0
724;-0.07710400223731995;0.13176000118255615;0.9711199998855591;0.06734399497509003;-0.031231999397277832;1.066767930984497;-9.095624923706055;2.760624885559082;18.74250030517578
726;0.0;0.0;0.0;0.05172799900174141;-0.007807999849319458;1.1194720268249512;0.0;0.0;0.0
728;0.0;0.0;0.0;0.07124799489974976;-0.027327999472618103;1.0950720310211182;0.0;0.0;0.0
731;0.0;0.0;0.0;0.05953599885106087;-0.023423999547958374;1.0872639417648315;0.0;0.0;0.0
733;-0.0605119988322258;0.11785199493169785;0.9576999545097351;0.08686399459838867;-0.019519999623298645;1.0745760202407837;-8.815625190734863;3.390625;19.02250099182129
735;0.0;0.0;0.0;0.05563199892640114;0.0;1.0950720310211182;0.0;0.0;0.0
737;0.0;0.0;0.0;0.04391999915242195;0.007807999849319458;1.0628639459609985;0.0;0.0;0.0
739;0.0;0.0;0.0;0.04391999915242195;-0.04684799909591675;1.0794559717178345;0.0;0.0;0.0
741;-0.060999996960163116;0.11321599781513214;0.9557479619979858;0.032207999378442764;-0.031231999397277832;1.083359956741333;-7.835625171661377;4.790625095367432;19.372499465942383
743;0.0;0.0;0.0;0.0634399950504303;-0.015615999698638916;1.0784800052642822;0.0;0.0;0.0
745;0.0;0.0;0.0;0.032207999378442764;-0.023423999547958374;1.0872639417648315;0.0;0.0;0.0
748;0.0;0.0;0.0;0.05172799900174141;-0.03513599932193756;1.0989760160446167;0.0;0.0;0.0
750;-0.06612399965524673;0.11150799691677094;0.9606279730796814;0.04001599922776222;-0.023423999547958374;1.0950720310211182;-7.065625190734863;4.790625095367432;19.442501068115234
752;0.0;0.0;0.0;0.04782399907708168;-0.023423999547958374;1.0872639417648315;0.0;0.0;0.0
754;0.0;0.0;0.0;0.04782399907708168;-0.031231999397277832;1.0950720310211182;0.0;0.0;0.0
756;0.0;0.0;0.0;0.07124799489974976;-0.03513599932193756;1.0989760160446167;0.0;0.0;0.0
758;-0.06685599684715271;0.10955599695444107;0.9706319570541382;0.06734399497509003;-0.023423999547958374;1.115567922592163;-6.715625286102295;3.950624942779541;19.302499771118164
760;0.0;0.0;0.0;0.05172799900174141;-0.031231999397277832;1.1028800010681152;0.0;0.0;0.0
762;0.0;0.0;0.0;0.04001599922776222;-0.019519999623298645;1.1116639375686646;0.0;0.0;0.0
765;0.0;0.0;0.0;0.028303999453783035;-0.023423999547958374;1.115567922592163;0.0;0.0;0.0
767;-0.07612799853086472;0.11126399785280228;0.9845399856567383;0.024399999529123306;-0.027327999472618103;1.139967918395996;-6.645625114440918;3.7406249046325684;19.162500381469727
769;0.0;0.0;0.0;0.04782399907708168;-0.003903999924659729;1.1233760118484497;0.0;0.0;0.0
771;0.0;0.0;0.0;0.024399999529123306;-0.03513599932193756;1.115567922592163;0.0;0.0;0.0
773;0.0;0.0;0.0;0.032207999378442764;-0.031231999397277832;1.0950720310211182;0.0;0.0;0.0
775;-0.08906000107526779;0.11272799968719482;0.9855159521102905;0.04782399907708168;0.0;1.1233760118484497;-5.525625228881836;3.390625;19.582500457763672
778;0.0;0.0;0.0;0.01659199967980385;0.003903999924659729;1.1116639375686646;0.0;0.0;0.0
779;0.0;0.0;0.0;0.01268799975514412;-0.007807999849319458;1.1360639333724976;0.0;0.0;0.0
782;0.0;0.0;0.0;0.01268799975514412;-0.019519999623298645;1.1233760118484497;0.0;0.0;0.0
784;-0.10491999983787537;0.11614400148391724;0.9950319528579712;0.00878399983048439;-0.023423999547958374;1.1194720268249512;-3.9156248569488525;0.8706250190734863;20.212499618530273
786;0.0;0.0;0.0;0.0009759999811649323;-0.015615999698638916;1.1360639333724976;0.0;0.0;0.0
788;0.0;0.0;0.0;0.03611199930310249;-0.019519999623298645;1.1360639333724976;0.0;0.0;0.0
790;0.0;0.0;0.0;0.024399999529123306;-0.03903999924659729;1.1194720268249512;0.0;0.0;0.0
792;-0.10491999983787537;0.1239520013332367;1.0028399229049683;0.00878399983048439;-0.007807999849319458;1.1116639375686646;-3.635624885559082;-0.809374988079071;19.862499237060547
794;0.0;0.0;0.0;0.024399999529123306;-0.007807999849319458;1.1360639333724976;0.0;0.0;0.0
797;0.0;0.0;0.0;0.032207999378442764;0.003903999924659729;1.1272799968719482;0.0;0.0;0.0
799;0.0;0.0;0.0;0.028303999453783035;-0.027327999472618103;1.139967918395996;0.0;0.0;0.0
801;-0.08686399459838867;0.12712399661540985;1.0052800178527832;0.028303999453783035;0.0;1.1233760118484497;-4.195625305175781;-1.57937490940094;19.582500457763672
803;0.0;0.0;0.0;0.05172799900174141;0.003903999924659729;1.139967918395996;0.0;0.0;0.0
805;0.0;0.0;0.0;0.032207999378442764;-0.019519999623298645;1.1272799968719482;0.0;0.0;0.0
807;0.0;0.0;0.0;0.04782399907708168;-0.003903999924659729;1.0989760160446167;0.0;0.0;0.0
809;-0.06856399774551392;0.1268799901008606;0.9962520003318787;0.04782399907708168;-0.015615999698638916;1.132159948348999;-5.38562536239624;-1.2293750047683716;19.302499771118164
811;0.0;0.0;0.0;0.07124799489974976;0.007807999849319458;1.115567922592163;0.0;0.0;0.0
813;0.0;0.0;0.0;0.07515199482440948;-0.011711999773979187;1.1360639333724976;0.0;0.0;0.0
816;0.0;0.0;0.0;0.07124799489974976;0.007807999849319458;1.115567922592163;0.0;0.0;0.0
818;-0.052947998046875;0.12931999564170837;1.0008879899978638;0.07515199482440948;0.0;1.1272799968719482;-7.205625057220459;-1.019374966621399;19.442501068115234
820;0.0;0.0;0.0;0.08295999467372894;0.0;1.1360639333724976;0.0;0.0;0.0
822;0.0;0.0;0.0;0.09467199444770813;-0.019519999623298645;1.1360639333724976;0.0;0.0;0.0
824;0.0;0.0;0.0;0.0907679945230484;-0.031231999397277832;1.1272799968719482;0.0;0.0;0.0
826;-0.04172400012612343;0.12004800140857697;1.0033279657363892;0.09467199444770813;-0.023423999547958374;1.115567922592163;-9.375625610351562;-1.0893748998641968;19.9325008392334
829;0.0;0.0;0.0;0.07124799489974976;-0.05075199902057648;1.1360639333724976;0.0;0.0;0.0
831;0.0;0.0;0.0;0.08686399459838867;-0.07417599856853485;1.1233760118484497;0.0;0.0;0.0
833;0.0;0.0;0.0;0.07124799489974976;-0.031231999397277832;1.139967918395996;0.0;0.0;0.0
835;-0.040748000144958496;0.09930799901485443;1.0030839443206787;0.08686399459838867;-0.03513599932193756;1.1272799968719482;-10.845624923706055;0.940625011920929;19.582500457763672
837;0.0;0.0;0.0;0.06734399497509003;-0.054655998945236206;1.1311839818954468;0.0;0.0;0.0
839;0.0;0.0;0.0;0.0634399950504303;-0.054655998945236206;1.1272799968719482;0.0;0.0;0.0
841;0.0;0.0;0.0;0.05563199892640114;-0.03903999924659729;1.1233760118484497;0.0;0.0;0.0
843;-0.053435999900102615;0.0849120020866394;1.0055240392684937;0.08295999467372894;-0.058559998869895935;1.1360639333724976;-11.335625648498535;2.270624876022339;18.8125
845;0.0;0.0;0.0;0.05172799900174141;-0.04684799909591675;1.1028800010681152;0.0;0.0;0.0
848;0.0;0.0;0.0;0.04391999915242195;-0.062463998794555664;1.1194720268249512;0.0;0.0;0.0
850;0.0;0.0;0.0;0.03611199930310249;-0.062463998794555664;1.1233760118484497;0.0;0.0;0.0
852;-0.07954400032758713;0.06709999591112137;0.9938119649887085;0.04391999915242195;-0.07807999849319458;1.1272799968719482;-11.055624961853027;2.4106249809265137;16.782499313354492
854;0.0;0.0;0.0;0.04782399907708168;-0.07807999849319458;1.1272799968719482;0.0;0.0;0.0
856;0.0;0.0;0.0;0.04001599922776222;-0.062463998794555664;1.0989760160446167;0.0;0.0;0.0
858;0.0;0.0;0.0;0.04391999915242195;-0.0663679987192154;1.0989760160446167;0.0;0.0;0.0
860;-0.07807999849319458;0.06539200246334076;0.9845399856567383;0.05172799900174141;-0.08979199826717377;1.09116792678833;-10.91562557220459;0.8006250262260437;13.702500343322754
863;0.0;0.0;0.0;0.05172799900174141;-0.062463998794555664;1.107759952545166;0.0;0.0;0.0
865;0.0;0.0;0.0;0.05563199892640114;-0.054655998945236206;1.115567922592163;0.0;0.0;0.0
867;0.0;0.0;0.0;0.04782399907708168;-0.08198399841785431;1.1194720268249512;0.0;0.0;0.0
869;-0.05953599885106087;0.06441599875688553;0.9738039970397949;0.06734399497509003;-0.058559998869895935;1.1028800010681152;-9.865625381469727;-0.109375;11.252500534057617
871;0.0;0.0;0.0;0.08686399459838867;-0.05075199902057648;1.0989760160446167;0.0;0.0;0.0
873;0.0;0.0;0.0;0.09467199444770813;-0.03903999924659729;1.0794559717178345;0.0;0.0;0.0
875;0.0;0.0;0.0;0.06734399497509003;-0.054655998945236206;1.083359956741333;0.0;0.0;0.0
877;-0.03903999924659729;0.08295999467372894;0.9701439738273621;0.09467199444770813;-0.04294399917125702;1.107759952545166;-7.835625171661377;1.3606250286102295;10.132499694824219
880;0.0;0.0;0.0;0.0907679945230484;-0.007807999849319458;1.09116792678833;0.0;0.0;0.0
882;0.0;0.0;0.0;0.05953599885106087;-0.023423999547958374;1.0950720310211182;0.0;0.0;0.0
884;0.0;0.0;0.0;0.0634399950504303;-0.027327999472618103;1.0989760160446167;0.0;0.0;0.0
886;-0.04294399917125702;0.10784799605607986;0.9720959663391113;0.0907679945230484;-0.023423999547958374;1.09116792678833;-6.505625247955322;2.6206250190734863;10.762499809265137
888;0.0;0.0;0.0;0.07124799489974976;-0.003903999924659729;1.0784800052642822;0.0;0.0;0.0
890;0.0;0.0;0.0;0.07905599474906921;-0.019519999623298645;1.107759952545166;0.0;0.0;0.0
892;0.0;0.0;0.0;0.07124799489974976;-0.023423999547958374;1.115567922592163;0.0;0.0;0.0
894;-0.04928799718618393;0.115167997777462;0.9747799634933472;0.05172799900174141;0.0;1.107759952545166;-5.875625133514404;3.460624933242798;12.162500381469727
897;0.0;0.0;0.0;0.05563199892640114;-0.031231999397277832;1.1194720268249512;0.0;0.0;0.0
899;0.0;0.0;0.0;0.05172799900174141;-0.015615999698638916;1.0989760160446167;0.0;0.0;0.0
901;0.0;0.0;0.0;0.05172799900174141;-0.011711999773979187;1.1194720268249512;0.0;0.0;0.0
903;-0.07344400137662888;0.11224000155925751;0.9906399846076965;0.03611199930310249;-0.019519999623298645;1.1194720268249512;-4.965625286102295;5.700625419616699;13.422500610351562
905;0.0;0.0;0.0;0.04001599922776222;-0.023423999547958374;1.1116639375686646;0.0;0.0;0.0
907;0.0;0.0;0.0;0.020495999604463577;-0.04294399917125702;1.115567922592163;0.0;0.0;0.0
909;0.0;0.0;0.0;0.020495999604463577;-0.03903999924659729;1.1233760118484497;0.0;0.0;0.0
911;-0.09516000002622604;0.10540799796581268;0.9977160096168518;0.03611199930310249;-0.023423999547958374;1.107759952545166;-3.4256250858306885;5.980625152587891;14.262499809265137
914;0.0;0.0;0.0;0.00878399983048439;-0.062463998794555664;1.107759952545166;0.0;0.0;0.0
916;0.0;0.0;0.0;-0.006831999868154526;-0.011711999773979187;1.1516799926757812;0.0;0.0;0.0
918;0.0;0.0;0.0;-0.0029279999434947968;0.003903999924659729;1.1360639333724976;0.0;0.0;0.0
920;-0.11711999773979187;0.1117519959807396;1.0052800178527832;-0.0302559994161129;-0.003903999924659729;1.1360639333724976;-1.8156249523162842;4.370625019073486;14.682499885559082
922;0.0;0.0;0.0;-0.022447999566793442;0.015615999698638916;1.1643680334091187;0.0;0.0;0.0
924;0.0;0.0;0.0;-0.0029279999434947968;0.007807999849319458;1.1311839818954468;0.0;0.0;0.0
926;0.0;0.0;0.0;-0.018543999642133713;0.0;1.1721760034561157;0.0;0.0;0.0
928;-0.1268799901008606;0.13566400110721588;1.0245559215545654;0.004879999905824661;-0.007807999849319458;1.1643680334091187;-0.4856250286102295;0.8706250190734863;15.242500305175781
931;0.0;0.0;0.0;0.004879999905824661;-0.031231999397277832;1.1643680334091187;0.0;0.0;0.0
933;0.0;0.0;0.0;-0.006831999868154526;-0.007807999849319458;1.1721760034561157;0.0;0.0;0.0
935;0.0;0.0;0.0;0.004879999905824661;-0.023423999547958374;1.1926720142364502;0.0;0.0;0.0
937;-0.11224000155925751;0.1273680031299591;1.0384639501571655;-0.006831999868154526;-0.019519999623298645;1.1760799884796143;-0.27562499046325684;-1.9993749856948853;15.802499771118164
939;0.0;0.0;0.0;0.01659199967980385;-0.015615999698638916;1.1555839776992798;0.0;0.0;0.0
941;0.0;0.0;0.0;0.01659199967980385;-0.007807999849319458;1.180959939956665;0.0;0.0;0.0
943;0.0;0.0;0.0;0.01659199967980385;0.003903999924659729;1.156559944152832;0.0;0.0;0.0
945;-0.11736399680376053;0.13688400387763977;1.0348039865493774;-0.006831999868154526;0.0;1.1516799926757812;-0.6956250071525574;-2.0693750381469727;15.452500343322754
948;0.0;0.0;0.0;0.020495999604463577;-0.003903999924659729;1.1604639291763306;0.0;0.0;0.0
950;0.0;0.0;0.0;-0.006831999868154526;0.0;1.1477760076522827;0.0;0.0;0.0
952;0.0;0.0;0.0;0.01659199967980385;-0.027327999472618103;1.1477760076522827;0.0;0.0;0.0
954;-0.11614400148391724;0.14518000185489655;1.0250439643859863;0.004879999905824661;0.007807999849319458;1.139967918395996;-2.585624933242798;-2.7693750858306885;14.892499923706055
956;0.0;0.0;0.0;0.028303999453783035;0.015615999698638916;1.1360639333724976;0.0;0.0;0.0
958;0.0;0.0;0.0;0.024399999529123306;0.007807999849319458;1.1477760076522827;0.0;0.0;0.0
960;0.0;0.0;0.0;0.03611199930310249;0.023423999547958374;1.1438720226287842;0.0;0.0;0.0
962;-0.10101599991321564;0.1466439962387085;1.0150399208068848;0.028303999453783035;0.027327999472618103;1.1438720226287842;-5.525625228881836;-3.679375171661377;14.1225004196167
965;0.0;0.0;0.0;0.024399999529123306;0.015615999698638916;1.1360639333724976;0.0;0.0;0.0
967;0.0;0.0;0.0;0.032207999378442764;0.011711999773979187;1.139967918395996;0.0;0.0;0.0
969;0.0;0.0;0.0;0.03611199930310249;0.003903999924659729;1.139967918395996;0.0;0.0;0.0
971;-0.08832799643278122;0.14810799062252045;1.0040600299835205;0.03611199930310249;0.007807999849319458;1.1116639375686646;-8.395625114440918;-3.3293750286102295;13.772500038146973
973;0.0;0.0;0.0;0.01268799975514412;-0.007807999849319458;1.107759952545166;0.0;0.0;0.0
975;0.0;0.0;0.0;0.0009759999811649323;0.023423999547958374;1.1116639375686646;0.0;0.0;0.0
977;0.0;0.0;0.0;0.05953599885106087;0.007807999849319458;1.09116792678833;0.0;0.0;0.0
979;-0.08881600201129913;0.1390800029039383;0.98990797996521;0.04391999915242195;-0.003903999924659729;1.0950720310211182;-11.055624961853027;-1.57937490940094;13.492500305175781
982;0.0;0.0;0.0;0.024399999529123306;0.003903999924659729;1.1028800010681152;0.0;0.0;0.0
984;0.0;0.0;0.0;0.00878399983048439;-0.027327999472618103;1.0872639417648315;0.0;0.0;0.0
986;0.0;0.0;0.0;-0.014639999717473984;-0.007807999849319458;1.107759952545166;0.0;0.0;0.0
988;-0.10662800073623657;0.12175599485635757;0.9723399877548218;-0.006831999868154526;-0.031231999397277832;1.0872639417648315;-13.225625038146973;0.7306249737739563;12.162500381469727
990;0.0;0.0;0.0;-0.014639999717473984;-0.011711999773979187;1.083359956741333;0.0;0.0;0.0
992;0.0;0.0;0.0;0.0009759999811649323;-0.04294399917125702;1.09116792678833;0.0;0.0;0.0
994;0.0;0.0;0.0;0.024399999529123306;-0.03903999924659729;1.0794559717178345;0.0;0.0;0.0
996;-0.12224400043487549;0.11321599781513214;0.9584319591522217;-0.022447999566793442;-0.023423999547958374;1.0589599609375;-14.695625305175781;-0.17937499284744263;11.182499885559082
999;0.0;0.0;0.0;0.004879999905824661;-0.04684799909591675;1.0628639459609985;0.0;0.0;0.0
1001;0.0;0.0;0.0;-0.0029279999434947968;-0.015615999698638916;1.0745760202407837;0.0;0.0;0.0
1003;0.0;0.0;0.0;0.01268799975514412;-0.007807999849319458;1.066767930984497;0.0;0.0;0.0
1005;-0.10955599695444107;0.11028799414634705;0.9442799687385559;0.01659199967980385;-0.015615999698638916;1.0589599609375;-14.695625305175781;-4.23937463760376;11.602499961853027
1007;0.0;0.0;0.0;0.03611199930310249;-0.003903999924659729;1.0628639459609985;0.0;0.0;0.0
1009;0.0;0.0;0.0;0.028303999453783035;-0.031231999397277832;1.0745760202407837;0.0;0.0;0.0
1011;0.0;0.0;0.0;0.032207999378442764;0.007807999849319458;1.0550559759140015;0.0;0.0;0.0
1013;-0.09320800006389618;0.1180959939956665;0.9428159594535828;0.032207999378442764;0.003903999924659729;1.0745760202407837;-13.85562515258789;-8.369375228881836;13.21250057220459
1016;0.0;0.0;0.0;0.020495999604463577;-0.019519999623298645;1.083359956741333;0.0;0.0;0.0
1018;0.0;0.0;0.0;0.05953599885106087;-0.019519999623298645;1.09116792678833;0.0;0.0;0.0
1020;0.0;0.0;0.0;0.05953599885106087;-0.054655998945236206;1.09116792678833;0.0;0.0;0.0
1022;-0.07441999763250351;0.11370399594306946;0.9525759816169739;0.07905599474906921;-0.03903999924659729;1.0872639417648315;-13.92562484741211;-11.729374885559082;15.452500343322754
1024;0.0;0.0;0.0;0.07515199482440948;-0.023423999547958374;1.0950720310211182;0.0;0.0;0.0
1026;0.0;0.0;0.0;0.05563199892640114;-0.03513599932193756;1.0950720310211182;0.0;0.0;0.0
1028;0.0;0.0;0.0;0.07124799489974976;-0.054655998945236206;1.09116792678833;0.0;0.0;0.0
1030;-0.051239997148513794;0.09174399822950363;0.962336003780365;0.04391999915242195;-0.05075199902057648;1.1028800010681152;-15.465624809265137;-12.359375;17.482500076293945
1033;0.0;0.0;0.0;0.10150399804115295;-0.0663679987192154;1.09116792678833;0.0;0.0;0.0
1035;0.0;0.0;0.0;0.0634399950504303;-0.08198399841785431;1.107759952545166;0.0;0.0;0.0
1037;0.0;0.0;0.0;0.08295999467372894;-0.08979199826717377;1.107759952545166;0.0;0.0;0.0
1039;-0.03684400022029877;0.060999996960163116;0.9772199988365173;0.08686399459838867;-0.09759999811649323;1.0989760160446167;-17.915624618530273;-9.279375076293945;18.392499923706055
1041;0.0;0.0;0.0;0.05172799900174141;-0.08588799834251404;1.1028800010681152;0.0;0.0;0.0
1043;0.0;0.0;0.0;0.04782399907708168;-0.10150399804115295;1.107759952545166;0.0;0.0;0.0
1045;0.0;0.0;0.0;0.08686399459838867;-0.0936959981918335;1.1311839818954468;0.0;0.0;0.0
1047;-0.05392399802803993;0.028547998517751694;0.985759973526001;0.04391999915242195;-0.0936959981918335;1.0989760160446167;-19.455623626708984;-5.009374618530273;18.252500534057617
1050;0.0;0.0;0.0;0.05172799900174141;-0.12883199751377106;1.09116792678833;0.0;0.0;0.0
1052;0.0;0.0;0.0;0.020495999604463577;-0.13663999736309052;1.1116639375686646;0.0;0.0;0.0
1054;0.0;0.0;0.0;0.04391999915242195;-0.14444799721240997;1.1067839860916138;0.0;0.0;0.0
1056;-0.07466399669647217;0.00024399999529123306;0.9762439727783203;0.028303999453783035;-0.1483519971370697;1.1116639375686646;-20.435625076293945;-3.679375171661377;16.922500610351562
1058;0.0;0.0;0.0;0.05953599885106087;-0.12883199751377106;1.107759952545166;0.0;0.0;0.0
1060;0.0;0.0;0.0;0.020495999604463577;-0.16787199676036835;1.1028800010681152;0.0;0.0;0.0
1062;0.0;0.0;0.0;0.07124799489974976;-0.16396799683570862;1.1028800010681152;0.0;0.0;0.0
1064;-0.07295599579811096;-0.02659599855542183;0.9750239849090576;0.0634399950504303;-0.16787199676036835;1.1116639375686646;-20.505624771118164;-4.309374809265137;14.892499923706055
1067;0.0;0.0;0.0;0.020495999604463577;-0.16787199676036835;1.115567922592163;0.0;0.0;0.0
1069;0.0;0.0;0.0;0.07515199482440948;-0.17177599668502808;1.1028800010681152;0.0;0.0;0.0
1071;0.0;0.0;0.0;0.032207999378442764;-0.20691199600696564;1.1116639375686646;0.0;0.0;0.0
1073;-0.06465999782085419;-0.0453839972615242;0.9943000078201294;0.05953599885106087;-0.187391996383667;1.132159948348999;-19.94562339782715;-5.219374656677246;13.5625
1075;0.0;0.0;0.0;0.03611199930310249;-0.19519999623298645;1.139967918395996;0.0;0.0;0.0
1077;0.0;0.0;0.0;0.05953599885106087;-0.1756799966096878;1.1516799926757812;0.0;0.0;0.0
1079;0.0;0.0;0.0;0.01659199967980385;-0.18348799645900726;1.1604639291763306;0.0;0.0;0.0
1081;-0.07197999954223633;-0.0500199981033802;1.0191879272460938;0.04391999915242195;-0.187391996383667;1.1682720184326172;-18.8956241607666;-5.359375;12.232500076293945
1084;0.0;0.0;0.0;0.05953599885106087;-0.19910399615764618;1.1360639333724976;0.0;0.0;0.0
1086;0.0;0.0;0.0;0.028303999453783035;-0.20691199600696564;1.1848639249801636;0.0;0.0;0.0
1088;0.0;0.0;0.0;0.0634399950504303;-0.2030079960823059;1.1604639291763306;0.0;0.0;0.0
1090;-0.07637199759483337;-0.05416800081729889;1.032364010810852;0.01268799975514412;-0.19519999623298645;1.1438720226287842;-17.28562355041504;-5.849374771118164;10.762499809265137
1092;0.0;0.0;0.0;0.020495999604463577;-0.19519999623298645;1.1477760076522827;0.0;0.0;0.0
1094;0.0;0.0;0.0;0.05953599885106087;-0.19129599630832672;1.139967918395996;0.0;0.0;0.0
1096;0.0;0.0;0.0;0.05563199892640114;-0.19910399615764618;1.139967918395996;0.0;0.0;0.0
1098;-0.07832399755716324;-0.062219999730587006;1.0211399793624878;0.05172799900174141;-0.187391996383667;1.1438720226287842;-15.465624809265137;-7.319375038146973;9.012499809265137
1101;0.0;0.0;0.0;0.05563199892640114;-0.20691199600696564;1.1194720268249512;0.0;0.0;0.0
1103;0.0;0.0;0.0;0.020495999604463577;-0.2030079960823059;1.139967918395996;0.0;0.0;0.0
1105;0.0;0.0;0.0;0.04782399907708168;-0.22643199563026428;1.1194720268249512;0.0;0.0;0.0
1107;-0.07685999572277069;-0.06588000059127808;1.0035719871520996;0.05563199892640114;-0.2147199958562851;1.1233760118484497;-12.945625305175781;-8.299375534057617;6.982500076293945
1109;0.0;0.0;0.0;0.020495999604463577;-0.17958399653434753;1.1360639333724976;0.0;0.0;0.0
1111;0.0;0.0;0.0;0.024399999529123306;-0.19129599630832672;1.1360639333724976;0.0;0.0;0.0
1113;0.0;0.0;0.0;0.0634399950504303;-0.19129599630832672;1.1272799968719482;0.0;0.0;0.0
1115;-0.07881199568510056;-0.057339999824762344;0.9991799592971802;0.04001599922776222;-0.187391996383667;1.1272799968719482;-10.145625114440918;-11.379375457763672;5.162499904632568
1118;0.0;0.0;0.0;0.0634399950504303;-0.20691199600696564;1.132159948348999;0.0;0.0;0.0
1120;0.0;0.0;0.0;0.05172799900174141;-0.19910399615764618;1.1438720226287842;0.0;0.0;0.0
1122;0.0;0.0;0.0;0.07124799489974976;-0.187391996383667;1.1233760118484497;0.0;0.0;0.0
1124;-0.06002400070428848;-0.0558759979903698;0.9967399835586548;0.0907679945230484;-0.187391996383667;1.1311839818954468;-7.345625400543213;-15.649374961853027;4.112500190734863
1126;0.0;0.0;0.0;0.07124799489974976;-0.19129599630832672;1.0872639417648315;0.0;0.0;0.0
1128;0.0;0.0;0.0;0.09759999811649323;-0.20691199600696564;1.115567922592163;0.0;0.0;0.0
1130;0.0;0.0;0.0;0.1210239976644516;-0.19519999623298645;1.1116639375686646;0.0;0.0;0.0
1132;-0.024399999529123306;-0.045871999114751816;0.982587993144989;0.11028799414634705;-0.1756799966096878;1.0950720310211182;-5.8056254386901855;-17.189374923706055;3.2725000381469727
1135;0.0;0.0;0.0;0.10150399804115295;-0.15615999698638916;1.1028800010681152;0.0;0.0;0.0
1137;0.0;0.0;0.0;0.10247999429702759;-0.1600639969110489;1.1194720268249512;0.0;0.0;0.0
1139;0.0;0.0;0.0;0.1327359974384308;-0.15615999698638916;1.115567922592163;0.0;0.0;0.0
1141;-0.00024399999529123306;-0.02513200044631958;0.9794159531593323;0.11711999773979187;-0.16787199676036835;1.0950720310211182;-5.875625133514404;-14.109375;2.2225000858306885
1143;0.0;0.0;0.0;0.10638399422168732;-0.15225599706172943;1.1028800010681152;0.0;0.0;0.0
1145;0.0;0.0;0.0;0.11321599781513214;-0.15225599706172943;1.0989760160446167;0.0;0.0;0.0
1147;0.0;0.0;0.0;0.11711999773979187;-0.1210239976644516;1.0784800052642822;0.0;0.0;0.0
1150;-0.0009759999811649323;-0.013907999731600285;0.9738039970397949;0.1210239976644516;-0.1600639969110489;1.0950720310211182;-6.575625419616699;-10.25937557220459;1.8025000095367432
1152;0.0;0.0;0.0;0.12492799758911133;-0.12492799758911133;1.1194720268249512;0.0;0.0;0.0
1154;0.0;0.0;0.0;0.10150399804115295;-0.11711999773979187;1.115567922592163;0.0;0.0;0.0
1156;0.0;0.0;0.0;0.10150399804115295;-0.17177599668502808;1.0872639417648315;0.0;0.0;0.0
1158;-0.010247999802231789;-0.009271999821066856;0.9747799634933472;0.10247999429702759;-0.1483519971370697;1.083359956741333;-6.505625247955322;-7.73937463760376;2.1525001525878906
1160;0.0;0.0;0.0;0.08979199826717377;-0.1600639969110489;1.115567922592163;0.0;0.0;0.0
1162;0.0;0.0;0.0;0.06734399497509003;-0.1483519971370697;1.1116639375686646;0.0;0.0;0.0
1164;0.0;0.0;0.0;0.10638399422168732;-0.14444799721240997;1.083359956741333;0.0;0.0;0.0
1166;-0.014883999712765217;-0.010491999797523022;0.9689239859580994;0.12492799758911133;-0.12883199751377106;1.0745760202407837;-5.945625305175781;-8.159375190734863;3.3425002098083496
1169;0.0;0.0;0.0;0.10150399804115295;-0.12492799758911133;1.09116792678833;0.0;0.0;0.0
1171;0.0;0.0;0.0;0.07515199482440948;-0.13663999736309052;1.083359956741333;0.0;0.0;0.0
1173;0.0;0.0;0.0;0.1210239976644516;-0.16396799683570862;1.0745760202407837;0.0;0.0;0.0
1175;-0.02122800052165985;-0.010247999802231789;0.9589200019836426;0.09467199444770813;-0.14054399728775024;1.0989760160446167;-5.8056254386901855;-9.139375686645508;4.252500057220459
1177;0.0;0.0;0.0;0.07515199482440948;-0.14054399728775024;1.066767930984497;0.0;0.0;0.0
1179;0.0;0.0;0.0;0.1210239976644516;-0.15225599706172943;1.066767930984497;0.0;0.0;0.0
1181;0.0;0.0;0.0;0.10638399422168732;-0.13663999736309052;1.0462720394134521;0.0;0.0;0.0
1184;-0.022935999557375908;-0.01512799970805645;0.9476959705352783;0.09857599437236786;-0.14054399728775024;1.0628639459609985;-6.855625152587891;-9.4193754196167;3.8324999809265137
1186;0.0;0.0;0.0;0.10931199789047241;-0.16396799683570862;1.09116792678833;0.0;0.0;0.0
1188;0.0;0.0;0.0;0.10247999429702759;-0.1483519971370697;1.0589599609375;0.0;0.0;0.0
1190;0.0;0.0;0.0;0.07905599474906921;-0.1600639969110489;1.0550559759140015;0.0;0.0;0.0
1192;-0.020495999604463577;-0.014151999726891518;0.9472079873085022;0.09857599437236786;-0.1756799966096878;1.0745760202407837;-8.045624732971191;-8.439374923706055;2.572499990463257
1194;0.0;0.0;0.0;0.09857599437236786;-0.15615999698638916;1.083359956741333;0.0;0.0;0.0
1196;0.0;0.0;0.0;0.09857599437236786;-0.1483519971370697;1.066767930984497;0.0;0.0;0.0
1198;0.0;0.0;0.0;0.10931199789047241;-0.13663999736309052;1.0823839902877808;0.0;0.0;0.0
1201;-0.021715998649597168;-0.017324000597000122;0.9562360048294067;0.11028799414634705;-0.15615999698638916;1.09116792678833;-8.815625190734863;-7.879374980926514;1.1024999618530273
1203;0.0;0.0;0.0;0.10540799796581268;-0.17177599668502808;1.09116792678833;0.0;0.0;0.0
1205;0.0;0.0;0.0;0.12883199751377106;-0.1600639969110489;1.083359956741333;0.0;0.0;0.0
1207;0.0;0.0;0.0;0.1327359974384308;-0.15615999698638916;1.0989760160446167;0.0;0.0;0.0
1209;-0.01659199967980385;-0.025619998574256897;0.9647759795188904;0.10150399804115295;-0.1756799966096878;1.0745760202407837;-8.60562515258789;-8.649374961853027;0.4025000035762787
1211;0.0;0.0;0.0;0.12492799758911133;-0.15225599706172943;1.1272799968719482;0.0;0.0;0.0
1213;0.0;0.0;0.0;0.1210239976644516;-0.15615999698638916;1.107759952545166;0.0;0.0;0.0
1215;0.0;0.0;0.0;0.1210239976644516;-0.17177599668502808;1.115567922592163;0.0;0.0;0.0
1218;0.0029279999434947968;-0.03147599846124649;0.9713639616966248;0.12492799758911133;-0.18348799645900726;1.1116639375686646;-8.535625457763672;-9.489375114440918;0.33249998092651367
1220;0.0;0.0;0.0;0.1327359974384308;-0.15225599706172943;1.0989760160446167;0.0;0.0;0.0
1222;0.0;0.0;0.0;0.1600639969110489;-0.14444799721240997;1.09116792678833;0.0;0.0;0.0
1224;0.0;0.0;0.0;0.17177599668502808;-0.19129599630832672;1.083359956741333;0.0;0.0;0.0
1226;0.029523998498916626;-0.03903999924659729;0.9777079820632935;0.1600639969110489;-0.1600639969110489;1.115567922592163;-8.045624732971191;-8.229374885559082;1.1725000143051147
1228;0.0;0.0;0.0;0.14054399728775024;-0.19129599630832672;1.1194720268249512;0.0;0.0;0.0
1230;0.0;0.0;0.0;0.1756799966096878;-0.1756799966096878;1.1194720268249512;0.0;0.0;0.0
1232;0.0;0.0;0.0;0.13663999736309052;-0.17958399653434753;1.1272799968719482;0.0;0.0;0.0
1235;0.03415999934077263;-0.04196799919009209;0.9840520024299622;0.13663999736309052;-0.19519999623298645;1.107759952545166;-6.365625381469727;-5.149374961853027;3.0625
1237;0.0;0.0;0.0;0.11321599781513214;-0.15615999698638916;1.107759952545166;0.0;0.0;0.0
1239;0.0;0.0;0.0;0.1210239976644516;-0.19519999623298645;1.107759952545166;0.0;0.0;0.0
1241;0.0;0.0;0.0;0.1210239976644516;-0.17177599668502808;1.115567922592163;0.0;0.0;0.0
1243;0.01659199967980385;-0.04318799823522568;0.9862479567527771;0.15225599706172943;-0.16396799683570862;1.1116639375686646;-4.055624961853027;-3.749375104904175;5.302500247955322
1245;0.0;0.0;0.0;0.11711999773979187;-0.19129599630832672;1.139967918395996;0.0;0.0;0.0
1247;0.0;0.0;0.0;0.12883199751377106;-0.16787199676036835;1.1272799968719482;0.0;0.0;0.0
1249;0.0;0.0;0.0;0.10638399422168732;-0.18348799645900726;1.1233760118484497;0.0;0.0;0.0
1252;0.0012199999764561653;-0.04660400003194809;1.0003999471664429;0.15225599706172943;-0.17958399653434753;1.1555839776992798;-2.3056249618530273;-4.309374809265137;6.982500076293945
1254;0.0;0.0;0.0;0.11711999773979187;-0.1600639969110489;1.1360639333724976;0.0;0.0;0.0
1256;0.0;0.0;0.0;0.10247999429702759;-0.17958399653434753;1.1438720226287842;0.0;0.0;0.0
1258;0.0;0.0;0.0;0.09467199444770813;-0.19519999623298645;1.156559944152832;0.0;0.0;0.0
1260;-0.013175999745726585;-0.04123599827289581;1.017967939376831;0.11711999773979187;-0.16396799683570862;1.1477760076522827;-1.5356249809265137;-6.82937479019165;8.382499694824219
1262;0.0;0.0;0.0;0.1327359974384308;-0.16396799683570862;1.1516799926757812;0.0;0.0;0.0
1264;0.0;0.0;0.0;0.11321599781513214;-0.187391996383667;1.1360639333724976;0.0;0.0;0.0
1266;0.0;0.0;0.0;0.10247999429702759;-0.18348799645900726;1.156559944152832;0.0;0.0;0.0
1269;-0.011223999783396721;-0.039772000163793564;1.0211399793624878;0.10540799796581268;-0.17958399653434753;1.1272799968719482;-2.1656248569488525;-8.369375228881836;8.102499961853027
1271;0.0;0.0;0.0;0.10540799796581268;-0.19910399615764618;1.1438720226287842;0.0;0.0;0.0
1273;0.0;0.0;0.0;0.12883199751377106;-0.1756799966096878;1.1272799968719482;0.0;0.0;0.0
1275;0.0;0.0;0.0;0.12492799758911133;-0.187391996383667;1.1311839818954468;0.0;0.0;0.0
1277;0.003659999929368496;-0.04562800005078316;1.0155279636383057;0.12590399384498596;-0.19910399615764618;1.1516799926757812;-3.565624952316284;-7.73937463760376;6.982500076293945
1279;0.0;0.0;0.0;0.14054399728775024;-0.187391996383667;1.115567922592163;0.0;0.0;0.0
1281;0.0;0.0;0.0;0.12883199751377106;-0.19519999623298645;1.139967918395996;0.0;0.0;0.0
1283;0.0;0.0;0.0;0.14444799721240997;-0.1600639969110489;1.139967918395996;0.0;0.0;0.0
1286;0.01512799970805645;-0.047335997223854065;1.0077199935913086;0.16396799683570862;-0.19910399615764618;1.1438720226287842;-5.175625324249268;-6.199374675750732;6.002500057220459
1288;0.0;0.0;0.0;0.16396799683570862;-0.16787199676036835;1.1194720268249512;0.0;0.0;0.0
1290;0.0;0.0;0.0;0.1483519971370697;-0.2030079960823059;1.132159948348999;0.0;0.0;0.0
1292;0.0;0.0;0.0;0.11711999773979187;-0.16787199676036835;1.1311839818954468;0.0;0.0;0.0
1294;0.01512799970805645;-0.04758000001311302;1.0008879899978638;0.1483519971370697;-0.17958399653434753;1.1194720268249512;-6.155625343322754;-4.799375057220459;5.442500114440918
1296;0.0;0.0;0.0;0.14054399728775024;-0.17958399653434753;1.115567922592163;0.0;0.0;0.0
1298;0.0;0.0;0.0;0.1327359974384308;-0.2147199958562851;1.1116639375686646;0.0;0.0;0.0
1300;0.0;0.0;0.0;0.15225599706172943;-0.187391996383667;1.09116792678833;0.0;0.0;0.0
1303;0.018055999651551247;-0.05050799995660782;0.9862479567527771;0.1327359974384308;-0.19519999623298645;1.1116639375686646;-6.645625114440918;-4.519374847412109;5.022500038146973
1305;0.0;0.0;0.0;0.17177599668502808;-0.19129599630832672;1.1038559675216675;0.0;0.0;0.0
1307;0.0;0.0;0.0;0.16787199676036835;-0.18348799645900726;1.0950720310211182;0.0;0.0;0.0
1309;0.0;0.0;0.0;0.1756799966096878;-0.19519999623298645;1.115567922592163;0.0;0.0;0.0
1311;0.0331839993596077;-0.05514399707317352;0.9745360016822815;0.1483519971370697;-0.18348799645900726;1.0872639417648315;-6.505625247955322;-4.169374942779541;5.022500038146973
1313;0.0;0.0;0.0;0.15615999698638916;-0.19910399615764618;1.09116792678833;0.0;0.0;0.0
1315;0.0;0.0;0.0;0.15225599706172943;-0.19519999623298645;1.0872639417648315;0.0;0.0;0.0
1317;0.0;0.0;0.0;0.16787199676036835;-0.2030079960823059;1.107759952545166;0.0;0.0;0.0
1320;0.0453839972615242;-0.06148799881339073;0.9706319570541382;0.17177599668502808;-0.187391996383667;1.1116639375686646;-6.015625;-4.099374771118164;5.442500114440918
1322;0.0;0.0;0.0;0.1756799966096878;-0.21081599593162537;1.0989760160446167;0.0;0.0;0.0
1324;0.0;0.0;0.0;0.187391996383667;-0.20691199600696564;1.107759952545166;0.0;0.0;0.0
1326;0.0;0.0;0.0;0.16787199676036835;-0.21081599593162537;1.107759952545166;0.0;0.0;0.0
1328;0.05319199711084366;-0.07368800044059753;0.9706319570541382;0.17177599668502808;-0.22643199563026428;1.0784800052642822;-4.825625419616699;-2.7693750858306885;5.932499885559082
1330;0.0;0.0;0.0;0.16787199676036835;-0.21081599593162537;1.1194720268249512;0.0;0.0;0.0
1332;0.0;0.0;0.0;0.1600639969110489;-0.23814399540424347;1.0989760160446167;0.0;0.0;0.0
1334;0.0;0.0;0.0;0.17958399653434753;-0.230335995554924;1.0628639459609985;0.0;0.0;0.0
1337;0.0424560010433197;-0.08661999553442001;0.9608719944953918;0.1600639969110489;-0.2420479953289032;1.083359956741333;-3.005625009536743;-0.8793750405311584;5.932499885559082
1339;0.0;0.0;0.0;0.14054399728775024;-0.230335995554924;1.0745760202407837;0.0;0.0;0.0
1341;0.0;0.0;0.0;0.15225599706172943;-0.24595199525356293;1.0794559717178345;0.0;0.0;0.0
1343;0.0;0.0;0.0;0.14444799721240997;-0.24595199525356293;1.09116792678833;0.0;0.0;0.0
1345;0.031231999397277832;-0.09930799901485443;0.9555040001869202;0.1483519971370697;-0.23814399540424347;1.0794559717178345;-0.90562504529953;0.24062499403953552;5.09250020980835
1347;0.0;0.0;0.0;0.1483519971370697;-0.24985599517822266;1.0950720310211182;0.0;0.0;0.0
1349;0.0;0.0;0.0;0.14444799721240997;-0.2420479953289032;1.083359956741333;0.0;0.0;0.0
1351;0.0;0.0;0.0;0.12492799758911133;-0.22643199563026428;1.0794559717178345;0.0;0.0;0.0
1354;0.020495999604463577;-0.0983319953083992;0.9608719944953918;0.12492799758911133;-0.22252799570560455;1.1116639375686646;2.104375123977661;0.24062499403953552;4.182499885559082
1356;0.0;0.0;0.0;0.10931199789047241;-0.22252799570560455;1.0950720310211182;0.0;0.0;0.0
1358;0.0;0.0;0.0;0.1210239976644516;-0.22643199563026428;1.1028800010681152;0.0;0.0;0.0
1360;0.0;0.0;0.0;0.1210239976644516;-0.21862399578094482;1.1028800010681152;0.0;0.0;0.0
1362;0.009271999821066856;-0.08198399841785431;0.9689239859580994;0.11028799414634705;-0.230335995554924;1.107759952545166;4.764374732971191;-0.6693750023841858;2.992500066757202
1364;0.0;0.0;0.0;0.12492799758911133;-0.20691199600696564;1.1116639375686646;0.0;0.0;0.0
1366;0.0;0.0;0.0;0.13663999736309052;-0.15615999698638916;1.1028800010681152;0.0;0.0;0.0
1369;0.0;0.0;0.0;0.14054399728775024;-0.17958399653434753;1.1028800010681152;0.0;0.0;0.0
1371;0.007075999863445759;-0.051239997148513794;0.9828319549560547;0.14054399728775024;-0.17958399653434753;1.1272799968719482;6.024374961853027;-2.2793750762939453;1.662500023841858
1373;0.0;0.0;0.0;0.13663999736309052;-0.15615999698638916;1.115567922592163;0.0;0.0;0.0
1375;0.0;0.0;0.0;0.1483519971370697;-0.16396799683570862;1.132159948348999;0.0;0.0;0.0
1377;0.0;0.0;0.0;0.13663999736309052;-0.13663999736309052;1.1116639375686646;0.0;0.0;0.0
1379;0.020983999595046043;-0.02391199953854084;1.0008879899978638;0.14054399728775024;-0.16396799683570862;1.1067839860916138;5.184374809265137;-3.4693751335144043;0.8225000500679016
1381;0.0;0.0;0.0;0.16787199676036835;-0.14054399728775024;1.1604639291763306;0.0;0.0;0.0
1383;0.0;0.0;0.0;0.1756799966096878;-0.14054399728775024;1.1438720226287842;0.0;0.0;0.0
1385;0.0;0.0;0.0;0.1600639969110489;-0.14054399728775024;1.1438720226287842;0.0;0.0;0.0
1388;0.03660000115633011;-0.009027999825775623;1.0113799571990967;0.16787199676036835;-0.1483519971370697;1.1438720226287842;3.434375047683716;-1.6493749618530273;0.33249998092651367
1390;0.0;0.0;0.0;0.17958399653434753;-0.1327359974384308;1.1516799926757812;0.0;0.0;0.0
1392;0.0;0.0;0.0;0.1483519971370697;-0.1600639969110489;1.156559944152832;0.0;0.0;0.0
1394;0.0;0.0;0.0;0.14444799721240997;-0.12883199751377106;1.1272799968719482;0.0;0.0;0.0
1396;0.03367199748754501;-0.006099999882280827;1.0167479515075684;0.14444799721240997;-0.14054399728775024;1.1233760118484497;1.7543751001358032;2.060624837875366;0.1925000101327896
1398;0.0;0.0;0.0;0.14054399728775024;-0.14054399728775024;1.1272799968719482;0.0;0.0;0.0
1400;0.0;0.0;0.0;0.12492799758911133;-0.16396799683570862;1.1272799968719482;0.0;0.0;0.0
1402;0.0;0.0;0.0;0.14054399728775024;-0.16396799683570862;1.1194720268249512;0.0;0.0;0.0
1405;0.01512799970805645;-0.014151999726891518;1.009671926498413;0.1327359974384308;-0.13663999736309052;1.1233760118484497;0.5643749833106995;4.580625057220459;0.12250000238418579
1407;0.0;0.0;0.0;0.10150399804115295;-0.1483519971370697;1.1360639333724976;0.0;0.0;0.0
1409;0.0;0.0;0.0;0.12883199751377106;-0.1756799966096878;1.1194720268249512;0.0;0.0;0.0
1411;0.0;0.0;0.0;0.12883199751377106;-0.1756799966096878;1.139967918395996;0.0;0.0;0.0
1413;-0.003659999929368496;-0.018543999642133713;1.0028399229049683;0.09467199444770813;-0.14444799721240997;1.1360639333724976;0.7043749690055847;5.42062520980835;0.1925000101327896
1415;0.0;0.0;0.0;0.10247999429702759;-0.15615999698638916;1.1477760076522827;0.0;0.0;0.0
1417;0.0;0.0;0.0;0.08295999467372894;-0.1327359974384308;1.132159948348999;0.0;0.0;0.0
1420;0.0;0.0;0.0;0.0907679945230484;-0.14444799721240997;1.132159948348999;0.0;0.0;0.0
1422;-0.03001200035214424;-0.013175999745726585;1.0055240392684937;0.07124799489974976;-0.14444799721240997;1.132159948348999;1.5443750619888306;5.070625305175781;-0.4375000298023224
1424;0.0;0.0;0.0;0.05172799900174141;-0.13663999736309052;1.1311839818954468;0.0;0.0;0.0
1426;0.0;0.0;0.0;0.05172799900174141;-0.1483519971370697;1.139967918395996;0.0;0.0;0.0
1428;0.0;0.0;0.0;0.05953599885106087;-0.1327359974384308;1.1272799968719482;0.0;0.0;0.0
1430;-0.04684799909591675;-0.0012199999764561653;1.0094280242919922;0.04001599922776222;-0.12492799758911133;1.1516799926757812;2.5243749618530273;3.390625;-1.1375000476837158
1432;0.0;0.0;0.0;0.08686399459838867;-0.1327359974384308;1.1360639333724976;0.0;0.0;0.0
1434;0.0;0.0;0.0;0.0634399950504303;-0.10540799796581268;1.139967918395996;0.0;0.0;0.0
1437;0.0;0.0;0.0;0.07124799489974976;-0.09759999811649323;1.139967918395996;0.0;0.0;0.0
1439;-0.05416800081729889;0.018055999651551247;1.0052800178527832;0.07905599474906921;-0.09759999811649323;1.1360639333724976;2.664375066757202;1.1506251096725464;-1.977500081062317
1441;0.0;0.0;0.0;0.07124799489974976;-0.11321599781513214;1.115567922592163;0.0;0.0;0.0
1443;0.0;0.0;0.0;0.08686399459838867;-0.10540799796581268;1.1233760118484497;0.0;0.0;0.0
1445;0.0;0.0;0.0;0.11419199407100677;-0.09759999811649323;1.1272799968719482;0.0;0.0;0.0
1447;-0.04562800005078316;0.02903600037097931;0.9962520003318787;0.0634399950504303;-0.10540799796581268;1.115567922592163;1.7543751001358032;-1.019374966621399;-2.607499837875366
1449;0.0;0.0;0.0;0.10540799796581268;-0.10540799796581268;1.1116639375686646;0.0;0.0;0.0
1451;0.0;0.0;0.0;0.08295999467372894;-0.10540799796581268;1.139967918395996;0.0;0.0;0.0
1454;0.0;0.0;0.0;0.10247999429702759;-0.11711999773979187;1.1194720268249512;0.0;0.0;0.0
1456;-0.02537599951028824;0.037087999284267426;0.9950319528579712;0.10247999429702759;-0.0936959981918335;1.1360639333724976;0.7743750214576721;-1.9993749856948853;-2.4674999713897705
1458;0.0;0.0;0.0;0.09759999811649323;-0.11321599781513214;1.132159948348999;0.0;0.0;0.0
1460;0.0;0.0;0.0;0.14054399728775024;-0.10150399804115295;1.1272799968719482;0.0;0.0;0.0
1462;0.0;0.0;0.0;0.10540799796581268;-0.08198399841785431;1.1194720268249512;0.0;0.0;0.0
1464;-0.009759999811649323;0.03903999924659729;0.9969840049743652;0.1210239976644516;-0.08198399841785431;1.132159948348999;-0.4156249761581421;-1.4393749237060547;-1.4175000190734863
1466;0.0;0.0;0.0;0.11419199407100677;-0.10931199789047241;1.1272799968719482;0.0;0.0;0.0
1468;0.0;0.0;0.0;0.1210239976644516;-0.1210239976644516;1.1311839818954468;0.0;0.0;0.0
1471;0.0;0.0;0.0;0.11711999773979187;-0.0936959981918335;1.132159948348999;0.0;0.0;0.0
1473;-0.003903999924659729;0.030499998480081558;0.9979599714279175;0.10540799796581268;-0.11711999773979187;1.115567922592163;-1.8856250047683716;0.1706250011920929;-0.3675000071525574
1475;0.0;0.0;0.0;0.12492799758911133;-0.12492799758911133;1.1233760118484497;0.0;0.0;0.0
1477;0.0;0.0;0.0;0.07515199482440948;-0.12492799758911133;1.1116639375686646;0.0;0.0;0.0
1479;0.0;0.0;0.0;0.10247999429702759;-0.14054399728775024;1.1233760118484497;0.0;0.0;0.0
1481;-0.014151999726891518;0.009759999811649323;0.9928359985351562;0.08686399459838867;-0.12492799758911133;1.115567922592163;-2.8656249046325684;1.8506250381469727;0.33249998092651367
1483;0.0;0.0;0.0;0.11321599781513214;-0.13663999736309052;1.1438720226287842;0.0;0.0;0.0
1485;0.0;0.0;0.0;0.07905599474906921;-0.12492799758911133;1.115567922592163;0.0;0.0;0.0
1488;0.0;0.0;0.0;0.11321599781513214;-0.16396799683570862;1.115567922592163;0.0;0.0;0.0
1490;-0.031231999397277832;-0.012199999764561653;0.9860039949417114;0.09857599437236786;-0.1756799966096878;1.09116792678833;-2.6556248664855957;1.7806251049041748;0.4724999964237213
1492;0.0;0.0;0.0;0.06734399497509003;-0.17958399653434753;1.107759952545166;0.0;0.0;0.0
1494;0.0;0.0;0.0;0.0634399950504303;-0.18348799645900726;1.1194720268249512;0.0;0.0;0.0
1496;0.0;0.0;0.0;0.09467199444770813;-0.17177599668502808;1.1360639333724976;0.0;0.0;0.0
1498;-0.044652000069618225;-0.024156000465154648;0.9874680042266846;0.06734399497509003;-0.16396799683570862;1.1194720268249512;-1.7456250190734863;0.1706250011920929;-0.22750000655651093
1500;0.0;0.0;0.0;0.09467199444770813;-0.14054399728775024;1.1194720268249512;0.0;0.0;0.0
1502;0.0;0.0;0.0;0.08686399459838867;-0.14054399728775024;1.132159948348999;0.0;0.0;0.0
1505;0.0;0.0;0.0;0.08295999467372894;-0.17177599668502808;1.1194720268249512;0.0;0.0;0.0
1507;-0.04318799823522568;-0.023423999547958374;0.9916160106658936;0.0907679945230484;-0.1600639969110489;1.132159948348999;-1.3956249952316284;-1.3693749904632568;-1.6975001096725464
1509;0.0;0.0;0.0;0.07124799489974976;-0.16396799683570862;1.1233760118484497;0.0;0.0;0.0
1511;0.0;0.0;0.0;0.07124799489974976;-0.1600639969110489;1.1194720268249512;0.0;0.0;0.0
1513;0.0;0.0;0.0;0.08295999467372894;-0.16396799683570862;1.1116639375686646;0.0;0.0;0.0
1515;-0.032207999378442764;-0.01903199963271618;0.9916160106658936;0.06734399497509003;-0.15615999698638916;1.1233760118484497;-1.325624942779541;-0.9493750333786011;-3.5874998569488525
1517;0.0;0.0;0.0;0.09857599437236786;-0.15615999698638916;1.1116639375686646;0.0;0.0;0.0
1519;0.0;0.0;0.0;0.10931199789047241;-0.15225599706172943;1.1438720226287842;0.0;0.0;0.0
1522;0.0;0.0;0.0;0.09857599437236786;-0.14444799721240997;1.107759952545166;0.0;0.0;0.0
1524;-0.023667998611927032;-0.010003999806940556;0.9894199967384338;0.10150399804115295;-0.14444799721240997;1.107759952545166;-0.90562504529953;-0.809374988079071;-4.567500114440918
1526;0.0;0.0;0.0;0.11028799414634705;-0.14444799721240997;1.1194720268249512;0.0;0.0;0.0
1528;0.0;0.0;0.0;0.11321599781513214;-0.14054399728775024;1.1194720268249512;0.0;0.0;0.0
1530;0.0;0.0;0.0;0.1210239976644516;-0.1327359974384308;1.139967918395996;0.0;0.0;0.0
1532;-0.008051999844610691;0.0017079999670386314;0.9923479557037354;0.15225599706172943;-0.13663999736309052;1.0950720310211182;-0.2056249976158142;-2.2093751430511475;-4.287499904632568
1534;0.0;0.0;0.0;0.1327359974384308;-0.12492799758911133;1.1272799968719482;0.0;0.0;0.0
1536;0.0;0.0;0.0;0.16396799683570862;-0.13663999736309052;1.1516799926757812;0.0;0.0;0.0
1539;0.0;0.0;0.0;0.1756799966096878;-0.15615999698638916;1.1311839818954468;0.0;0.0;0.0
1541;0.020983999595046043;0.005123999901115894;1.0001559257507324;0.14444799721240997;-0.1210239976644516;1.1272799968719482;-0.06562499701976776;-2.7693750858306885;-2.747499942779541
1543;0.0;0.0;0.0;0.14054399728775024;-0.12492799758911133;1.139967918395996;0.0;0.0;0.0
1545;0.0;0.0;0.0;0.15225599706172943;-0.1327359974384308;1.1311839818954468;0.0;0.0;0.0
1547;0.0;0.0;0.0;0.13663999736309052;-0.12492799758911133;1.1360639333724976;0.0;0.0;0.0
1549;0.027084000408649445;0.0029279999434947968;1.0072319507598877;0.14054399728775024;-0.1483519971370697;1.1272799968719482;-0.2056249976158142;-0.5293750166893005;-1.4175000190734863
1551;0.0;0.0;0.0;0.11711999773979187;-0.15225599706172943;1.1116639375686646;0.0;0.0;0.0
1553;0.0;0.0;0.0;0.10638399422168732;-0.1483519971370697;1.132159948348999;0.0;0.0;0.0
1556;0.0;0.0;0.0;0.13663999736309052;-0.15615999698638916;1.132159948348999;0.0;0.0;0.0
1558;0.007563999854028225;-0.008051999844610691;1.0025960206985474;0.11321599781513214;-0.15225599706172943;1.1360639333724976;-0.9756250381469727;2.130625009536743;-1.6975001096725464
1560;0.0;0.0;0.0;0.12883199751377106;-0.15615999698638916;1.1028800010681152;0.0;0.0;0.0
1562;0.0;0.0;0.0;0.0936959981918335;-0.17958399653434753;1.0950720310211182;0.0;0.0;0.0
1564;0.0;0.0;0.0;0.1210239976644516;-0.15615999698638916;1.1233760118484497;0.0;0.0;0.0
1566;-0.0007319999858736992;-0.027327999472618103;0.9860039949417114;0.14444799721240997;-0.19129599630832672;1.1028800010681152;-1.5356249809265137;2.830625057220459;-3.0274999141693115
1569;0.0;0.0;0.0;0.12492799758911133;-0.17177599668502808;1.1116639375686646;0.0;0.0;0.0
1570;0.0;0.0;0.0;0.1327359974384308;-0.18348799645900726;1.09116792678833;0.0;0.0;0.0
1573;0.0;0.0;0.0;0.14054399728775024;-0.1600639969110489;1.083359956741333;0.0;0.0;0.0
1575;0.012931999750435352;-0.039772000163793564;0.974291980266571;0.14444799721240997;-0.16787199676036835;1.115567922592163;-0.13562500476837158;2.690624952316284;-3.7274999618530273
1577;0.0;0.0;0.0;0.10931199789047241;-0.16787199676036835;1.1028800010681152;0.0;0.0;0.0
1579;0.0;0.0;0.0;0.14054399728775024;-0.14444799721240997;1.1116639375686646;0.0;0.0;0.0
1581;0.0;0.0;0.0;0.13663999736309052;-0.187391996383667;1.1116639375686646;0.0;0.0;0.0
1583;0.008051999844610691;-0.03147599846124649;0.9803919792175293;0.10247999429702759;-0.15225599706172943;1.1194720268249512;2.3843750953674316;2.830625057220459;-3.7274999618530273
1586;0.0;0.0;0.0;0.11711999773979187;-0.1600639969110489;1.1360639333724976;0.0;0.0;0.0
1587;0.0;0.0;0.0;0.1210239976644516;-0.15615999698638916;1.1477760076522827;0.0;0.0;0.0
1590;0.0;0.0;0.0;0.1210239976644516;-0.15615999698638916;1.1311839818954468;0.0;0.0;0.0
1592;-0.007319999858736992;-0.015615999698638916;0.9964959621429443;0.1180959939956665;-0.15225599706172943;1.1311839818954468;3.854375123977661;1.8506250381469727;-4.007500171661377
1594;0.0;0.0;0.0;0.11711999773979187;-0.12883199751377106;1.1438720226287842;0.0;0.0;0.0
1596;0.0;0.0;0.0;0.10540799796581268;-0.13663999736309052;1.1438720226287842;0.0;0.0;0.0
1598;0.0;0.0;0.0;0.10638399422168732;-0.12883199751377106;1.1272799968719482;0.0;0.0;0.0
1600;-0.014151999726891518;-0.0029279999434947968;1.0050359964370728;0.10150399804115295;-0.14444799721240997;1.132159948348999;4.064374923706055;0.7306249737739563;-4.987499713897705
1603;0.0;0.0;0.0;0.08295999467372894;-0.15225599706172943;1.1516799926757812;0.0;0.0;0.0
1605;0.0;0.0;0.0;0.11321599781513214;-0.13663999736309052;1.115567922592163;0.0;0.0;0.0
1607;0.0;0.0;0.0;0.10247999429702759;-0.1210239976644516;1.1272799968719482;0.0;0.0;0.0
1609;-0.013419999741017818;0.0007319999858736992;0.9950319528579712;0.10540799796581268;-0.10540799796581268;1.1194720268249512;3.7143750190734863;1.2906250953674316;-6.177499771118164
1611;0.0;0.0;0.0;0.0907679945230484;-0.13663999736309052;1.1116639375686646;0.0;0.0;0.0
1613;0.0;0.0;0.0;0.10540799796581268;-0.10931199789047241;1.0989760160446167;0.0;0.0;0.0
1615;0.0;0.0;0.0;0.09467199444770813;-0.11321599781513214;1.1272799968719482;0.0;0.0;0.0
1617;-0.022447999566793442;0.013419999741017818;0.9847840070724487;0.0907679945230484;-0.0936959981918335;1.1116639375686646;3.924375057220459;2.830625057220459;-7.297500133514404
1619;0.0;0.0;0.0;0.08686399459838867;-0.10931199789047241;1.107759952545166;0.0;0.0;0.0
1622;0.0;0.0;0.0;0.08295999467372894;-0.0936959981918335;1.115567922592163;0.0;0.0;0.0
1624;0.0;0.0;0.0;0.09467199444770813;-0.0936959981918335;1.107759952545166;0.0;0.0;0.0
1626;-0.029279999434947968;0.0302559994161129;0.9813680052757263;0.07905599474906921;-0.1210239976644516;1.1116639375686646;3.924375057220459;2.4106249809265137;-7.577499866485596
1628;0.0;0.0;0.0;0.10638399422168732;-0.10931199789047241;1.1028800010681152;0.0;0.0;0.0
1630;0.0;0.0;0.0;0.10931199789047241;-0.11321599781513214;1.107759952545166;0.0;0.0;0.0
1632;0.0;0.0;0.0;0.10247999429702759;-0.11321599781513214;1.0950720310211182;0.0;0.0;0.0
1634;-0.014883999712765217;0.03269600123167038;0.9791719913482666;0.10540799796581268;-0.08979199826717377;1.0989760160446167;4.20437479019165;0.590624988079071;-6.667500019073486
1637;0.0;0.0;0.0;0.1327359974384308;-0.10150399804115295;1.0872639417648315;0.0;0.0;0.0
1639;0.0;0.0;0.0;0.14444799721240997;-0.10540799796581268;1.1194720268249512;0.0;0.0;0.0
1641;0.0;0.0;0.0;0.11711999773979187;-0.08588799834251404;1.115567922592163;0.0;0.0;0.0
1643;0.0;0.03415999934077263;0.9791719913482666;0.12492799758911133;-0.08979199826717377;1.09116792678833;4.764374732971191;0.8006250262260437;-5.057499885559082
1645;0.0;0.0;0.0;0.12492799758911133;-0.10931199789047241;1.115567922592163;0.0;0.0;0.0
1647;0.0;0.0;0.0;0.12492799758911133;-0.0936959981918335;1.115567922592163;0.0;0.0;0.0
1649;0.0;0.0;0.0;0.10638399422168732;-0.10540799796581268;1.1272799968719482;0.0;0.0;0.0
1651;-0.009759999811649323;0.03684400022029877;0.9860039949417114;0.11321599781513214;-0.07417599856853485;1.139967918395996;4.554374694824219;1.7106250524520874;-4.217499732971191
1654;0.0;0.0;0.0;0.08295999467372894;-0.11711999773979187;1.1233760118484497;0.0;0.0;0.0
1656;0.0;0.0;0.0;0.08686399459838867;-0.09759999811649323;1.1233760118484497;0.0;0.0;0.0
1658;0.0;0.0;0.0;0.10638399422168732;-0.08979199826717377;1.1272799968719482;0.0;0.0;0.0
1660;-0.024156000465154648;0.04025999829173088;1.0006439685821533;0.08686399459838867;-0.11321599781513214;1.139967918395996;3.1543750762939453;1.080625057220459;-4.147500038146973
1662;0.0;0.0;0.0;0.10540799796581268;-0.07807999849319458;1.1272799968719482;0.0;0.0;0.0
1664;0.0;0.0;0.0;0.09467199444770813;-0.10150399804115295;1.139967918395996;0.0;0.0;0.0
1666;0.0;0.0;0.0;0.08686399459838867;-0.10540799796581268;1.1438720226287842;0.0;0.0;0.0
1668;-0.0226919986307621;0.04270000010728836;1.0167479515075684;0.09857599437236786;-0.09759999811649323;1.139967918395996;0.9143750071525574;-0.3893750011920929;-4.357500076293945
1671;0.0;0.0;0.0;0.1327359974384308;-0.08588799834251404;1.1555839776992798;0.0;0.0;0.0
1673;0.0;0.0;0.0;0.12492799758911133;-0.10931199789047241;1.139967918395996;0.0;0.0;0.0
1675;0.0;0.0;0.0;0.11711999773979187;-0.09759999811649323;1.132159948348999;0.0;0.0;0.0
1677;-0.003659999929368496;0.033427998423576355;1.0089399814605713;0.1180959939956665;-0.1210239976644516;1.1233760118484497;-1.6056249141693115;-0.7393749952316284;-5.057499885559082
1679;0.0;0.0;0.0;0.13663999736309052;-0.09759999811649323;1.1028800010681152;0.0;0.0;0.0
1681;0.0;0.0;0.0;0.11321599781513214;-0.11711999773979187;1.107759952545166;0.0;0.0;0.0
1683;0.0;0.0;0.0;0.1483519971370697;-0.12883199751377106;1.132159948348999;0.0;0.0;0.0
1685;0.008051999844610691;0.014639999717473984;0.9855159521102905;0.1327359974384308;-0.1483519971370697;1.0950720310211182;-2.8656249046325684;0.38062500953674316;-5.337500095367432
1688;0.0;0.0;0.0;0.15225599706172943;-0.1327359974384308;1.0872639417648315;0.0;0.0;0.0
1690;0.0;0.0;0.0;0.11711999773979187;-0.14444799721240997;1.0872639417648315;0.0;0.0;0.0
1692;0.0;0.0;0.0;0.1483519971370697;-0.1327359974384308;1.09116792678833;0.0;0.0;0.0
1694;0.010979999788105488;-0.0017079999670386314;0.9659959673881531;0.10540799796581268;-0.14444799721240997;1.0784800052642822;-3.005625009536743;1.5006250143051147;-5.267499923706055
1696;0.0;0.0;0.0;0.1210239976644516;-0.1483519971370697;1.1028800010681152;0.0;0.0;0.0
1698;0.0;0.0;0.0;0.13663999736309052;-0.17177599668502808;1.0745760202407837;0.0;0.0;0.0
1700;0.0;0.0;0.0;0.1210239976644516;-0.15225599706172943;1.0706720352172852;0.0;0.0;0.0
1702;0.004635999910533428;-0.011223999783396721;0.9584319591522217;0.14054399728775024;-0.14444799721240997;1.09116792678833;-2.025624990463257;2.5506248474121094;-5.057499885559082
1705;0.0;0.0;0.0;0.10931199789047241;-0.14054399728775024;1.1028800010681152;0.0;0.0;0.0
1707;0.0;0.0;0.0;0.10931199789047241;-0.19519999623298645;1.0989760160446167;0.0;0.0;0.0
1709;0.0;0.0;0.0;0.09857599437236786;-0.14054399728775024;1.1038559675216675;0.0;0.0;0.0
1711;-0.004635999910533428;-0.01903199963271618;0.9689239859580994;0.07905599474906921;-0.1600639969110489;1.0950720310211182;-0.5556250214576721;3.7406249046325684;-4.707499980926514
1713;0.0;0.0;0.0;0.0907679945230484;-0.14444799721240997;1.1233760118484497;0.0;0.0;0.0
1715;0.0;0.0;0.0;0.10638399422168732;-0.16396799683570862;1.1028800010681152;0.0;0.0;0.0
1717;0.0;0.0;0.0;0.09759999811649323;-0.14054399728775024;1.1311839818954468;0.0;0.0;0.0
1719;-0.020739998668432236;-0.01903199963271618;0.994055986404419;0.10150399804115295;-0.16396799683570862;1.1116639375686646;1.1943750381469727;2.900624990463257;-3.1675000190734863
1722;0.0;0.0;0.0;0.07124799489974976;-0.15225599706172943;1.1516799926757812;0.0;0.0;0.0
1724;0.0;0.0;0.0;0.07124799489974976;-0.14444799721240997;1.1516799926757812;0.0;0.0;0.0
1726;0.0;0.0;0.0;0.08295999467372894;-0.12883199751377106;1.132159948348999;0.0;0.0;0.0
1728;-0.0348920002579689;-0.01512799970805645;1.0113799571990967;0.08686399459838867;-0.15225599706172943;1.1604639291763306;1.7543751001358032;1.1506251096725464;-1.977500081062317
1730;0.0;0.0;0.0;0.09467199444770813;-0.15225599706172943;1.1438720226287842;0.0;0.0;0.0
1732;0.0;0.0;0.0;0.08686399459838867;-0.14054399728775024;1.139967918395996;0.0;0.0;0.0
1734;0.0;0.0;0.0;0.09759999811649323;-0.1756799966096878;1.1360639333724976;0.0;0.0;0.0
1736;-0.03855200111865997;-0.02147199958562851;1.0167479515075684;0.08295999467372894;-0.187391996383667;1.1604639291763306;0.9843749403953552;-0.17937499284744263;-1.4175000190734863
1739;0.0;0.0;0.0;0.07905599474906921;-0.1756799966096878;1.1604639291763306;0.0;0.0;0.0
1741;0.0;0.0;0.0;0.07124799489974976;-0.14444799721240997;1.1643680334091187;0.0;0.0;0.0
1743;0.0;0.0;0.0;0.08295999467372894;-0.19910399615764618;1.115567922592163;0.0;0.0;0.0
1745;-0.04270000010728836;-0.025863999500870705;1.0155279636383057;0.0634399950504303;-0.1600639969110489;1.139967918395996;-0.6956250071525574;-1.509374976158142;-1.6975001096725464
1747;0.0;0.0;0.0;0.0634399950504303;-0.18348799645900726;1.115567922592163;0.0;0.0;0.0
1749;0.0;0.0;0.0;0.07905599474906921;-0.15615999698638916;1.115567922592163;0.0;0.0;0.0
1751;0.0;0.0;0.0;0.10247999429702759;-0.17177599668502808;1.1194720268249512;0.0;0.0;0.0
1753;-0.03294000029563904;-0.03757599741220474;1.0013760328292847;0.08686399459838867;-0.16396799683570862;1.1116639375686646;-3.075624942779541;-1.3693749904632568;-3.377500057220459
1756;0.0;0.0;0.0;0.09857599437236786;-0.17177599668502808;1.1194720268249512;0.0;0.0;0.0
1758;0.0;0.0;0.0;0.09857599437236786;-0.187391996383667;1.1116639375686646;0.0;0.0;0.0
1760;0.0;0.0;0.0;0.11711999773979187;-0.1756799966096878;1.1272799968719482;0.0;0.0;0.0
1762;-0.023180000483989716;-0.04904399812221527;0.9886879920959473;0.09857599437236786;-0.19519999623298645;1.115567922592163;-4.825625419616699;-0.5293750166893005;-5.6875
1764;0.0;0.0;0.0;0.12492799758911133;-0.21862399578094482;1.0989760160446167;0.0;0.0;0.0
1766;0.0;0.0;0.0;0.11321599781513214;-0.19910399615764618;1.1116639375686646;0.0;0.0;0.0
1768;0.0;0.0;0.0;0.1327359974384308;-0.187391996383667;1.0872639417648315;0.0;0.0;0.0
1770;-0.003903999924659729;-0.060999996960163116;0.9735599756240845;0.12883199751377106;-0.20691199600696564;1.0989760160446167;-6.015625;0.1706250011920929;-7.577499866485596
1773;0.0;0.0;0.0;0.1327359974384308;-0.21081599593162537;1.0784800052642822;0.0;0.0;0.0
1775;0.0;0.0;0.0;0.14444799721240997;-0.19129599630832672;1.0745760202407837;0.0;0.0;0.0
1777;0.0;0.0;0.0;0.14054399728775024;-0.187391996383667;1.083359956741333;0.0;0.0;0.0
1779;0.016103999689221382;-0.07295599579811096;0.9559919834136963;0.1483519971370697;-0.21081599593162537;1.0872639417648315;-6.085625171661377;1.2206250429153442;-8.977499961853027
1781;0.0;0.0;0.0;0.14054399728775024;-0.19910399615764618;1.0784800052642822;0.0;0.0;0.0
1783;0.0;0.0;0.0;0.1483519971370697;-0.22252799570560455;1.0784800052642822;0.0;0.0;0.0
1785;0.0;0.0;0.0;0.13663999736309052;-0.1756799966096878;1.083359956741333;0.0;0.0;0.0
1787;0.02659599855542183;-0.07783599942922592;0.9484279751777649;0.1327359974384308;-0.2030079960823059;1.0745760202407837;-4.825625419616699;3.810624837875366;-10.587499618530273
1790;0.0;0.0;0.0;0.14444799721240997;-0.19910399615764618;1.083359956741333;0.0;0.0;0.0
1792;0.0;0.0;0.0;0.14054399728775024;-0.2030079960823059;1.0794559717178345;0.0;0.0;0.0
1794;0.0;0.0;0.0;0.12883199751377106;-0.2147199958562851;1.09116792678833;0.0;0.0;0.0
1796;0.025863999500870705;-0.07320000231266022;0.9550159573554993;0.11711999773979187;-0.21081599593162537;1.0950720310211182;-1.5356249809265137;6.540625095367432;-11.637499809265137
1798;0.0;0.0;0.0;0.12883199751377106;-0.20691199600696564;1.0706720352172852;0.0;0.0;0.0
1800;0.0;0.0;0.0;0.14444799721240997;-0.16396799683570862;1.0794559717178345;0.0;0.0;0.0
1802;0.0;0.0;0.0;0.1210239976644516;-0.15225599706172943;1.0950720310211182;0.0;0.0;0.0
1804;0.007563999854028225;-0.05319199711084366;0.9694119691848755;0.12883199751377106;-0.18348799645900726;1.0872639417648315;3.224375009536743;7.870625019073486;-11.427499771118164
1807;0.0;0.0;0.0;0.11711999773979187;-0.1600639969110489;1.115567922592163;0.0;0.0;0.0
1809;0.0;0.0;0.0;0.10638399422168732;-0.1327359974384308;1.1194720268249512;0.0;0.0;0.0
1811;0.0;0.0;0.0;0.11321599781513214;-0.14054399728775024;1.132159948348999;0.0;0.0;0.0
1813;-0.013419999741017818;-0.02000799961388111;0.9925919771194458;0.10540799796581268;-0.1483519971370697;1.1272799968719482;7.984375;8.15062427520752;-10.727499961853027
1815;0.0;0.0;0.0;0.0907679945230484;-0.11321599781513214;1.1360639333724976;0.0;0.0;0.0
1817;0.0;0.0;0.0;0.11419199407100677;-0.10150399804115295;1.1477760076522827;0.0;0.0;0.0
1819;0.0;0.0;0.0;0.0907679945230484;-0.08198399841785431;1.1477760076522827;0.0;0.0;0.0
1821;-0.020983999595046043;0.024887999519705772;1.014307975769043;0.08686399459838867;-0.10150399804115295;1.1604639291763306;11.204375267028809;7.240625381469727;-8.977499961853027
1824;0.0;0.0;0.0;0.10247999429702759;-0.07027199864387512;1.156559944152832;0.0;0.0;0.0
1826;0.0;0.0;0.0;0.07515199482440948;-0.07807999849319458;1.1555839776992798;0.0;0.0;0.0
1828;0.0;0.0;0.0;0.0907679945230484;-0.05075199902057648;1.1604639291763306;0.0;0.0;0.0
1830;-0.028303999453783035;0.06295199692249298;1.02675199508667;0.0634399950504303;-0.054655998945236206;1.156559944152832;11.904375076293945;6.050625324249268;-6.807499885559082
1832;0.0;0.0;0.0;0.0907679945230484;-0.05075199902057648;1.1643680334091187;0.0;0.0;0.0
1834;0.0;0.0;0.0;0.08686399459838867;-0.03513599932193756;1.1721760034561157;0.0;0.0;0.0
1836;0.0;0.0;0.0;0.0907679945230484;-0.023423999547958374;1.1848639249801636;0.0;0.0;0.0
1838;-0.042211998254060745;0.08393599838018417;1.0326080322265625;0.07515199482440948;-0.04294399917125702;1.1643680334091187;10.224374771118164;5.630625247955322;-5.547500133514404
1841;0.0;0.0;0.0;0.0634399950504303;-0.03513599932193756;1.1360639333724976;0.0;0.0;0.0
1843;0.0;0.0;0.0;0.07515199482440948;-0.054655998945236206;1.1682720184326172;0.0;0.0;0.0
1845;0.0;0.0;0.0;0.06734399497509003;-0.054655998945236206;1.1604639291763306;0.0;0.0;0.0
1847;-0.054899998009204865;0.08661999553442001;1.0301679372787476;0.03611199930310249;-0.062463998794555664;1.180959939956665;7.004374980926514;5.840625286102295;-5.617499828338623
1849;0.0;0.0;0.0;0.04782399907708168;-0.058559998869895935;1.1604639291763306;0.0;0.0;0.0
1851;0.0;0.0;0.0;0.05563199892640114;-0.058559998869895935;1.139967918395996;0.0;0.0;0.0
1853;0.0;0.0;0.0;0.06734399497509003;-0.04684799909591675;1.132159948348999;0.0;0.0;0.0
1855;-0.06465999782085419;0.08076399564743042;1.0208959579467773;0.04391999915242195;-0.054655998945236206;1.1721760034561157;3.784374952316284;5.630625247955322;-6.247499942779541
1858;0.0;0.0;0.0;0.04001599922776222;-0.08198399841785431;1.1438720226287842;0.0;0.0;0.0
1860;0.0;0.0;0.0;0.07905599474906921;-0.07807999849319458;1.1233760118484497;0.0;0.0;0.0
1862;0.0;0.0;0.0;0.04391999915242195;-0.03513599932193756;1.1438720226287842;0.0;0.0;0.0
1864;-0.05538799986243248;0.08198399841785431;1.012355923652649;0.07124799489974976;-0.0663679987192154;1.1233760118484497;0.7743750214576721;3.6706249713897705;-6.667500019073486
1866;0.0;0.0;0.0;0.07905599474906921;-0.04294399917125702;1.115567922592163;0.0;0.0;0.0
1868;0.0;0.0;0.0;0.11711999773979187;-0.03513599932193756;1.1311839818954468;0.0;0.0;0.0
1870;0.0;0.0;0.0;0.10540799796581268;-0.07027199864387512;1.132159948348999;0.0;0.0;0.0
1872;-0.0226919986307621;0.08857199549674988;0.9984479546546936;0.10540799796581268;-0.03903999924659729;1.1194720268249512;-2.2356250286102295;2.060624837875366;-6.177499771118164
1875;0.0;0.0;0.0;0.1327359974384308;-0.03903999924659729;1.115567922592163;0.0;0.0;0.0
1877;0.0;0.0;0.0;0.12883199751377106;-0.03903999924659729;1.1116639375686646;0.0;0.0;0.0
1879;0.0;0.0;0.0;0.1483519971370697;-0.054655998945236206;1.0989760160446167;0.0;0.0;0.0
1881;0.0014639999717473984;0.08417999744415283;0.9791719913482666;0.1327359974384308;-0.07417599856853485;1.0950720310211182;-4.965625286102295;3.6706249713897705;-5.127500057220459
1883;0.0;0.0;0.0;0.13663999736309052;-0.058559998869895935;1.09116792678833;0.0;0.0;0.0
1885;0.0;0.0;0.0;0.14444799721240997;-0.04294399917125702;1.09116792678833;0.0;0.0;0.0
1887;0.0;0.0;0.0;0.12883199751377106;-0.07027199864387512;1.0872639417648315;0.0;0.0;0.0
1889;0.008295999839901924;0.0680759996175766;0.9620919823646545;0.12492799758911133;-0.04684799909591675;1.0784800052642822;-6.29562520980835;6.890625;-3.6575000286102295
1892;0.0;0.0;0.0;0.13663999736309052;-0.07027199864387512;1.0706720352172852;0.0;0.0;0.0
1894;0.0;0.0;0.0;0.09857599437236786;-0.0936959981918335;1.1028800010681152;0.0;0.0;0.0
1896;0.0;0.0;0.0;0.1327359974384308;-0.10150399804115295;1.0872639417648315;0.0;0.0;0.0
1898;-0.00317199993878603;0.044895999133586884;0.9562360048294067;0.10540799796581268;-0.08198399841785431;1.0745760202407837;-6.015625;8.99062442779541;-1.9075000286102295
1900;0.0;0.0;0.0;0.11321599781513214;-0.10540799796581268;1.1028800010681152;0.0;0.0;0.0
1902;0.0;0.0;0.0;0.08295999467372894;-0.10931199789047241;1.0989760160446167;0.0;0.0;0.0
1904;0.0;0.0;0.0;0.12883199751377106;-0.10540799796581268;1.09116792678833;0.0;0.0;0.0
1906;-0.01512799970805645;0.026839999482035637;0.9598959684371948;0.1210239976644516;-0.10931199789047241;1.0950720310211182;-3.4256250858306885;8.430624961853027;-0.7874999642372131
1909;0.0;0.0;0.0;0.0907679945230484;-0.10150399804115295;1.0950720310211182;0.0;0.0;0.0
1911;0.0;0.0;0.0;0.1327359974384308;-0.0936959981918335;1.09116792678833;0.0;0.0;0.0
1913;0.0;0.0;0.0;0.11028799414634705;-0.10931199789047241;1.09116792678833;0.0;0.0;0.0
1915;-0.010491999797523022;0.01878799870610237;0.9640439748764038;0.12492799758911133;-0.1210239976644516;1.107759952545166;-0.06562499701976776;6.6806254386901855;-0.1574999988079071
1917;0.0;0.0;0.0;0.10638399422168732;-0.12883199751377106;1.0872639417648315;0.0;0.0;0.0
1919;0.0;0.0;0.0;0.12492799758911133;-0.10931199789047241;1.1028800010681152;0.0;0.0;0.0
1921;0.0;0.0;0.0;0.13663999736309052;-0.10150399804115295;1.0950720310211182;0.0;0.0;0.0
1923;0.0004879999905824661;0.021959999576210976;0.9652639627456665;0.1327359974384308;-0.10540799796581268;1.0989760160446167;3.6443750858306885;6.610625267028809;-0.29750001430511475
1926;0.0;0.0;0.0;0.1327359974384308;-0.08198399841785431;1.1116639375686646;0.0;0.0;0.0
1928;0.0;0.0;0.0;0.14054399728775024;-0.09759999811649323;1.1233760118484497;0.0;0.0;0.0
1930;0.0;0.0;0.0;0.09857599437236786;-0.07417599856853485;1.115567922592163;0.0;0.0;0.0
1932;-0.008539999835193157;0.04025999829173088;0.977463960647583;0.10150399804115295;-0.08979199826717377;1.1067839860916138;7.074374675750732;8.570624351501465;-0.5074999928474426
1934;0.0;0.0;0.0;0.07515199482440948;-0.062463998794555664;1.1116639375686646;0.0;0.0;0.0
1936;0.0;0.0;0.0;0.07515199482440948;-0.07417599856853485;1.1233760118484497;0.0;0.0;0.0
1938;0.0;0.0;0.0;0.08686399459838867;-0.058559998869895935;1.1438720226287842;0.0;0.0;0.0
1940;-0.033427998423576355;0.06880799680948257;0.9943000078201294;0.10540799796581268;-0.031231999397277832;1.1233760118484497;9.804374694824219;9.55062484741211;-0.5774999856948853
1943;0.0;0.0;0.0;0.06734399497509003;-0.027327999472618103;1.139967918395996;0.0;0.0;0.0
1945;0.0;0.0;0.0;0.08686399459838867;-0.03513599932193756;1.1360639333724976;0.0;0.0;0.0
1947;0.0;0.0;0.0;0.04391999915242195;-0.015615999698638916;1.1360639333724976;0.0;0.0;0.0
1949;-0.05904799699783325;0.10150399804115295;1.009671926498413;0.07124799489974976;-0.027327999472618103;1.132159948348999;11.064374923706055;8.15062427520752;-0.29750001430511475
1951;0.0;0.0;0.0;0.07124799489974976;-0.007807999849319458;1.139967918395996;0.0;0.0;0.0
1953;0.0;0.0;0.0;0.032207999378442764;-0.023423999547958374;1.1682720184326172;0.0;0.0;0.0
1955;0.0;0.0;0.0;0.05172799900174141;-0.007807999849319458;1.1360639333724976;0.0;0.0;0.0
1957;-0.07320000231266022;0.12004800140857697;1.0108920335769653;0.01268799975514412;-0.007807999849319458;1.1311839818954468;10.08437442779541;5.630625247955322;-0.5774999856948853
1960;0.0;0.0;0.0;0.05172799900174141;-0.011711999773979187;1.1555839776992798;0.0;0.0;0.0
1962;0.0;0.0;0.0;0.03611199930310249;0.027327999472618103;1.139967918395996;0.0;0.0;0.0
1964;0.0;0.0;0.0;0.04001599922776222;-0.007807999849319458;1.1438720226287842;0.0;0.0;0.0
1966;-0.07661599665880203;0.12590399384498596;1.0086959600448608;0.04391999915242195;-0.003903999924659729;1.1438720226287842;7.774374961853027;3.390625;-1.1375000476837158
1968;0.0;0.0;0.0;0.04782399907708168;0.011711999773979187;1.139967918395996;0.0;0.0;0.0
1970;0.0;0.0;0.0;0.0634399950504303;-0.007807999849319458;1.1555839776992798;0.0;0.0;0.0
1972;0.0;0.0;0.0;0.032207999378442764;0.011711999773979187;1.1438720226287842;0.0;0.0;0.0
1974;-0.0727119967341423;0.12883199751377106;1.0086959600448608;0.07124799489974976;0.011711999773979187;1.1555839776992798;4.624374866485596;1.3606250286102295;-1.4875000715255737
1977;0.0;0.0;0.0;0.04391999915242195;0.007807999849319458;1.139967918395996;0.0;0.0;0.0
1979;0.0;0.0;0.0;0.06734399497509003;0.003903999924659729;1.1360639333724976;0.0;0.0;0.0
1981;0.0;0.0;0.0;0.07515199482440948;-0.03513599932193756;1.132159948348999;0.0;0.0;0.0
1983;-0.052216000854969025;0.1268799901008606;1.012112021446228;0.07905599474906921;-0.031231999397277832;1.1360639333724976;0.7043749690055847;-0.6693750023841858;-1.1375000476837158
1985;0.0;0.0;0.0;0.0907679945230484;-0.015615999698638916;1.1438720226287842;0.0;0.0;0.0
1987;0.0;0.0;0.0;0.08979199826717377;-0.015615999698638916;1.1311839818954468;0.0;0.0;0.0
1989;0.0;0.0;0.0;0.1327359974384308;-0.011711999773979187;1.1438720226287842;0.0;0.0;0.0
1992;-0.025619998574256897;0.11004399508237839;1.0084519386291504;0.1180959939956665;-0.03903999924659729;1.139967918395996;-3.215625047683716;-1.7893749475479126;-0.08749999850988388
1994;0.0;0.0;0.0;0.10931199789047241;-0.062463998794555664;1.107759952545166;0.0;0.0;0.0
1996;0.0;0.0;0.0;0.13663999736309052;-0.023423999547958374;1.1233760118484497;0.0;0.0;0.0
1998;0.0;0.0;0.0;0.09467199444770813;-0.04294399917125702;1.1194720268249512;0.0;0.0;0.0
2000;-0.0024399999529123306;0.0802759975194931;0.9916160106658936;0.14444799721240997;-0.08588799834251404;1.115567922592163;-6.365625381469727;-0.7393749952316284;1.522499918937683
2002;0.0;0.0;0.0;0.12492799758911133;-0.10150399804115295;1.0989760160446167;0.0;0.0;0.0
2004;0.0;0.0;0.0;0.12492799758911133;-0.08979199826717377;1.107759952545166;0.0;0.0;0.0
2006;0.0;0.0;0.0;0.12883199751377106;-0.0936959981918335;1.0784800052642822;0.0;0.0;0.0
2009;0.004147999919950962;0.04782399907708168;0.9684360027313232;0.1210239976644516;-0.11711999773979187;1.0950720310211182;-8.255624771118164;1.7806251049041748;3.202500104904175
2011;0.0;0.0;0.0;0.1210239976644516;-0.10931199789047241;1.0745760202407837;0.0;0.0;0.0
2013;0.0;0.0;0.0;0.10150399804115295;-0.11321599781513214;1.0872639417648315;0.0;0.0;0.0
2015;0.0;0.0;0.0;0.10638399422168732;-0.1327359974384308;1.083359956741333;0.0;0.0;0.0
2017;-0.0029279999434947968;0.014639999717473984;0.9454999566078186;0.09857599437236786;-0.14054399728775024;1.066767930984497;-9.375625610351562;4.580625057220459;3.9725000858306885
2019;0.0;0.0;0.0;0.0936959981918335;-0.15615999698638916;1.083359956741333;0.0;0.0;0.0
2021;0.0;0.0;0.0;0.07905599474906921;-0.19910399615764618;1.0628639459609985;0.0;0.0;0.0
2023;0.0;0.0;0.0;0.09857599437236786;-0.14444799721240997;1.066767930984497;0.0;0.0;0.0
2026;-0.022447999566793442;-0.019763998687267303;0.933788001537323;0.10247999429702759;-0.16787199676036835;1.0745760202407837;-8.60562515258789;6.190625190734863;4.392499923706055
2028;0.0;0.0;0.0;0.07905599474906921;-0.19910399615764618;1.0706720352172852;0.0;0.0;0.0
2030;0.0;0.0;0.0;0.09467199444770813;-0.18348799645900726;1.066767930984497;0.0;0.0;0.0
2032;0.0;0.0;0.0;0.06734399497509003;-0.187391996383667;1.0589599609375;0.0;0.0;0.0
2034;-0.04636000096797943;-0.048312000930309296;0.9362279772758484;0.05172799900174141;-0.17177599668502808;1.0628639459609985;-5.735625267028809;6.050625324249268;4.322500228881836
2036;0.0;0.0;0.0;0.05953599885106087;-0.19129599630832672;1.0745760202407837;0.0;0.0;0.0
2038;0.0;0.0;0.0;0.020495999604463577;-0.187391996383667;1.0872639417648315;0.0;0.0;0.0
2040;0.0;0.0;0.0;0.05953599885106087;-0.19910399615764618;1.09116792678833;0.0;0.0;0.0
2043;-0.06709999591112137;-0.05514399707317352;0.9523319602012634;0.04782399907708168;-0.2030079960823059;1.0950720310211182;-1.675624966621399;3.5306248664855957;3.692500114440918
2045;0.0;0.0;0.0;0.05172799900174141;-0.19910399615764618;1.1116639375686646;0.0;0.0;0.0
2047;0.0;0.0;0.0;0.04001599922776222;-0.1756799966096878;1.1028800010681152;0.0;0.0;0.0
2049;0.0;0.0;0.0;0.0634399950504303;-0.16396799683570862;1.132159948348999;0.0;0.0;0.0
2051;-0.07759200036525726;-0.040748000144958496;0.9828319549560547;0.04001599922776222;-0.16787199676036835;1.1194720268249512;1.1243751049041748;-0.7393749952316284;2.7825000286102295
2053;0.0;0.0;0.0;0.07905599474906921;-0.14054399728775024;1.1360639333724976;0.0;0.0;0.0
2055;0.0;0.0;0.0;0.05172799900174141;-0.1600639969110489;1.1311839818954468;0.0;0.0;0.0
2057;0.0;0.0;0.0;0.07124799489974976;-0.1756799966096878;1.1233760118484497;0.0;0.0;0.0
2060;-0.05514399707317352;-0.026108000427484512;0.9996680021286011;0.06734399497509003;-0.14054399728775024;1.1477760076522827;2.104375123977661;-4.309374809265137;1.522499918937683
2062;0.0;0.0;0.0;0.09467199444770813;-0.15615999698638916;1.1360639333724976;0.0;0.0;0.0
2064;0.0;0.0;0.0;0.10931199789047241;-0.15225599706172943;1.1438720226287842;0.0;0.0;0.0
2066;0.0;0.0;0.0;0.09857599437236786;-0.15615999698638916;1.139967918395996;0.0;0.0;0.0
2068;-0.01195599976927042;-0.015371999703347683;1.0099159479141235;0.1483519971370697;-0.16396799683570862;1.1604639291763306;1.1243751049041748;-4.939374923706055;0.6825000047683716
2070;0.0;0.0;0.0;0.13663999736309052;-0.15615999698638916;1.139967918395996;0.0;0.0;0.0
2072;0.0;0.0;0.0;0.14444799721240997;-0.14054399728775024;1.1194720268249512;0.0;0.0;0.0
2074;0.0;0.0;0.0;0.16396799683570862;-0.1600639969110489;1.115567922592163;0.0;0.0;0.0
2077;0.027327999472618103;-0.014639999717473984;1.001863956451416;0.1600639969110489;-0.15225599706172943;1.139967918395996;-0.90562504529953;-2.9093751907348633;0.4724999964237213
2079;0.0;0.0;0.0;0.16787199676036835;-0.14444799721240997;1.1516799926757812;0.0;0.0;0.0
2081;0.0;0.0;0.0;0.17958399653434753;-0.16787199676036835;1.1272799968719482;0.0;0.0;0.0
2083;0.0;0.0;0.0;0.1756799966096878;-0.1600639969110489;1.1233760118484497;0.0;0.0;0.0
2085;0.0453839972615242;-0.01903199963271618;0.9989359974861145;0.19910399615764618;-0.1483519971370697;1.115567922592163;-3.4256250858306885;1.2206250429153442;1.1725000143051147
2087;0.0;0.0;0.0;0.15615999698638916;-0.15615999698638916;1.0989760160446167;0.0;0.0;0.0
2089;0.0;0.0;0.0;0.15615999698638916;-0.17958399653434753;1.09116792678833;0.0;0.0;0.0
2091;0.0;0.0;0.0;0.16787199676036835;-0.20691199600696564;1.0950720310211182;0.0;0.0;0.0
2094;0.047335997223854065;-0.04147999733686447;0.9821000099182129;0.16787199676036835;-0.16787199676036835;1.09116792678833;-5.245625019073486;6.750625133514404;1.662500023841858
2096;0.0;0.0;0.0;0.1600639969110489;-0.19519999623298645;1.1116639375686646;0.0;0.0;0.0
2098;0.0;0.0;0.0;0.14054399728775024;-0.21862399578094482;1.1116639375686646;0.0;0.0;0.0
2100;0.0;0.0;0.0;0.1327359974384308;-0.2147199958562851;1.083359956741333;0.0;0.0;0.0
2102;0.022447999566793442;-0.06954000145196915;0.9745360016822815;0.11711999773979187;-0.2030079960823059;1.107759952545166;-5.105625152587891;11.860624313354492;1.662500023841858
2104;0.0;0.0;0.0;0.1210239976644516;-0.22252799570560455;1.09116792678833;0.0;0.0;0.0
2106;0.0;0.0;0.0;0.12883199751377106;-0.2147199958562851;1.115567922592163;0.0;0.0;0.0
2108;0.0;0.0;0.0;0.09467199444770813;-0.21081599593162537;1.0872639417648315;0.0;0.0;0.0
2111;-0.014151999726891518;-0.08173999935388565;0.9745360016822815;0.05953599885106087;-0.187391996383667;1.1116639375686646;-3.9156248569488525;14.870624542236328;0.612500011920929
2113;0.0;0.0;0.0;0.08686399459838867;-0.21862399578094482;1.1116639375686646;0.0;0.0;0.0
2115;0.0;0.0;0.0;0.08295999467372894;-0.22643199563026428;1.09116792678833;0.0;0.0;0.0
2117;0.0;0.0;0.0;0.03611199930310249;-0.20691199600696564;1.1194720268249512;0.0;0.0;0.0
2119;-0.05660799890756607;-0.08661999553442001;0.9777079820632935;0.05953599885106087;-0.2030079960823059;1.1194720268249512;-1.6056249141693115;15.150625228881836;-1.277500033378601
2121;0.0;0.0;0.0;0.032207999378442764;-0.19910399615764618;1.1194720268249512;0.0;0.0;0.0
2123;0.0;0.0;0.0;0.04391999915242195;-0.24985599517822266;1.1038559675216675;0.0;0.0;0.0
2125;0.0;0.0;0.0;0.032207999378442764;-0.22643199563026428;1.1233760118484497;0.0;0.0;0.0
2128;-0.08173999935388565;-0.08100800216197968;0.9838079810142517;0.04001599922776222;-0.22643199563026428;1.115567922592163;1.614375114440918;11.020625114440918;-3.377500057220459
2130;0.0;0.0;0.0;0.03611199930310249;-0.2147199958562851;1.1116639375686646;0.0;0.0;0.0
2132;0.0;0.0;0.0;0.024399999529123306;-0.19910399615764618;1.1233760118484497;0.0;0.0;0.0
2134;0.0;0.0;0.0;0.020495999604463577;-0.23423999547958374;1.107759952545166;0.0;0.0;0.0
2136;-0.0878399983048439;-0.07612799853086472;0.9943000078201294;0.020495999604463577;-0.20691199600696564;1.115567922592163;4.904374599456787;4.930624961853027;-5.127500057220459
2138;0.0;0.0;0.0;0.04001599922776222;-0.19129599630832672;1.1116639375686646;0.0;0.0;0.0
2140;0.0;0.0;0.0;0.04001599922776222;-0.21081599593162537;1.132159948348999;0.0;0.0;0.0
2142;0.0;0.0;0.0;0.05563199892640114;-0.187391996383667;1.1116639375686646;0.0;0.0;0.0
2145;-0.08198399841785431;-0.06612399965524673;1.00381600856781;0.03611199930310249;-0.17958399653434753;1.1438720226287842;7.774374961853027;0.030625000596046448;-6.667500019073486
2147;0.0;0.0;0.0;0.05563199892640114;-0.21081599593162537;1.1438720226287842;0.0;0.0;0.0
2149;0.0;0.0;0.0;0.05953599885106087;-0.15225599706172943;1.1438720226287842;0.0;0.0;0.0
2151;0.0;0.0;0.0;0.07515199482440948;-0.15225599706172943;1.1272799968719482;0.0;0.0;0.0
2153;-0.07051599770784378;-0.050995998084545135;1.02211594581604;0.07515199482440948;-0.187391996383667;1.156559944152832;9.244375228881836;-1.6493749618530273;-8.977499961853027
2155;0.0;0.0;0.0;0.04001599922776222;-0.16396799683570862;1.1604639291763306;0.0;0.0;0.0
2157;0.0;0.0;0.0;0.04782399907708168;-0.15615999698638916;1.1721760034561157;0.0;0.0;0.0
2159;0.0;0.0;0.0;0.07905599474906921;-0.14444799721240997;1.1926720142364502;0.0;0.0;0.0
2162;-0.05807200074195862;-0.031231999397277832;1.038707971572876;0.05172799900174141;-0.15225599706172943;1.1682720184326172;8.89437484741211;-0.8793750405311584;-11.707499504089355
2164;0.0;0.0;0.0;0.08686399459838867;-0.12492799758911133;1.1926720142364502;0.0;0.0;0.0
2166;0.0;0.0;0.0;0.05953599885106087;-0.1600639969110489;1.180959939956665;0.0;0.0;0.0
2168;0.0;0.0;0.0;0.07515199482440948;-0.1210239976644516;1.1643680334091187;0.0;0.0;0.0
2170;-0.04513999819755554;-0.01268799975514412;1.0472480058670044;0.07515199482440948;-0.16787199676036835;1.1721760034561157;6.86437463760376;0.8006250262260437;-13.947500228881836
2172;0.0;0.0;0.0;0.07905599474906921;-0.1327359974384308;1.156559944152832;0.0;0.0;0.0
2174;0.0;0.0;0.0;0.08295999467372894;-0.11711999773979187;1.1604639291763306;0.0;0.0;0.0
2176;0.0;0.0;0.0;0.10638399422168732;-0.15615999698638916;1.1682720184326172;0.0;0.0;0.0
2179;-0.03415999934077263;-0.015615999698638916;1.035048007965088;0.06734399497509003;-0.15225599706172943;1.1604639291763306;4.694375038146973;2.760624885559082;-15.487500190734863
2181;0.0;0.0;0.0;0.06734399497509003;-0.14054399728775024;1.1516799926757812;0.0;0.0;0.0
2183;0.0;0.0;0.0;0.0936959981918335;-0.17958399653434753;1.1477760076522827;0.0;0.0;0.0
2185;0.0;0.0;0.0;0.07905599474906921;-0.12883199751377106;1.1360639333724976;0.0;0.0;0.0
2187;-0.03245199844241142;-0.016835998743772507;1.022603988647461;0.09467199444770813;-0.13663999736309052;1.1643680334091187;3.6443750858306885;4.790625095367432;-16.537500381469727
2189;0.0;0.0;0.0;0.08686399459838867;-0.1600639969110489;1.1272799968719482;0.0;0.0;0.0
2191;0.0;0.0;0.0;0.08295999467372894;-0.14444799721240997;1.1272799968719482;0.0;0.0;0.0
2193;0.0;0.0;0.0;0.08686399459838867;-0.1756799966096878;1.1311839818954468;0.0;0.0;0.0
2196;-0.03171999752521515;-0.018055999651551247;0.9979599714279175;0.08686399459838867;-0.12883199751377106;1.09116792678833;3.6443750858306885;6.050625324249268;-17.09749984741211
2198;0.0;0.0;0.0;0.08686399459838867;-0.11711999773979187;1.1272799968719482;0.0;0.0;0.0
2200;0.0;0.0;0.0;0.10150399804115295;-0.1327359974384308;1.107759952545166;0.0;0.0;0.0
2202;0.0;0.0;0.0;0.07905599474906921;-0.1210239976644516;1.0989760160446167;0.0;0.0;0.0
2204;-0.02635199949145317;0.0024399999529123306;0.9764879941940308;0.08295999467372894;-0.12492799758911133;1.09116792678833;4.20437479019165;6.400625228881836;-17.09749984741211
2206;0.0;0.0;0.0;0.09467199444770813;-0.10931199789047241;1.066767930984497;0.0;0.0;0.0
2208;0.0;0.0;0.0;0.11711999773979187;-0.11711999773979187;1.09116792678833;0.0;0.0;0.0
2211;0.0;0.0;0.0;0.1210239976644516;-0.1210239976644516;1.0989760160446167;0.0;0.0;0.0
2213;-0.014883999712765217;0.01512799970805645;0.961359977722168;0.1210239976644516;-0.1210239976644516;1.0950720310211182;4.764374732971191;6.120625019073486;-16.11750030517578
2215;0.0;0.0;0.0;0.11419199407100677;-0.10150399804115295;1.1038559675216675;0.0;0.0;0.0
2217;0.0;0.0;0.0;0.11419199407100677;-0.1210239976644516;1.0745760202407837;0.0;0.0;0.0
2219;0.0;0.0;0.0;0.10638399422168732;-0.10150399804115295;1.0784800052642822;0.0;0.0;0.0
2221;0.0026839999482035637;0.028060000389814377;0.9659959673881531;0.10638399422168732;-0.10540799796581268;1.0794559717178345;5.394374847412109;5.350625038146973;-13.317500114440918
2223;0.0;0.0;0.0;0.12883199751377106;-0.10931199789047241;1.083359956741333;0.0;0.0;0.0
2225;0.0;0.0;0.0;0.11711999773979187;-0.08588799834251404;1.09116792678833;0.0;0.0;0.0
2228;0.0;0.0;0.0;0.15225599706172943;-0.11321599781513214;1.083359956741333;0.0;0.0;0.0
2230;-0.004147999919950962;0.029767999425530434;0.9513559937477112;0.10540799796581268;-0.08198399841785431;1.0950720310211182;5.814374923706055;7.800625324249268;-10.447500228881836
2232;0.0;0.0;0.0;0.11028799414634705;-0.10540799796581268;1.0872639417648315;0.0;0.0;0.0
2234;0.0;0.0;0.0;0.09857599437236786;-0.12883199751377106;1.0589599609375;0.0;0.0;0.0
2236;0.0;0.0;0.0;0.06734399497509003;-0.11321599781513214;1.083359956741333;0.0;0.0;0.0
2238;-0.01878799870610237;0.020739998668432236;0.9525759816169739;0.10150399804115295;-0.12883199751377106;1.0628639459609985;7.564374923706055;10.320624351501465;-8.6274995803833
2240;0.0;0.0;0.0;0.08686399459838867;-0.10150399804115295;1.09116792678833;0.0;0.0;0.0
2242;0.0;0.0;0.0;0.04782399907708168;-0.1327359974384308;1.0745760202407837;0.0;0.0;0.0
2245;0.0;0.0;0.0;0.05172799900174141;-0.0936959981918335;1.09116792678833;0.0;0.0;0.0
2247;-0.03928399831056595;0.018055999651551247;0.9586759805679321;0.0634399950504303;-0.10540799796581268;1.09116792678833;9.034375190734863;12.210624694824219;-7.367499828338623
2249;0.0;0.0;0.0;0.04782399907708168;-0.10150399804115295;1.0794559717178345;0.0;0.0;0.0
2251;0.0;0.0;0.0;0.04782399907708168;-0.08198399841785431;1.1028800010681152;0.0;0.0;0.0
2253;0.0;0.0;0.0;0.020495999604463577;-0.12883199751377106;1.09116792678833;0.0;0.0;0.0
2255;-0.0802759975194931;0.027084000408649445;0.9637999534606934;0.04391999915242195;-0.08979199826717377;1.1028800010681152;8.82437515258789;12.840624809265137;-8.6274995803833
2257;0.0;0.0;0.0;0.03611199930310249;-0.08979199826717377;1.1028800010681152;0.0;0.0;0.0
2259;0.0;0.0;0.0;0.01659199967980385;-0.10150399804115295;1.0745760202407837;0.0;0.0;0.0
2262;0.0;0.0;0.0;0.020495999604463577;-0.11711999773979187;1.1116639375686646;0.0;0.0;0.0
2264;-0.09979599714279175;0.024887999519705772;0.9694119691848755;0.04001599922776222;-0.13663999736309052;1.1028800010681152;7.354374885559082;11.930624961853027;-11.217499732971191
2266;0.0;0.0;0.0;0.028303999453783035;-0.1483519971370697;1.1038559675216675;0.0;0.0;0.0
2268;0.0;0.0;0.0;0.024399999529123306;-0.1210239976644516;1.107759952545166;0.0;0.0;0.0
2270;0.0;0.0;0.0;0.0009759999811649323;-0.12492799758911133;1.1116639375686646;0.0;0.0;0.0
2272;-0.10223599523305893;0.017079999670386314;0.9799039959907532;0.01659199967980385;-0.10931199789047241;1.1233760118484497;6.934374809265137;9.690625190734863;-13.317500114440918
2275;0.0;0.0;0.0;0.032207999378442764;-0.1327359974384308;1.1282559633255005;0.0;0.0;0.0
2276;0.0;0.0;0.0;0.024399999529123306;-0.12492799758911133;1.1116639375686646;0.0;0.0;0.0
2279;0.0;0.0;0.0;0.00878399983048439;-0.10150399804115295;1.1272799968719482;0.0;0.0;0.0
2281;-0.10565199702978134;0.022204000502824783;0.9938119649887085;0.00878399983048439;-0.08979199826717377;1.1360639333724976;7.354374885559082;6.890625;-14.577500343322754
2283;0.0;0.0;0.0;0.01268799975514412;-0.14444799721240997;1.1360639333724976;0.0;0.0;0.0
2285;0.0;0.0;0.0;-0.014639999717473984;-0.10931199789047241;1.1360639333724976;0.0;0.0;0.0
2287;0.0;0.0;0.0;-0.022447999566793442;-0.08198399841785431;1.1360639333724976;0.0;0.0;0.0
2289;-0.11589999496936798;0.033427998423576355;1.006500005722046;-0.006831999868154526;-0.1210239976644516;1.1272799968719482;7.774374961853027;4.230625152587891;-15.487500190734863
2291;0.0;0.0;0.0;-0.0029279999434947968;-0.07417599856853485;1.1360639333724976;0.0;0.0;0.0
2293;0.0;0.0;0.0;-0.022447999566793442;-0.0663679987192154;1.1438720226287842;0.0;0.0;0.0
2296;0.0;0.0;0.0;-0.010735999792814255;-0.07807999849319458;1.1477760076522827;0.0;0.0;0.0
2298;-0.12931999564170837;0.05050799995660782;1.0155279636383057;-0.014639999717473984;-0.08198399841785431;1.132159948348999;7.004374980926514;2.6206250190734863;-17.3075008392334
2300;0.0;0.0;0.0;-0.02635199949145317;-0.07807999849319458;1.156559944152832;0.0;0.0;0.0
2302;0.0;0.0;0.0;-0.0302559994161129;-0.062463998794555664;1.1516799926757812;0.0;0.0;0.0
2304;0.0;0.0;0.0;-0.03806399926543236;-0.054655998945236206;1.1516799926757812;0.0;0.0;0.0
2306;-0.13639599084854126;0.06880799680948257;1.0187000036239624;-0.018543999642133713;-0.05075199902057648;1.1555839776992798;5.884374618530273;1.6406251192092896;-20.177499771118164
2308;0.0;0.0;0.0;-0.018543999642133713;-0.054655998945236206;1.1438720226287842;0.0;0.0;0.0
2310;0.0;0.0;0.0;0.004879999905824661;-0.054655998945236206;1.1516799926757812;0.0;0.0;0.0
2313;0.0;0.0;0.0;-0.014639999717473984;-0.058559998869895935;1.1477760076522827;0.0;0.0;0.0
2315;-0.12492799758911133;0.07075999677181244;1.0147960186004639;-0.0029279999434947968;-0.0663679987192154;1.1477760076522827;5.604374885559082;0.31062498688697815;-22.767499923706055
2317;0.0;0.0;0.0;-0.0029279999434947968;-0.05075199902057648;1.1555839776992798;0.0;0.0;0.0
2319;0.0;0.0;0.0;0.00878399983048439;-0.062463998794555664;1.139967918395996;0.0;0.0;0.0
2321;0.0;0.0;0.0;0.01268799975514412;-0.062463998794555664;1.1438720226287842;0.0;0.0;0.0
2323;-0.10687199980020523;0.07539600133895874;1.0089399814605713;0.0009759999811649323;-0.05075199902057648;1.1516799926757812;6.164374828338623;-2.349375009536743;-23.25749969482422
2325;0.0;0.0;0.0;0.024399999529123306;-0.05075199902057648;1.1438720226287842;0.0;0.0;0.0
2327;0.0;0.0;0.0;0.032207999378442764;-0.04294399917125702;1.139967918395996;0.0;0.0;0.0
2330;0.0;0.0;0.0;0.0634399950504303;-0.05075199902057648;1.1555839776992798;0.0;0.0;0.0
2332;-0.09003599733114243;0.08393599838018417;1.0003999471664429;0.004879999905824661;-0.058559998869895935;1.1360639333724976;6.514374732971191;-5.149374961853027;-22.27750015258789
2334;0.0;0.0;0.0;0.024399999529123306;-0.054655998945236206;1.107759952545166;0.0;0.0;0.0
2336;0.0;0.0;0.0;0.024399999529123306;-0.03513599932193756;1.132159948348999;0.0;0.0;0.0
2338;0.0;0.0;0.0;0.05172799900174141;-0.058559998869895935;1.107759952545166;0.0;0.0;0.0
2340;-0.08125200122594833;0.0861319974064827;0.9974719882011414;0.028303999453783035;-0.054655998945236206;1.1360639333724976;6.654375076293945;-5.359375;-21.157499313354492
2342;0.0;0.0;0.0;0.04782399907708168;-0.03903999924659729;1.1233760118484497;0.0;0.0;0.0
2344;0.0;0.0;0.0;0.05172799900174141;-0.054655998945236206;1.1438720226287842;0.0;0.0;0.0
2347;0.0;0.0;0.0;0.028303999453783035;-0.04684799909591675;1.139967918395996;0.0;0.0;0.0
2349;-0.08100800216197968;0.09686800092458725;1.0021079778671265;0.028303999453783035;-0.023423999547958374;1.1360639333724976;5.884374618530273;-3.2593750953674316;-20.387500762939453
2351;0.0;0.0;0.0;0.04782399907708168;-0.015615999698638916;1.1438720226287842;0.0;0.0;0.0
2353;0.0;0.0;0.0;0.04391999915242195;-0.031231999397277832;1.1438720226287842;0.0;0.0;0.0
2355;0.0;0.0;0.0;0.024399999529123306;-0.03903999924659729;1.1360639333724976;0.0;0.0;0.0
2357;-0.09174399822950363;0.10931199789047241;1.010159969329834;0.028303999453783035;-0.011711999773979187;1.1438720226287842;4.344374656677246;-1.6493749618530273;-19.827499389648438
2360;0.0;0.0;0.0;0.032207999378442764;-0.03903999924659729;1.156559944152832;0.0;0.0;0.0
2361;0.0;0.0;0.0;0.004879999905824661;-0.031231999397277832;1.1360639333724976;0.0;0.0;0.0
2364;0.0;0.0;0.0;0.020495999604463577;-0.03903999924659729;1.1360639333724976;0.0;0.0;0.0
2366;-0.09027999639511108;0.10613999515771866;1.0069879293441772;0.032207999378442764;-0.027327999472618103;1.1194720268249512;2.804375171661377;-1.7193750143051147;-19.407499313354492
2368;0.0;0.0;0.0;0.01268799975514412;-0.05075199902057648;1.1360639333724976;0.0;0.0;0.0
