Timestamp(ms);LG-Accel x(g);LG-Accel y(g);LG-Accel z(g);HG-Accel x(g);HG-Accel y(g);HG-Accel z(g);Gyro x(dps);Gyro y(dps);Gyro z(dps)
69;0.0;0.0;0.0;0.11321599781513214;-0.049775999039411545;1.099951982498169;0.0;0.0;0.0
71;0.0;0.0;0.0;0.08979199826717377;-0.06148799881339073;1.1282559633255005;0.0;0.0;0.0
73;0.0;0.0;0.0;0.12004800140857697;-0.06539200246334076;1.1165440082550049;0.0;0.0;0.0
75;0.0;0.0;0.0;0.11224000155925751;-0.053679998964071274;1.1165440082550049;0.0;0.0;0.0
77;0.0;0.0;0.0;0.10931199789047241;-0.06929600238800049;1.107759952545166;0.0;0.0;0.0
79;0.0;0.0;0.0;0.14347200095653534;-0.04782399907708168;1.126304030418396;0.0;0.0;0.0
81;0.0;0.0;0.0;0.10052800178527832;-0.0634399950504303;1.10971200466156;0.0;0.0;0.0
84;0.0;0.0;0.0;0.11224000155925751;-0.04782399907708168;1.134112000465393;0.0;0.0;0.0
86;-0.009027999825775623;0.09223199635744095;0.9855159521102905;0.0936959981918335;-0.04001599922776222;1.126304030418396;0.0;0.0;0.0
88;0.0;0.0;0.0;0.1239520013332367;-0.00878399983048439;1.122399926185608;0.0;0.0;0.0
90;0.0;0.0;0.0;0.0936959981918335;-0.032207999378442764;1.1058080196380615;0.0;0.0;0.0
92;0.0;0.0;0.0;0.11614400148391724;-0.032207999378442764;1.1058080196380615;0.0;0.0;0.0
94;-0.011223999783396721;0.1000399962067604;0.9835639595985413;0.10052800178527832;-0.04391999915242195;1.1136159896850586;0.0;0.0;0.0
96;0.0;0.0;0.0;0.10833600163459778;-0.01268799975514412;1.126304030418396;0.0;0.0;0.0
98;0.0;0.0;0.0;0.1239520013332367;-0.032207999378442764;1.1058080196380615;0.0;0.0;0.0
101;0.0;0.0;0.0;0.11614400148391724;-0.028303999453783035;1.0931199789047241;0.0;0.0;0.0
103;-0.009271999821066856;0.10199199616909027;0.977463960647583;0.10540799796581268;-0.028303999453783035;1.101904034614563;0.0;0.0;0.0
105;0.0;0.0;0.0;0.09272000193595886;-0.028303999453783035;1.1175199747085571;0.0;0.0;0.0
107;0.0;0.0;0.0;0.0936959981918335;-0.00878399983048439;1.1380159854888916;0.0;0.0;0.0
109;0.0;0.0;0.0;0.10052800178527832;-0.03611199930310249;1.146799921989441;0.0;0.0;0.0
111;-0.013419999741017818;0.11004399508237839;0.9886879920959473;0.11224000155925751;-0.020495999604463577;1.122399926185608;0.0;0.0;0.0
113;0.0;0.0;0.0;0.06929600238800049;-0.024399999529123306;1.1175199747085571;0.0;0.0;0.0
115;0.0;0.0;0.0;0.09272000193595886;-0.020495999604463577;1.134112000465393;0.0;0.0;0.0
118;0.0;0.0;0.0;0.07710400223731995;-0.01659199967980385;1.1058080196380615;0.0;0.0;0.0
120;-0.044652000069618225;0.10662800073623657;1.0025960206985474;0.06539200246334076;-0.03611199930310249;1.1428959369659424;0.0;0.0;0.0
122;0.0;0.0;0.0;0.06148799881339073;-0.024399999529123306;1.134112000465393;0.0;0.0;0.0
124;0.0;0.0;0.0;0.06148799881339073;-0.01659199967980385;1.1380159854888916;0.0;0.0;0.0
126;0.0;0.0;0.0;0.06148799881339073;-0.01659199967980385;1.1419199705123901;0.0;0.0;0.0
128;-0.0558759979903698;0.10858000069856644;1.0082080364227295;0.06539200246334076;-0.028303999453783035;1.1302080154418945;5.573750019073486;4.458125114440918;1.6756250858306885
130;0.0;0.0;0.0;0.09272000193595886;-0.01659199967980385;1.1184959411621094;0.0;0.0;0.0
132;0.0;0.0;0.0;0.053679998964071274;-0.020495999604463577;1.122399926185608;0.0;0.0;0.0
135;0.0;0.0;0.0;0.09662400186061859;-0.01659199967980385;1.1419199705123901;0.0;0.0;0.0
137;-0.04367600008845329;0.11443600058555603;1.0043039321899414;0.06929600238800049;-0.020495999604463577;1.1380159854888916;5.643750190734863;3.828125;1.2556250095367432
139;0.0;0.0;0.0;0.07710400223731995;-0.01659199967980385;1.1175199747085571;0.0;0.0;0.0
141;0.0;0.0;0.0;0.07320000231266022;-0.004879999905824661;1.1702239513397217;0.0;0.0;0.0
143;0.0;0.0;0.0;0.06148799881339073;-0.00878399983048439;1.134112000465393;0.0;0.0;0.0
145;-0.04660400003194809;0.12029200047254562;1.013819932937622;0.08881600201129913;-0.024399999529123306;1.1458239555358887;5.153749942779541;3.1281251907348633;0.6256250143051147
147;0.0;0.0;0.0;0.10345599800348282;-0.0009759999811649323;1.1419199705123901;0.0;0.0;0.0
149;0.0;0.0;0.0;0.13468798995018005;-0.0009759999811649323;1.1419199705123901;0.0;0.0;0.0
152;0.0;0.0;0.0;0.09564799815416336;-0.020495999604463577;1.1302080154418945;0.0;0.0;0.0
154;-0.019519999623298645;0.12004800140857697;1.0106480121612549;0.13468798995018005;-0.01268799975514412;1.122399926185608;3.0537500381469727;3.5481250286102295;-0.21437500417232513
156;0.0;0.0;0.0;0.12297599762678146;-0.024399999529123306;1.1175199747085571;0.0;0.0;0.0
158;0.0;0.0;0.0;0.1542080044746399;-0.028303999453783035;1.122399926185608;0.0;0.0;0.0
160;0.0;0.0;0.0;0.15030398964881897;-0.020495999604463577;1.1302080154418945;0.0;0.0;0.0
162;0.01268799975514412;0.11711999773979187;1.0047919750213623;0.13859200477600098;-0.03611199930310249;1.126304030418396;1.5837500095367432;5.228125095367432;0.06562499701976776
164;0.0;0.0;0.0;0.14347200095653534;-0.01659199967980385;1.158511996269226;0.0;0.0;0.0
166;0.0;0.0;0.0;0.15518400073051453;-0.032207999378442764;1.126304030418396;0.0;0.0;0.0
169;0.0;0.0;0.0;0.12004800140857697;-0.0009759999811649323;1.150704026222229;0.0;0.0;0.0
171;0.02122800052165985;0.1193159967660904;1.0125999450683594;0.13566400110721588;-0.024399999529123306;1.1380159854888916;0.39375001192092896;7.888124942779541;0.8356250524520874
173;0.0;0.0;0.0;0.1239520013332367;-0.0009759999811649323;1.1546080112457275;0.0;0.0;0.0
175;0.0;0.0;0.0;0.1210239976644516;-0.028303999453783035;1.1624159812927246;0.0;0.0;0.0
177;0.0;0.0;0.0;0.1512800008058548;-0.020495999604463577;1.1419199705123901;0.0;0.0;0.0
179;0.009759999811649323;0.11370399594306946;1.0238239765167236;0.14737600088119507;-0.00878399983048439;1.158511996269226;-1.6362500190734863;10.618124961853027;0.13562500476837158
181;0.0;0.0;0.0;0.13859200477600098;-0.03611199930310249;1.1458239555358887;0.0;0.0;0.0
183;0.0;0.0;0.0;0.11126399785280228;-0.028303999453783035;1.150704026222229;0.0;0.0;0.0
186;0.0;0.0;0.0;0.15811198949813843;-0.04391999915242195;1.1546080112457275;0.0;0.0;0.0
188;-0.005123999901115894;0.09735599905252457;1.0238239765167236;0.10345599800348282;-0.04782399907708168;1.1380159854888916;-2.966249942779541;12.648124694824219;-0.9143750071525574
190;0.0;0.0;0.0;0.115167997777462;-0.032207999378442764;1.1663199663162231;0.0;0.0;0.0
192;0.0;0.0;0.0;0.10052800178527832;-0.04782399907708168;1.1624159812927246;0.0;0.0;0.0
194;0.0;0.0;0.0;0.10443200170993805;-0.06734399497509003;1.1663199663162231;0.0;0.0;0.0
196;-0.019519999623298645;0.08661999553442001;1.0294359922409058;0.11907199770212173;-0.05953599885106087;1.175104022026062;-2.40625;12.578125;-1.334375023841858
198;0.0;0.0;0.0;0.09564799815416336;-0.04001599922776222;1.175104022026062;0.0;0.0;0.0
200;0.0;0.0;0.0;0.09564799815416336;-0.028303999453783035;1.2112159729003906;0.0;0.0;0.0
203;0.0;0.0;0.0;0.06929600238800049;-0.00878399983048439;1.2151199579238892;0.0;0.0;0.0
205;-0.029523998498916626;0.1076039969921112;1.0738439559936523;0.06539200246334076;-0.024399999529123306;1.2151199579238892;-2.336249828338623;10.548124313354492;-1.1243749856948853
207;0.0;0.0;0.0;0.057583998888731;-0.028303999453783035;1.199504017829895;0.0;0.0;0.0
209;0.0;0.0;0.0;0.0302559994161129;-0.024399999529123306;1.182911992073059;0.0;0.0;0.0
211;0.0;0.0;0.0;0.02635199949145317;-0.03611199930310249;1.182911992073059;0.0;0.0;0.0
213;-0.08759599924087524;0.10906799882650375;1.0723799467086792;0.02635199949145317;-0.032207999378442764;1.1712000370025635;-4.926249980926514;3.898125171661377;-1.334375023841858
215;0.0;0.0;0.0;0.018543999642133713;-0.0634399950504303;1.175104022026062;0.0;0.0;0.0
217;0.0;0.0;0.0;0.018543999642133713;-0.03611199930310249;1.146799921989441;0.0;0.0;0.0
220;0.0;0.0;0.0;0.0302559994161129;-0.04001599922776222;1.10971200466156;0.0;0.0;0.0
222;-0.08832799643278122;0.09467199444770813;1.0125999450683594;0.045871999114751816;-0.05172799900174141;1.0892159938812256;-5.766250133514404;-5.761875152587891;-2.874375104904175
224;0.0;0.0;0.0;0.09272000193595886;-0.03611199930310249;1.0775039196014404;0.0;0.0;0.0
226;0.0;0.0;0.0;0.10345599800348282;-0.04391999915242195;1.0814080238342285;0.0;0.0;0.0
228;0.0;0.0;0.0;0.11907199770212173;-0.04001599922776222;1.0570080280303955;0.0;0.0;0.0
230;-0.028303999453783035;0.09174399822950363;0.9440360069274902;0.10833600163459778;-0.04782399907708168;1.019919991493225;-2.966249942779541;-12.41187572479248;-3.294374942779541
232;0.0;0.0;0.0;0.13566400110721588;-0.05172799900174141;1.0531039237976074;0.0;0.0;0.0
234;0.0;0.0;0.0;0.1903200000524521;-0.04001599922776222;1.0082080364227295;0.0;0.0;0.0
237;0.0;0.0;0.0;0.18251200020313263;-0.0009759999811649323;1.0082080364227295;0.0;0.0;0.0
239;0.04025999829173088;0.11224000155925751;0.9008479714393616;0.205935999751091;-0.00878399983048439;1.0160160064697266;1.6537500619888306;-11.151875495910645;-3.5043749809265137
241;0.0;0.0;0.0;0.18251200020313263;-0.00878399983048439;1.0082080364227295;0.0;0.0;0.0
243;0.0;0.0;0.0;0.19812799990177155;0.022447999566793442;1.012112021446228;0.0;0.0;0.0
245;0.0;0.0;0.0;0.18251200020313263;0.02635199949145317;1.0287039279937744;0.0;0.0;0.0
247;0.0727119967341423;0.13883599638938904;0.8986519575119019;0.19422399997711182;0.022447999566793442;1.0287039279937744;5.503750324249268;-2.2618749141693115;-3.0843749046325684
249;0.0;0.0;0.0;0.22155199944972992;-0.0009759999811649323;1.0491999387741089;0.0;0.0;0.0
251;0.0;0.0;0.0;0.20983999967575073;0.022447999566793442;1.0482239723205566;0.0;0.0;0.0
254;0.0;0.0;0.0;0.17470400035381317;0.010735999792814255;1.060912013053894;0.0;0.0;0.0
256;0.06392800062894821;0.16128399968147278;0.9291520118713379;0.16299200057983398;0.0302559994161129;1.0687199831008911;7.393750190734863;7.328125;-1.9643750190734863
258;0.0;0.0;0.0;0.15518400073051453;0.022447999566793442;1.0892159938812256;0.0;0.0;0.0
260;0.0;0.0;0.0;0.13176000118255615;0.010735999792814255;1.0726239681243896;0.0;0.0;0.0
262;0.0;0.0;0.0;0.13566400110721588;0.0302559994161129;1.0687199831008911;0.0;0.0;0.0
264;0.025863999500870705;0.16079600155353546;0.9413520097732544;0.14737600088119507;0.0029279999434947968;1.0648159980773926;7.953750133514404;12.508124351501465;-0.4243750274181366
266;0.0;0.0;0.0;0.11614400148391724;0.045871999114751816;1.0687199831008911;0.0;0.0;0.0
269;0.0;0.0;0.0;0.10443200170993805;-0.0009759999811649323;1.0687199831008911;0.0;0.0;0.0
271;0.0;0.0;0.0;0.11224000155925751;0.022447999566793442;1.0775039196014404;0.0;0.0;0.0
273;-0.013419999741017818;0.14932799339294434;0.9318360090255737;0.08881600201129913;0.0302559994161129;1.0570080280303955;9.703750610351562;13.978124618530273;0.13562500476837158
275;0.0;0.0;0.0;0.11126399785280228;0.03415999934077263;1.0404160022735596;0.0;0.0;0.0
277;0.0;0.0;0.0;0.09955199807882309;0.014639999717473984;1.044319987297058;0.0;0.0;0.0
279;0.0;0.0;0.0;0.09272000193595886;0.03415999934077263;1.0531039237976074;0.0;0.0;0.0
281;-0.027084000408649445;0.15396399796009064;0.9293959736824036;0.11126399785280228;0.053679998964071274;1.073599934577942;12.923749923706055;12.788125038146973;0.2056250125169754
284;0.0;0.0;0.0;0.10052800178527832;0.03806399926543236;1.0482239723205566;0.0;0.0;0.0
286;0.0;0.0;0.0;0.115167997777462;0.053679998964071274;1.0892159938812256;0.0;0.0;0.0
288;0.0;0.0;0.0;0.12297599762678146;0.06539200246334076;1.060912013053894;0.0;0.0;0.0
290;-0.008295999839901924;0.1815359890460968;0.9496479630470276;0.14640000462532043;0.06148799881339073;1.0814080238342285;15.793749809265137;11.108124732971191;0.4856249988079071
292;0.0;0.0;0.0;0.10345599800348282;0.07710400223731995;1.097999930381775;0.0;0.0;0.0
294;0.0;0.0;0.0;0.12297599762678146;0.08100800216197968;1.101904034614563;0.0;0.0;0.0
296;0.0;0.0;0.0;0.10735999792814255;0.07710400223731995;1.1136159896850586;0.0;0.0;0.0
298;-0.0012199999764561653;0.2105719894170761;0.9779520034790039;0.10833600163459778;0.09272000193595886;1.134112000465393;16.283748626708984;11.668124198913574;1.0456249713897705
301;0.0;0.0;0.0;0.10833600163459778;0.08881600201129913;1.1380159854888916;0.0;0.0;0.0
303;0.0;0.0;0.0;0.10345599800348282;0.10833600163459778;1.1419199705123901;0.0;0.0;0.0
305;0.0;0.0;0.0;0.0849120020866394;0.09662400186061859;1.134112000465393;0.0;0.0;0.0
307;-0.024399999529123306;0.22935999929904938;1.0106480121612549;0.08881600201129913;0.11224000155925751;1.1712000370025635;14.883749961853027;12.08812427520752;2.8656251430511475
309;0.0;0.0;0.0;0.07710400223731995;0.10052800178527832;1.1712000370025635;0.0;0.0;0.0
311;0.0;0.0;0.0;0.06148799881339073;0.11224000155925751;1.1663199663162231;0.0;0.0;0.0
313;0.0;0.0;0.0;0.06539200246334076;0.10052800178527832;1.1702239513397217;0.0;0.0;0.0
315;-0.05392399802803993;0.24351198971271515;1.0301679372787476;0.045871999114751816;0.1239520013332367;1.146799921989441;12.013750076293945;9.358124732971191;4.54562520980835
317;0.0;0.0;0.0;0.058559998869895935;0.12004800140857697;1.1790080070495605;0.0;0.0;0.0
320;0.0;0.0;0.0;0.019519999623298645;0.13566400110721588;1.1624159812927246;0.0;0.0;0.0
322;0.0;0.0;0.0;0.04294399917125702;0.11614400148391724;1.1712000370025635;0.0;0.0;0.0
324;-0.06783200055360794;0.25034400820732117;1.0394400358200073;0.07027199864387512;0.12004800140857697;1.1663199663162231;8.023750305175781;4.668125152587891;5.525625228881836
326;0.0;0.0;0.0;0.058559998869895935;0.09662400186061859;1.1458239555358887;0.0;0.0;0.0
328;0.0;0.0;0.0;0.03513599932193756;0.10052800178527832;1.1546080112457275;0.0;0.0;0.0
330;0.0;0.0;0.0;0.03513599932193756;0.10833600163459778;1.146799921989441;0.0;0.0;0.0
332;-0.07490799576044083;0.2437559962272644;1.0277279615402222;0.03513599932193756;0.10052800178527832;1.146799921989441;3.6137502193450928;0.46812501549720764;6.645625114440918
335;0.0;0.0;0.0;0.03415999934077263;0.10443200170993805;1.150704026222229;0.0;0.0;0.0
337;0.0;0.0;0.0;0.057583998888731;0.11614400148391724;1.1175199747085571;0.0;0.0;0.0
339;0.0;0.0;0.0;0.053679998964071274;0.10443200170993805;1.126304030418396;0.0;0.0;0.0
341;-0.062219999730587006;0.23301999270915985;1.0072319507598877;0.057583998888731;0.08100800216197968;1.1302080154418945;0.8837500214576721;-1.8418750762939453;7.975625038146973
343;0.0;0.0;0.0;0.07710400223731995;0.11224000155925751;1.1302080154418945;0.0;0.0;0.0
345;0.0;0.0;0.0;0.07320000231266022;0.06929600238800049;1.1058080196380615;0.0;0.0;0.0
347;0.0;0.0;0.0;0.0849120020866394;0.09662400186061859;1.101904034614563;0.0;0.0;0.0
349;-0.042211998254060745;0.22179599106311798;0.994055986404419;0.0849120020866394;0.09662400186061859;1.1302080154418945;-0.09624999761581421;-2.1218748092651367;9.02562427520752
352;0.0;0.0;0.0;0.10735999792814255;0.08881600201129913;1.150704026222229;0.0;0.0;0.0
354;0.0;0.0;0.0;0.08003199845552444;0.1239520013332367;1.1175199747085571;0.0;0.0;0.0
356;0.0;0.0;0.0;0.08100800216197968;0.06539200246334076;1.10971200466156;0.0;0.0;0.0
358;-0.03537999838590622;0.21398799121379852;0.9921039938926697;0.0849120020866394;0.06929600238800049;1.1058080196380615;-0.16625000536441803;-0.09187500178813934;9.725625038146973
360;0.0;0.0;0.0;0.06148799881339073;0.053679998964071274;1.10971200466156;0.0;0.0;0.0
362;0.0;0.0;0.0;0.06929600238800049;0.09272000193595886;1.126304030418396;0.0;0.0;0.0
364;0.0;0.0;0.0;0.03415999934077263;0.10052800178527832;1.1136159896850586;0.0;0.0;0.0
366;-0.05807200074195862;0.20935200154781342;0.9933239817619324;0.06148799881339073;0.06929600238800049;1.122399926185608;0.11374999582767487;1.3781249523162842;10.565624237060547
369;0.0;0.0;0.0;0.049775999039411545;0.06539200246334076;1.1058080196380615;0.0;0.0;0.0
371;0.0;0.0;0.0;0.0302559994161129;0.06929600238800049;1.097999930381775;0.0;0.0;0.0
373;0.0;0.0;0.0;0.03415999934077263;0.0849120020866394;1.0814080238342285;0.0;0.0;0.0
375;-0.08710800111293793;0.1995919942855835;0.9772199988365173;0.010735999792814255;0.045871999114751816;1.0687199831008911;1.3737499713897705;-0.6518750190734863;11.265625
377;0.0;0.0;0.0;0.049775999039411545;0.053679998964071274;1.0726239681243896;0.0;0.0;0.0
379;0.0;0.0;0.0;0.045871999114751816;0.07320000231266022;1.0687199831008911;0.0;0.0;0.0
381;0.0;0.0;0.0;0.06148799881339073;0.06148799881339073;1.0648159980773926;0.0;0.0;0.0
383;-0.08076399564743042;0.19349199533462524;0.9528200030326843;0.04196799919009209;0.06148799881339073;1.060912013053894;4.313750267028809;-3.3118748664855957;12.17562484741211
386;0.0;0.0;0.0;0.03806399926543236;0.06148799881339073;1.0775039196014404;0.0;0.0;0.0
388;0.0;0.0;0.0;0.04196799919009209;0.06539200246334076;1.0648159980773926;0.0;0.0;0.0
390;0.0;0.0;0.0;0.06539200246334076;0.09662400186061859;1.0570080280303955;0.0;0.0;0.0
392;-0.06783200055360794;0.20178799331188202;0.9479399919509888;0.02635199949145317;0.06539200246334076;1.0814080238342285;7.673749923706055;-3.661875009536743;13.785624504089355
394;0.0;0.0;0.0;0.045871999114751816;0.06148799881339073;1.0892159938812256;0.0;0.0;0.0
396;0.0;0.0;0.0;0.06148799881339073;0.057583998888731;1.101904034614563;0.0;0.0;0.0
398;0.0;0.0;0.0;0.049775999039411545;0.057583998888731;1.0931199789047241;0.0;0.0;0.0
400;-0.07124799489974976;0.21227999031543732;0.9594079852104187;0.06539200246334076;0.0849120020866394;1.0814080238342285;9.353750228881836;-2.681874990463257;15.815624237060547
403;0.0;0.0;0.0;0.06929600238800049;0.08881600201129913;1.101904034614563;0.0;0.0;0.0
405;0.0;0.0;0.0;0.06929600238800049;0.06148799881339073;1.0931199789047241;0.0;0.0;0.0
407;0.0;0.0;0.0;0.049775999039411545;0.06539200246334076;1.1058080196380615;0.0;0.0;0.0
409;-0.06295199692249298;0.21716000139713287;0.9772199988365173;0.057583998888731;0.07710400223731995;1.126304030418396;8.443750381469727;-2.3318748474121094;17.845624923706055
411;0.0;0.0;0.0;0.08100800216197968;0.08100800216197968;1.1136159896850586;0.0;0.0;0.0
413;0.0;0.0;0.0;0.08881600201129913;0.07710400223731995;1.10971200466156;0.0;0.0;0.0
415;0.0;0.0;0.0;0.07320000231266022;0.07710400223731995;1.1175199747085571;0.0;0.0;0.0
417;-0.048555999994277954;0.20910799503326416;0.9925919771194458;0.08100800216197968;0.06148799881339073;1.1302080154418945;5.503750324249268;-1.9118750095367432;19.735624313354492
420;0.0;0.0;0.0;0.06929600238800049;0.07320000231266022;1.1302080154418945;0.0;0.0;0.0
422;0.0;0.0;0.0;0.053679998964071274;0.03806399926543236;1.1380159854888916;0.0;0.0;0.0
424;0.0;0.0;0.0;0.06929600238800049;-0.004879999905824661;1.10971200466156;0.0;0.0;0.0
426;-0.052216000854969025;0.1751919984817505;0.9928359985351562;0.08100800216197968;0.0302559994161129;1.101904034614563;1.933750033378601;-1.9118750095367432;20.785625457763672
428;0.0;0.0;0.0;0.06539200246334076;0.010735999792814255;1.10971200466156;0.0;0.0;0.0
430;0.0;0.0;0.0;0.045871999114751816;-0.020495999604463577;1.1136159896850586;0.0;0.0;0.0
432;0.0;0.0;0.0;0.06929600238800049;-0.032207999378442764;1.097999930381775;0.0;0.0;0.0
434;-0.05831599980592728;0.12639199197292328;0.9750239849090576;0.04196799919009209;-0.028303999453783035;1.0892159938812256;-0.65625;-1.70187509059906;20.85562515258789
437;0.0;0.0;0.0;0.07320000231266022;-0.04001599922776222;1.0892159938812256;0.0;0.0;0.0
439;0.0;0.0;0.0;0.06929600238800049;-0.020495999604463577;1.101904034614563;0.0;0.0;0.0
441;0.0;0.0;0.0;0.09272000193595886;-0.05563199892640114;1.10971200466156;0.0;0.0;0.0
443;-0.05953599885106087;0.09589199721813202;0.9691680073738098;0.049775999039411545;-0.04391999915242195;1.0931199789047241;-1.7062500715255737;-0.5818750262260437;19.595624923706055
445;0.0;0.0;0.0;0.07320000231266022;-0.04001599922776222;1.101904034614563;0.0;0.0;0.0
447;0.0;0.0;0.0;0.0849120020866394;-0.05953599885106087;1.1058080196380615;0.0;0.0;0.0
449;0.0;0.0;0.0;0.10443200170993805;-0.028303999453783035;1.0892159938812256;0.0;0.0;0.0
451;-0.049775999039411545;0.08759599924087524;0.9718520045280457;0.049775999039411545;-0.07905599474906921;1.1058080196380615;-1.9862500429153442;0.8181250095367432;17.495624542236328
454;0.0;0.0;0.0;0.09662400186061859;-0.028303999453783035;1.0931199789047241;0.0;0.0;0.0
456;0.0;0.0;0.0;0.08881600201129913;-0.04782399907708168;1.101904034614563;0.0;0.0;0.0
458;0.0;0.0;0.0;0.08881600201129913;-0.020495999604463577;1.10971200466156;0.0;0.0;0.0
460;-0.03952799737453461;0.1000399962067604;0.9750239849090576;0.08100800216197968;-0.00878399983048439;1.1058080196380615;-1.7762500047683716;1.8681249618530273;15.325624465942383
462;0.0;0.0;0.0;0.08100800216197968;-0.032207999378442764;1.1175199747085571;0.0;0.0;0.0
464;0.0;0.0;0.0;0.10052800178527832;-0.01268799975514412;1.1175199747085571;0.0;0.0;0.0
466;0.0;0.0;0.0;0.08881600201129913;-0.024399999529123306;1.0931199789047241;0.0;0.0;0.0
468;-0.03001200035214424;0.11955999583005905;0.9806360006332397;0.10052800178527832;-0.028303999453783035;1.0775039196014404;-1.006250023841858;2.778125047683716;14.2056245803833
471;0.0;0.0;0.0;0.0849120020866394;-0.01268799975514412;1.122399926185608;0.0;0.0;0.0
473;0.0;0.0;0.0;0.115167997777462;-0.01268799975514412;1.1136159896850586;0.0;0.0;0.0
475;0.0;0.0;0.0;0.0849120020866394;-0.004879999905824661;1.101904034614563;0.0;0.0;0.0
477;-0.03245199844241142;0.1327359974384308;0.9891759753227234;0.07320000231266022;-0.004879999905824661;1.134112000465393;0.1837500035762787;3.198125123977661;13.855624198913574
479;0.0;0.0;0.0;0.09272000193595886;0.010735999792814255;1.1136159896850586;0.0;0.0;0.0
481;0.0;0.0;0.0;0.07710400223731995;-0.004879999905824661;1.1136159896850586;0.0;0.0;0.0
483;0.0;0.0;0.0;0.045871999114751816;-0.0009759999811649323;1.1136159896850586;0.0;0.0;0.0
485;-0.04440800100564957;0.14005599915981293;0.9957639575004578;0.0849120020866394;-0.0009759999811649323;1.126304030418396;1.3737499713897705;2.008125066757202;13.995624542236328
488;0.0;0.0;0.0;0.07320000231266022;0.014639999717473984;1.1175199747085571;0.0;0.0;0.0
490;0.0;0.0;0.0;0.049775999039411545;0.010735999792814255;1.1302080154418945;0.0;0.0;0.0
492;0.0;0.0;0.0;0.06539200246334076;0.0302559994161129;1.101904034614563;0.0;0.0;0.0
494;-0.060999996960163116;0.14347200095653534;0.9943000078201294;0.03415999934077263;-0.00878399983048439;1.1136159896850586;1.7937500476837158;-0.9318750500679016;14.415624618530273
496;0.0;0.0;0.0;0.08881600201129913;-0.00878399983048439;1.126304030418396;0.0;0.0;0.0
498;0.0;0.0;0.0;0.03806399926543236;-0.0009759999811649323;1.122399926185608;0.0;0.0;0.0
500;0.0;0.0;0.0;0.06539200246334076;-0.00878399983048439;1.1136159896850586;0.0;0.0;0.0
502;-0.058803997933864594;0.14054399728775024;0.9860039949417114;0.08100800216197968;-0.004879999905824661;1.101904034614563;1.1637500524520874;-4.781875133514404;14.975625038146973
505;0.0;0.0;0.0;0.07320000231266022;0.022447999566793442;1.0687199831008911;0.0;0.0;0.0
507;0.0;0.0;0.0;0.08881600201129913;0.0029279999434947968;1.0892159938812256;0.0;0.0;0.0
509;0.0;0.0;0.0;0.09272000193595886;-0.004879999905824661;1.101904034614563;0.0;0.0;0.0
511;-0.049775999039411545;0.13298000395298004;0.9620919823646545;0.07320000231266022;-0.00878399983048439;1.073599934577942;-0.09624999761581421;-7.021874904632568;14.625624656677246
513;0.0;0.0;0.0;0.09662400186061859;-0.004879999905824661;1.0491999387741089;0.0;0.0;0.0
515;0.0;0.0;0.0;0.08100800216197968;-0.01659199967980385;1.0648159980773926;0.0;0.0;0.0
517;0.0;0.0;0.0;0.07710400223731995;0.0302559994161129;1.0648159980773926;0.0;0.0;0.0
519;-0.03367199748754501;0.13395600020885468;0.9406200051307678;0.12297599762678146;0.010735999792814255;1.0726239681243896;-1.4262499809265137;-6.251874923706055;13.36562442779541
522;0.0;0.0;0.0;0.08881600201129913;0.010735999792814255;1.0531039237976074;0.0;0.0;0.0
524;0.0;0.0;0.0;0.09662400186061859;-0.020495999604463577;1.0491999387741089;0.0;0.0;0.0
526;0.0;0.0;0.0;0.13468798995018005;-0.032207999378442764;1.0726239681243896;0.0;0.0;0.0
528;-0.008051999844610691;0.13224799931049347;0.9306159615516663;0.13468798995018005;-0.0009759999811649323;1.044319987297058;-2.1262497901916504;-4.711874961853027;12.805624961853027
530;0.0;0.0;0.0;0.11907199770212173;-0.00878399983048439;1.0570080280303955;0.0;0.0;0.0
532;0.0;0.0;0.0;0.115167997777462;0.006831999868154526;1.0482239723205566;0.0;0.0;0.0
534;0.0;0.0;0.0;0.13078400492668152;-0.0009759999811649323;1.060912013053894;0.0;0.0;0.0
536;0.013175999745726585;0.11955999583005905;0.9228079915046692;0.13859200477600098;-0.024399999529123306;1.0404160022735596;-1.6362500190734863;-2.61187481880188;13.225625038146973
539;0.0;0.0;0.0;0.11907199770212173;-0.03611199930310249;1.036512017250061;0.0;0.0;0.0
541;0.0;0.0;0.0;0.1424959897994995;-0.024399999529123306;1.0531039237976074;0.0;0.0;0.0
543;0.0;0.0;0.0;0.11126399785280228;-0.04391999915242195;1.0570080280303955;0.0;0.0;0.0
545;0.013663999736309052;0.09467199444770813;0.9252479672431946;0.11614400148391724;-0.04391999915242195;1.044319987297058;0.1837500035762787;0.048124998807907104;13.92562484741211
547;0.0;0.0;0.0;0.13078400492668152;-0.05172799900174141;1.044319987297058;0.0;0.0;0.0
549;0.0;0.0;0.0;0.1268799901008606;-0.028303999453783035;1.0687199831008911;0.0;0.0;0.0
551;0.0;0.0;0.0;0.08881600201129913;-0.03611199930310249;1.101904034614563;0.0;0.0;0.0
553;0.0014639999717473984;0.08442399650812149;0.941107988357544;0.11614400148391724;-0.05563199892640114;1.0687199831008911;2.423750162124634;2.2881250381469727;14.975625038146973
556;0.0;0.0;0.0;0.11614400148391724;-0.032207999378442764;1.1136159896850586;0.0;0.0;0.0
558;0.0;0.0;0.0;0.10345599800348282;-0.05172799900174141;1.10971200466156;0.0;0.0;0.0
560;0.0;0.0;0.0;0.06148799881339073;-0.020495999604463577;1.1136159896850586;0.0;0.0;0.0
562;-0.028060000389814377;0.09345199912786484;0.9786840081214905;0.06929600238800049;-0.024399999529123306;1.122399926185608;3.473750114440918;3.6881251335144043;14.835624694824219
564;0.0;0.0;0.0;0.07320000231266022;-0.04391999915242195;1.1380159854888916;0.0;0.0;0.0
566;0.0;0.0;0.0;0.04196799919009209;-0.032207999378442764;1.1546080112457275;0.0;0.0;0.0
568;0.0;0.0;0.0;0.049775999039411545;0.010735999792814255;1.1380159854888916;0.0;0.0;0.0
570;-0.05831599980592728;0.10906799882650375;1.0133320093154907;0.06148799881339073;-0.032207999378442764;1.1624159812927246;2.423750162124634;3.6181252002716064;13.295624732971191
573;0.0;0.0;0.0;0.07320000231266022;-0.01268799975514412;1.1790080070495605;0.0;0.0;0.0
575;0.0;0.0;0.0;0.06148799881339073;-0.01268799975514412;1.158511996269226;0.0;0.0;0.0
577;0.0;0.0;0.0;0.06539200246334076;0.0029279999434947968;1.150704026222229;0.0;0.0;0.0
579;-0.0558759979903698;0.12541599571704865;1.0260199308395386;0.0849120020866394;-0.004879999905824661;1.1624159812927246;1.0237499475479126;1.0981249809265137;11.61562442779541
581;0.0;0.0;0.0;0.07320000231266022;-0.004879999905824661;1.1546080112457275;0.0;0.0;0.0
583;0.0;0.0;0.0;0.07710400223731995;0.006831999868154526;1.1546080112457275;0.0;0.0;0.0
585;0.0;0.0;0.0;0.0849120020866394;0.014639999717473984;1.122399926185608;0.0;0.0;0.0
587;-0.04782399907708168;0.14176400005817413;1.0191879272460938;0.06929600238800049;0.0029279999434947968;1.134112000465393;-0.3062500059604645;-1.771875023841858;10.565624237060547
590;0.0;0.0;0.0;0.08100800216197968;0.018543999642133713;1.134112000465393;0.0;0.0;0.0
592;0.0;0.0;0.0;0.09272000193595886;0.010735999792814255;1.1136159896850586;0.0;0.0;0.0
594;0.0;0.0;0.0;0.06539200246334076;0.010735999792814255;1.10971200466156;0.0;0.0;0.0
596;-0.0424560010433197;0.14810799062252045;0.9930799603462219;0.07710400223731995;-0.0009759999811649323;1.10971200466156;-0.7962499856948853;-3.801874876022339;10.495624542236328
598;0.0;0.0;0.0;0.07320000231266022;0.03806399926543236;1.1136159896850586;0.0;0.0;0.0
600;0.0;0.0;0.0;0.09662400186061859;0.022447999566793442;1.097999930381775;0.0;0.0;0.0
602;0.0;0.0;0.0;0.08881600201129913;0.045871999114751816;1.097999930381775;0.0;0.0;0.0
604;-0.035868000239133835;0.15274399518966675;0.9674599766731262;0.10052800178527832;0.03806399926543236;1.0931199789047241;-0.3762499988079071;-4.011875152587891;10.845624923706055
607;0.0;0.0;0.0;0.08100800216197968;0.022447999566793442;1.085312008857727;0.0;0.0;0.0
609;0.0;0.0;0.0;0.115167997777462;0.0302559994161129;1.0814080238342285;0.0;0.0;0.0
611;0.0;0.0;0.0;0.10735999792814255;0.0029279999434947968;1.0814080238342285;0.0;0.0;0.0
613;-0.021715998649597168;0.1571359932422638;0.9557479619979858;0.11126399785280228;0.018543999642133713;1.085312008857727;0.39375001192092896;-3.4518749713897705;12.035624504089355
615;0.0;0.0;0.0;0.10052800178527832;0.02635199949145317;1.0931199789047241;0.0;0.0;0.0
617;0.0;0.0;0.0;0.09955199807882309;0.03415999934077263;1.0687199831008911;0.0;0.0;0.0
619;0.0;0.0;0.0;0.1268799901008606;0.049775999039411545;1.097999930381775;0.0;0.0;0.0
621;-0.014639999717473984;0.16787199676036835;0.961359977722168;0.115167997777462;0.049775999039411545;1.101904034614563;0.6737499833106995;-3.031874895095825;13.505624771118164
624;0.0;0.0;0.0;0.11126399785280228;0.018543999642133713;1.1175199747085571;0.0;0.0;0.0
626;0.0;0.0;0.0;0.10833600163459778;0.045871999114751816;1.097999930381775;0.0;0.0;0.0
628;0.0;0.0;0.0;0.10052800178527832;0.0302559994161129;1.073599934577942;0.0;0.0;0.0
630;-0.013175999745726585;0.16957999765872955;0.9755119681358337;0.09564799815416336;0.02635199949145317;1.1136159896850586;-0.5862500071525574;-2.7518749237060547;14.485624313354492
632;0.0;0.0;0.0;0.09955199807882309;0.022447999566793442;1.1058080196380615;0.0;0.0;0.0
634;0.0;0.0;0.0;0.10052800178527832;0.006831999868154526;1.122399926185608;0.0;0.0;0.0
636;0.0;0.0;0.0;0.08881600201129913;0.018543999642133713;1.1175199747085571;0.0;0.0;0.0
638;-0.016835998743772507;0.1546960026025772;0.9842959642410278;0.10833600163459778;0.018543999642133713;1.1136159896850586;-2.896250009536743;-2.541874885559082;15.185625076293945
641;0.0;0.0;0.0;0.10052800178527832;-0.020495999604463577;1.126304030418396;0.0;0.0;0.0
643;0.0;0.0;0.0;0.0849120020866394;-0.004879999905824661;1.101904034614563;0.0;0.0;0.0
645;0.0;0.0;0.0;0.07710400223731995;-0.032207999378442764;1.101904034614563;0.0;0.0;0.0
647;-0.0302559994161129;0.13078400492668152;0.9813680052757263;0.08100800216197968;0.0029279999434947968;1.0970239639282227;-5.066249847412109;-2.051874876022339;15.185625076293945
649;0.0;0.0;0.0;0.07320000231266022;-0.028303999453783035;1.0892159938812256;0.0;0.0;0.0
651;0.0;0.0;0.0;0.06929600238800049;-0.020495999604463577;1.085312008857727;0.0;0.0;0.0
653;0.0;0.0;0.0;0.06148799881339073;-0.020495999604463577;1.0687199831008911;0.0;0.0;0.0
655;-0.04318799823522568;0.11419199407100677;0.9620919823646545;0.057583998888731;-0.01268799975514412;1.0814080238342285;-5.766250133514404;-1.421875;14.135624885559082
658;0.0;0.0;0.0;0.09272000193595886;-0.028303999453783035;1.0814080238342285;0.0;0.0;0.0
660;0.0;0.0;0.0;0.06539200246334076;-0.0009759999811649323;1.0775039196014404;0.0;0.0;0.0
662;0.0;0.0;0.0;0.06929600238800049;-0.03611199930310249;1.044319987297058;0.0;0.0;0.0
664;-0.04147999733686447;0.11297199875116348;0.9408639669418335;0.06929600238800049;-0.004879999905824661;1.0687199831008911;-3.8762497901916504;-1.071874976158142;13.085624694824219
666;0.0;0.0;0.0;0.10735999792814255;-0.004879999905824661;1.060912013053894;0.0;0.0;0.0
668;0.0;0.0;0.0;0.09662400186061859;-0.0009759999811649323;1.0775039196014404;0.0;0.0;0.0
670;0.0;0.0;0.0;0.11907199770212173;-0.0009759999811649323;1.0648159980773926;0.0;0.0;0.0
673;-0.02391199953854084;0.11589999496936798;0.9406200051307678;0.10052800178527832;-0.01268799975514412;1.0814080238342285;-0.8662500381469727;-0.861875057220459;13.085624694824219
675;0.0;0.0;0.0;0.09955199807882309;0.0029279999434947968;1.060912013053894;0.0;0.0;0.0
677;0.0;0.0;0.0;0.08881600201129913;-0.01268799975514412;1.073599934577942;0.0;0.0;0.0
679;0.0;0.0;0.0;0.10833600163459778;-0.00878399983048439;1.0687199831008911;0.0;0.0;0.0
681;-0.010735999792814255;0.12419600039720535;0.9462319612503052;0.13078400492668152;-0.0009759999811649323;1.0648159980773926;1.5137499570846558;-0.2318750023841858;13.715624809265137
683;0.0;0.0;0.0;0.13468798995018005;-0.004879999905824661;1.0531039237976074;0.0;0.0;0.0
685;0.0;0.0;0.0;0.12297599762678146;0.0029279999434947968;1.0687199831008911;0.0;0.0;0.0
687;0.0;0.0;0.0;0.10443200170993805;-0.01268799975514412;1.0892159938812256;0.0;0.0;0.0
690;-0.0058559998869895935;0.12761199474334717;0.957211971282959;0.09955199807882309;0.014639999717473984;1.085312008857727;3.1237502098083496;1.0281249284744263;14.555624961853027
692;0.0;0.0;0.0;0.08881600201129913;0.010735999792814255;1.0931199789047241;0.0;0.0;0.0
694;0.0;0.0;0.0;0.10052800178527832;-0.00878399983048439;1.0931199789047241;0.0;0.0;0.0
696;0.0;0.0;0.0;0.09272000193595886;-0.004879999905824661;1.10971200466156;0.0;0.0;0.0
698;-0.018543999642133713;0.12712399661540985;0.9738039970397949;0.11907199770212173;-0.0009759999811649323;1.1058080196380615;3.6837501525878906;3.408125162124634;14.2056245803833
700;0.0;0.0;0.0;0.0849120020866394;-0.00878399983048439;1.1175199747085571;0.0;0.0;0.0
702;0.0;0.0;0.0;0.0849120020866394;0.0029279999434947968;1.1136159896850586;0.0;0.0;0.0
704;0.0;0.0;0.0;0.09174399822950363;-0.004879999905824661;1.1302080154418945;0.0;0.0;0.0
707;-0.0302559994161129;0.1361519992351532;0.9952759742736816;0.08881600201129913;0.0302559994161129;1.1302080154418945;3.2637500762939453;4.808125019073486;12.945624351501465
709;0.0;0.0;0.0;0.09662400186061859;0.02635199949145317;1.1302080154418945;0.0;0.0;0.0
711;0.0;0.0;0.0;0.09272000193595886;0.018543999642133713;1.1380159854888916;0.0;0.0;0.0
713;0.0;0.0;0.0;0.057583998888731;0.045871999114751816;1.126304030418396;0.0;0.0;0.0
715;-0.04001599922776222;0.14908400177955627;1.0086959600448608;0.0849120020866394;0.014639999717473984;1.1302080154418945;1.3737499713897705;4.038125038146973;12.315624237060547
717;0.0;0.0;0.0;0.06539200246334076;0.02635199949145317;1.122399926185608;0.0;0.0;0.0
719;0.0;0.0;0.0;0.07710400223731995;0.014639999717473984;1.1419199705123901;0.0;0.0;0.0
721;0.0;0.0;0.0;0.06148799881339073;0.02635199949145317;1.1136159896850586;0.0;0.0;0.0
724;-0.040991999208927155;0.14908400177955627;1.0074759721755981;0.09662400186061859;0.006831999868154526;1.1624159812927246;-1.4262499809265137;2.218125104904175;12.035624504089355
726;0.0;0.0;0.0;0.10052800178527832;0.0029279999434947968;1.1380159854888916;0.0;0.0;0.0
728;0.0;0.0;0.0;0.08100800216197968;0.018543999642133713;1.1214239597320557;0.0;0.0;0.0
730;0.0;0.0;0.0;0.08100800216197968;0.02635199949145317;1.1136159896850586;0.0;0.0;0.0
732;-0.030988000333309174;0.13859200477600098;0.9955199956893921;0.09662400186061859;-0.020495999604463577;1.1136159896850586;-3.526249885559082;1.0281249284744263;11.335624694824219
734;0.0;0.0;0.0;0.08100800216197968;-0.004879999905824661;1.0931199789047241;0.0;0.0;0.0
736;0.0;0.0;0.0;0.11907199770212173;-0.01659199967980385;1.0931199789047241;0.0;0.0;0.0
738;0.0;0.0;0.0;0.08881600201129913;-0.028303999453783035;1.10971200466156;0.0;0.0;0.0
741;-0.023667998611927032;0.11711999773979187;0.9723399877548218;0.10052800178527832;-0.01659199967980385;1.101904034614563;-3.3162498474121094;1.168125033378601;10.495624542236328
743;0.0;0.0;0.0;0.10735999792814255;-0.028303999453783035;1.0892159938812256;0.0;0.0;0.0
745;0.0;0.0;0.0;0.09662400186061859;-0.020495999604463577;1.0892159938812256;0.0;0.0;0.0
747;0.0;0.0;0.0;0.10735999792814255;-0.024399999529123306;1.073599934577942;0.0;0.0;0.0
749;-0.024887999519705772;0.10784799605607986;0.9611159563064575;0.08100800216197968;-0.01659199967980385;1.1136159896850586;-0.65625;1.6581250429153442;10.215624809265137
751;0.0;0.0;0.0;0.0849120020866394;-0.004879999905824661;1.073599934577942;0.0;0.0;0.0
753;0.0;0.0;0.0;0.07710400223731995;-0.03611199930310249;1.101904034614563;0.0;0.0;0.0
755;0.0;0.0;0.0;0.0849120020866394;-0.00878399983048439;1.0931199789047241;0.0;0.0;0.0
758;-0.03391600027680397;0.11370399594306946;0.9642879962921143;0.0849120020866394;-0.01659199967980385;1.073599934577942;2.913750171661377;0.5381249785423279;10.845624923706055
760;0.0;0.0;0.0;0.08881600201129913;-0.01659199967980385;1.0892159938812256;0.0;0.0;0.0
762;0.0;0.0;0.0;0.0849120020866394;-0.004879999905824661;1.0931199789047241;0.0;0.0;0.0
764;0.0;0.0;0.0;0.11126399785280228;-0.00878399983048439;1.097999930381775;0.0;0.0;0.0
766;-0.019519999623298645;0.11834000051021576;0.9706319570541382;0.10052800178527832;-0.0009759999811649323;1.126304030418396;6.133749961853027;-0.7918750047683716;11.405624389648438
768;0.0;0.0;0.0;0.13468798995018005;-0.020495999604463577;1.085312008857727;0.0;0.0;0.0
770;0.0;0.0;0.0;0.10345599800348282;-0.01268799975514412;1.1136159896850586;0.0;0.0;0.0
772;0.0;0.0;0.0;0.12297599762678146;-0.01268799975514412;1.1058080196380615;0.0;0.0;0.0
775;-0.012443999759852886;0.12541599571704865;0.97843998670578;0.09564799815416336;-0.01659199967980385;1.126304030418396;8.233750343322754;0.398125022649765;10.845624923706055
777;0.0;0.0;0.0;0.10345599800348282;-0.0009759999811649323;1.1058080196380615;0.0;0.0;0.0
779;0.0;0.0;0.0;0.13859200477600098;0.018543999642133713;1.1058080196380615;0.0;0.0;0.0
781;0.0;0.0;0.0;0.11907199770212173;0.006831999868154526;1.10971200466156;0.0;0.0;0.0
783;-0.011223999783396721;0.13688400387763977;0.9884439706802368;0.11126399785280228;0.02635199949145317;1.134112000465393;9.423749923706055;2.9181251525878906;9.445624351501465
785;0.0;0.0;0.0;0.09662400186061859;-0.0009759999811649323;1.126304030418396;0.0;0.0;0.0
787;0.0;0.0;0.0;0.10833600163459778;0.018543999642133713;1.1302080154418945;0.0;0.0;0.0
789;0.0;0.0;0.0;0.11126399785280228;0.010735999792814255;1.122399926185608;0.0;0.0;0.0
792;-0.01512799970805645;0.15054799616336823;1.0013760328292847;0.10443200170993805;0.0029279999434947968;1.1380159854888916;9.423749923706055;5.018125057220459;8.535624504089355
794;0.0;0.0;0.0;0.09564799815416336;0.006831999868154526;1.150704026222229;0.0;0.0;0.0
796;0.0;0.0;0.0;0.10833600163459778;0.03415999934077263;1.146799921989441;0.0;0.0;0.0
798;0.0;0.0;0.0;0.06539200246334076;0.03806399926543236;1.1546080112457275;0.0;0.0;0.0
800;-0.02513200044631958;0.15908800065517426;1.0152839422225952;0.13078400492668152;-0.0009759999811649323;1.1546080112457275;7.953750133514404;5.228125095367432;8.255624771118164
802;0.0;0.0;0.0;0.115167997777462;0.03415999934077263;1.175104022026062;0.0;0.0;0.0
804;0.0;0.0;0.0;0.09272000193595886;0.014639999717473984;1.158511996269226;0.0;0.0;0.0
806;0.0;0.0;0.0;0.10833600163459778;0.06929600238800049;1.1712000370025635;0.0;0.0;0.0
809;-0.01878799870610237;0.17177599668502808;1.0277279615402222;0.09272000193595886;0.049775999039411545;1.1546080112457275;4.383749961853027;4.248125076293945;8.745624542236328
811;0.0;0.0;0.0;0.09272000193595886;0.03415999934077263;1.146799921989441;0.0;0.0;0.0
813;0.0;0.0;0.0;0.10735999792814255;0.03806399926543236;1.1302080154418945;0.0;0.0;0.0
815;0.0;0.0;0.0;0.10052800178527832;0.018543999642133713;1.1380159854888916;0.0;0.0;0.0
817;-0.018300000578165054;0.1710439920425415;1.030900001525879;0.115167997777462;0.018543999642133713;1.1546080112457275;-0.23625001311302185;3.968125104904175;9.375624656677246
819;0.0;0.0;0.0;0.10345599800348282;0.04196799919009209;1.1546080112457275;0.0;0.0;0.0
821;0.0;0.0;0.0;0.08100800216197968;0.006831999868154526;1.1302080154418945;0.0;0.0;0.0
823;0.0;0.0;0.0;0.08881600201129913;0.0302559994161129;1.134112000465393;0.0;0.0;0.0
826;-0.02781599946320057;0.1571359932422638;1.0172359943389893;0.09272000193595886;0.014639999717473984;1.146799921989441;-4.926249980926514;4.388124942779541;9.235624313354492
828;0.0;0.0;0.0;0.08100800216197968;0.014639999717473984;1.126304030418396;0.0;0.0;0.0
830;0.0;0.0;0.0;0.115167997777462;0.014639999717473984;1.1058080196380615;0.0;0.0;0.0
832;0.0;0.0;0.0;0.08881600201129913;-0.0009759999811649323;1.122399926185608;0.0;0.0;0.0
834;-0.03391600027680397;0.14786399900913239;0.9967399835586548;0.0849120020866394;0.006831999868154526;1.1058080196380615;-7.516250133514404;4.738125324249268;7.905624866485596
836;0.0;0.0;0.0;0.0849120020866394;0.0302559994161129;1.122399926185608;0.0;0.0;0.0
838;0.0;0.0;0.0;0.10735999792814255;0.03806399926543236;1.1136159896850586;0.0;0.0;0.0
840;0.0;0.0;0.0;0.09272000193595886;0.010735999792814255;1.1058080196380615;0.0;0.0;0.0
843;-0.024887999519705772;0.14883999526500702;0.97843998670578;0.115167997777462;0.018543999642133713;1.0892159938812256;-7.726249694824219;3.968125104904175;6.995625019073486
845;0.0;0.0;0.0;0.11907199770212173;-0.0009759999811649323;1.101904034614563;0.0;0.0;0.0
847;0.0;0.0;0.0;0.11907199770212173;0.006831999868154526;1.0814080238342285;0.0;0.0;0.0
849;0.0;0.0;0.0;0.12297599762678146;0.0029279999434947968;1.1136159896850586;0.0;0.0;0.0
851;-0.013907999731600285;0.14640000462532043;0.9701439738273621;0.10052800178527832;0.0302559994161129;1.101904034614563;-6.186249732971191;2.4281251430511475;7.975625038146973
853;0.0;0.0;0.0;0.10735999792814255;0.014639999717473984;1.0892159938812256;0.0;0.0;0.0
855;0.0;0.0;0.0;0.10443200170993805;0.022447999566793442;1.085312008857727;0.0;0.0;0.0
858;0.0;0.0;0.0;0.11126399785280228;-0.01659199967980385;1.097999930381775;0.0;0.0;0.0
860;-0.013419999741017818;0.1420079916715622;0.9598959684371948;0.11907199770212173;-0.004879999905824661;1.0814080238342285;-3.1062498092651367;1.3781249523162842;9.515625
862;0.0;0.0;0.0;0.11126399785280228;0.014639999717473984;1.101904034614563;0.0;0.0;0.0
864;0.0;0.0;0.0;0.10443200170993805;0.02635199949145317;1.0648159980773926;0.0;0.0;0.0
866;0.0;0.0;0.0;0.09662400186061859;-0.00878399983048439;1.1058080196380615;0.0;0.0;0.0
868;-0.021959999576210976;0.14054399728775024;0.9584319591522217;0.06929600238800049;0.006831999868154526;1.0648159980773926;0.8837500214576721;1.168125033378601;10.565624237060547
870;0.0;0.0;0.0;0.09662400186061859;0.02635199949145317;1.097999930381775;0.0;0.0;0.0
872;0.0;0.0;0.0;0.06539200246334076;0.0029279999434947968;1.0931199789047241;0.0;0.0;0.0
874;0.0;0.0;0.0;0.0849120020866394;0.0029279999434947968;1.0814080238342285;0.0;0.0;0.0
877;-0.04318799823522568;0.14347200095653534;0.9630680084228516;0.06929600238800049;0.018543999642133713;1.085312008857727;4.59375;0.11812499910593033;11.545624732971191
879;0.0;0.0;0.0;0.06539200246334076;0.03415999934077263;1.0814080238342285;0.0;0.0;0.0
881;0.0;0.0;0.0;0.053679998964071274;0.014639999717473984;1.0931199789047241;0.0;0.0;0.0
883;0.0;0.0;0.0;0.06539200246334076;0.02635199949145317;1.0814080238342285;0.0;0.0;0.0
885;-0.060999996960163116;0.14908400177955627;0.9642879962921143;0.06539200246334076;0.022447999566793442;1.1136159896850586;6.973750114440918;-2.2618749141693115;11.895624160766602
887;0.0;0.0;0.0;0.057583998888731;0.0029279999434947968;1.0970239639282227;0.0;0.0;0.0
889;0.0;0.0;0.0;0.06148799881339073;0.010735999792814255;1.101904034614563;0.0;0.0;0.0
892;0.0;0.0;0.0;0.08100800216197968;0.03415999934077263;1.097999930381775;0.0;0.0;0.0
894;-0.05636399984359741;0.16103999316692352;0.9718520045280457;0.0849120020866394;0.0302559994161129;1.0892159938812256;7.253750324249268;-4.151875019073486;11.125624656677246
896;0.0;0.0;0.0;0.09662400186061859;0.049775999039411545;1.1136159896850586;0.0;0.0;0.0
898;0.0;0.0;0.0;0.10443200170993805;0.02635199949145317;1.10971200466156;0.0;0.0;0.0
900;0.0;0.0;0.0;0.08881600201129913;0.049775999039411545;1.10971200466156;0.0;0.0;0.0
902;-0.03537999838590622;0.17641200125217438;0.985759973526001;0.0849120020866394;0.03415999934077263;1.1175199747085571;5.013750076293945;-4.011875152587891;10.42562484741211
904;0.0;0.0;0.0;0.08100800216197968;0.053679998964071274;1.122399926185608;0.0;0.0;0.0
906;0.0;0.0;0.0;0.11126399785280228;0.06929600238800049;1.101904034614563;0.0;0.0;0.0
909;0.0;0.0;0.0;0.10443200170993805;0.06148799881339073;1.1136159896850586;0.0;0.0;0.0
911;-0.02000799961388111;0.18983200192451477;0.9989359974861145;0.1268799901008606;0.07320000231266022;1.1302080154418945;0.6737499833106995;-2.4018750190734863;9.655624389648438
913;0.0;0.0;0.0;0.11907199770212173;0.04196799919009209;1.126304030418396;0.0;0.0;0.0
915;0.0;0.0;0.0;0.1268799901008606;0.045871999114751816;1.134112000465393;0.0;0.0;0.0
917;0.0;0.0;0.0;0.11224000155925751;0.053679998964071274;1.1302080154418945;0.0;0.0;0.0
919;-0.011711999773979187;0.1856839954853058;1.0030839443206787;0.09662400186061859;0.02635199949145317;1.134112000465393;-4.856249809265137;0.11812499910593033;8.9556245803833
921;0.0;0.0;0.0;0.12297599762678146;0.053679998964071274;1.1380159854888916;0.0;0.0;0.0
923;0.0;0.0;0.0;0.12785600125789642;0.0029279999434947968;1.101904034614563;0.0;0.0;0.0
926;0.0;0.0;0.0;0.10443200170993805;0.010735999792814255;1.134112000465393;0.0;0.0;0.0
928;-0.015859998762607574;0.16494399309158325;0.9947879910469055;0.10052800178527832;0.0302559994161129;1.1058080196380615;-9.546250343322754;2.4281251430511475;8.535624504089355
930;0.0;0.0;0.0;0.08881600201129913;-0.01268799975514412;1.1175199747085571;0.0;0.0;0.0
932;0.0;0.0;0.0;0.08100800216197968;-0.0009759999811649323;1.0970239639282227;0.0;0.0;0.0
934;0.0;0.0;0.0;0.10443200170993805;-0.0009759999811649323;1.1175199747085571;0.0;0.0;0.0
936;-0.026839999482035637;0.13249199092388153;0.9762439727783203;0.10345599800348282;-0.00878399983048439;1.097999930381775;-11.716249465942383;3.6881251335144043;8.185624122619629
938;0.0;0.0;0.0;0.09662400186061859;-0.020495999604463577;1.0814080238342285;0.0;0.0;0.0
940;0.0;0.0;0.0;0.115167997777462;-0.032207999378442764;1.10971200466156;0.0;0.0;0.0
943;0.0;0.0;0.0;0.09272000193595886;-0.06734399497509003;1.0814080238342285;0.0;0.0;0.0
945;-0.02391199953854084;0.10174799710512161;0.9652639627456665;0.11907199770212173;-0.04001599922776222;1.085312008857727;-11.016249656677246;2.8481252193450928;8.045624732971191
947;0.0;0.0;0.0;0.10345599800348282;-0.05953599885106087;1.085312008857727;0.0;0.0;0.0
949;0.0;0.0;0.0;0.10833600163459778;-0.05172799900174141;1.073599934577942;0.0;0.0;0.0
951;0.0;0.0;0.0;0.09955199807882309;-0.08295999467372894;1.0775039196014404;0.0;0.0;0.0
953;-0.018543999642133713;0.08295999467372894;0.9594079852104187;0.10833600163459778;-0.07515199482440948;1.085312008857727;-8.49625015258789;1.5881249904632568;8.185624122619629
956;0.0;0.0;0.0;0.13078400492668152;-0.05172799900174141;1.0931199789047241;0.0;0.0;0.0
957;0.0;0.0;0.0;0.11126399785280228;-0.05953599885106087;1.0775039196014404;0.0;0.0;0.0
960;0.0;0.0;0.0;0.10735999792814255;-0.032207999378442764;1.0775039196014404;0.0;0.0;0.0
962;-0.018543999642133713;0.07441999763250351;0.9579439759254456;0.11126399785280228;-0.05172799900174141;1.0892159938812256;-5.066249847412109;1.5181249380111694;8.11562442779541
964;0.0;0.0;0.0;0.07710400223731995;-0.03611199930310249;1.085312008857727;0.0;0.0;0.0
966;0.0;0.0;0.0;0.09955199807882309;-0.05953599885106087;1.085312008857727;0.0;0.0;0.0
968;0.0;0.0;0.0;0.07710400223731995;-0.05563199892640114;1.085312008857727;0.0;0.0;0.0
970;-0.03391600027680397;0.0849120020866394;0.962336003780365;0.06148799881339073;-0.03611199930310249;1.0892159938812256;-1.566249966621399;1.238124966621399;8.255624771118164
972;0.0;0.0;0.0;0.06929600238800049;-0.024399999529123306;1.085312008857727;0.0;0.0;0.0
974;0.0;0.0;0.0;0.049775999039411545;-0.024399999529123306;1.0814080238342285;0.0;0.0;0.0
977;0.0;0.0;0.0;0.06539200246334076;-0.04001599922776222;1.1136159896850586;0.0;0.0;0.0
979;-0.04660400003194809;0.10906799882650375;0.9723399877548218;0.07710400223731995;-0.00878399983048439;1.0892159938812256;0.9537500143051147;-0.5118750333786011;8.815624237060547
981;0.0;0.0;0.0;0.08100800216197968;-0.004879999905824661;1.122399926185608;0.0;0.0;0.0
983;0.0;0.0;0.0;0.06148799881339073;-0.0009759999811649323;1.10971200466156;0.0;0.0;0.0
985;0.0;0.0;0.0;0.10052800178527832;0.014639999717473984;1.1058080196380615;0.0;0.0;0.0
987;-0.037087999284267426;0.1378600001335144;0.982587993144989;0.09272000193595886;-0.01268799975514412;1.101904034614563;1.5837500095367432;-2.051874876022339;9.095624923706055
989;0.0;0.0;0.0;0.08100800216197968;0.014639999717473984;1.1058080196380615;0.0;0.0;0.0
991;0.0;0.0;0.0;0.08881600201129913;0.03806399926543236;1.122399926185608;0.0;0.0;0.0
994;0.0;0.0;0.0;0.11614400148391724;0.014639999717473984;1.1175199747085571;0.0;0.0;0.0
996;-0.01659199967980385;0.14932799339294434;0.9886879920959473;0.1268799901008606;0.0029279999434947968;1.097999930381775;0.8837500214576721;-2.051874876022339;9.86562442779541
998;0.0;0.0;0.0;0.10443200170993805;0.0302559994161129;1.10971200466156;0.0;0.0;0.0
1000;0.0;0.0;0.0;0.14640000462532043;0.006831999868154526;1.1175199747085571;0.0;0.0;0.0
1002;0.0;0.0;0.0;0.10443200170993805;0.010735999792814255;1.126304030418396;0.0;0.0;0.0
1004;-0.0007319999858736992;0.15201199054718018;0.994055986404419;0.11907199770212173;-0.004879999905824661;1.1136159896850586;-0.3762499988079071;-1.071874976158142;11.545624732971191
1006;0.0;0.0;0.0;0.11907199770212173;0.010735999792814255;1.1175199747085571;0.0;0.0;0.0
1008;0.0;0.0;0.0;0.115167997777462;0.006831999868154526;1.122399926185608;0.0;0.0;0.0
1011;0.0;0.0;0.0;0.12297599762678146;-0.0009759999811649323;1.1136159896850586;0.0;0.0;0.0
1013;-0.008051999844610691;0.14469200372695923;0.9947879910469055;0.115167997777462;-0.0009759999811649323;1.122399926185608;-1.7762500047683716;0.2581250071525574;12.805624961853027
1015;0.0;0.0;0.0;0.11126399785280228;-0.01268799975514412;1.126304030418396;0.0;0.0;0.0
1017;0.0;0.0;0.0;0.10052800178527832;0.0302559994161129;1.1302080154418945;0.0;0.0;0.0
1019;0.0;0.0;0.0;0.115167997777462;-0.020495999604463577;1.1058080196380615;0.0;0.0;0.0
1021;-0.020739998668432236;0.13053999841213226;0.9994239807128906;0.09564799815416336;-0.01268799975514412;1.1419199705123901;-2.966249942779541;0.6781249642372131;13.225625038146973
1023;0.0;0.0;0.0;0.0849120020866394;-0.032207999378442764;1.134112000465393;0.0;0.0;0.0
1025;0.0;0.0;0.0;0.10443200170993805;0.0029279999434947968;1.1302080154418945;0.0;0.0;0.0
1028;0.0;0.0;0.0;0.09174399822950363;-0.04001599922776222;1.134112000465393;0.0;0.0;0.0
1030;-0.02635199949145317;0.11126399785280228;0.9982039928436279;0.0878399983048439;-0.024399999529123306;1.10971200466156;-4.086249828338623;-0.16187499463558197;13.295624732971191
1032;0.0;0.0;0.0;0.08881600201129913;-0.04782399907708168;1.122399926185608;0.0;0.0;0.0
1034;0.0;0.0;0.0;0.115167997777462;-0.04391999915242195;1.1175199747085571;0.0;0.0;0.0
1036;0.0;0.0;0.0;0.09662400186061859;-0.032207999378442764;1.1136159896850586;0.0;0.0;0.0
1038;-0.024399999529123306;0.09662400186061859;0.9918599724769592;0.10443200170993805;-0.05953599885106087;1.122399926185608;-4.716249942779541;-1.421875;13.225625038146973
1041;0.0;0.0;0.0;0.11224000155925751;-0.04391999915242195;1.126304030418396;0.0;0.0;0.0
1042;0.0;0.0;0.0;0.11126399785280228;-0.04782399907708168;1.1058080196380615;0.0;0.0;0.0
1045;0.0;0.0;0.0;0.11126399785280228;-0.04782399907708168;1.1136159896850586;0.0;0.0;0.0
1047;-0.013175999745726585;0.08857199549674988;0.9933239817619324;0.11126399785280228;-0.07515199482440948;1.1302080154418945;-4.926249980926514;-1.9118750095367432;12.4556245803833
1049;0.0;0.0;0.0;0.12297599762678146;-0.06734399497509003;1.134112000465393;0.0;0.0;0.0
1051;0.0;0.0;0.0;0.115167997777462;-0.04391999915242195;1.097999930381775;0.0;0.0;0.0
1053;0.0;0.0;0.0;0.115167997777462;-0.04782399907708168;1.1136159896850586;0.0;0.0;0.0
1055;-0.01195599976927042;0.08710800111293793;0.9964959621429443;0.08100800216197968;-0.024399999529123306;1.122399926185608;-5.276249885559082;-1.0018750429153442;10.985624313354492
1057;0.0;0.0;0.0;0.10735999792814255;-0.04001599922776222;1.10971200466156;0.0;0.0;0.0
1059;0.0;0.0;0.0;0.10443200170993805;-0.032207999378442764;1.122399926185608;0.0;0.0;0.0
1062;0.0;0.0;0.0;0.10833600163459778;-0.028303999453783035;1.126304030418396;0.0;0.0;0.0
1064;-0.01878799870610237;0.09027999639511108;1.0013760328292847;0.10735999792814255;-0.05172799900174141;1.126304030418396;-5.90625;-0.5118750333786011;9.305624961853027
1066;0.0;0.0;0.0;0.09272000193595886;-0.04782399907708168;1.134112000465393;0.0;0.0;0.0
1068;0.0;0.0;0.0;0.12297599762678146;-0.05953599885106087;1.0970239639282227;0.0;0.0;0.0
1070;0.0;0.0;0.0;0.10735999792814255;-0.07124799489974976;1.134112000465393;0.0;0.0;0.0
1072;-0.021959999576210976;0.09125600010156631;0.9984479546546936;0.08100800216197968;-0.04391999915242195;1.1136159896850586;-5.90625;-1.8418750762939453;8.605624198913574
1075;0.0;0.0;0.0;0.11126399785280228;-0.04782399907708168;1.126304030418396;0.0;0.0;0.0
1077;0.0;0.0;0.0;0.10443200170993805;-0.04391999915242195;1.1302080154418945;0.0;0.0;0.0
1079;0.0;0.0;0.0;0.12004800140857697;-0.0634399950504303;1.122399926185608;0.0;0.0;0.0
1081;-0.014639999717473984;0.09564799815416336;0.9943000078201294;0.11907199770212173;-0.01268799975514412;1.1175199747085571;-5.066249847412109;-3.031874895095825;8.535624504089355
1083;0.0;0.0;0.0;0.11126399785280228;-0.04001599922776222;1.126304030418396;0.0;0.0;0.0
1085;0.0;0.0;0.0;0.115167997777462;-0.03611199930310249;1.122399926185608;0.0;0.0;0.0
1087;0.0;0.0;0.0;0.10735999792814255;-0.00878399983048439;1.101904034614563;0.0;0.0;0.0
1089;-0.00878399983048439;0.10223599523305893;0.9896639585494995;0.115167997777462;-0.03611199930310249;1.101904034614563;-3.3862500190734863;-3.3818750381469727;8.465624809265137
1092;0.0;0.0;0.0;0.14640000462532043;-0.04001599922776222;1.1419199705123901;0.0;0.0;0.0
1094;0.0;0.0;0.0;0.09662400186061859;-0.028303999453783035;1.097999930381775;0.0;0.0;0.0
1096;0.0;0.0;0.0;0.11907199770212173;-0.00878399983048439;1.1058080196380615;0.0;0.0;0.0
1098;-0.011711999773979187;0.10540799796581268;0.9847840070724487;0.09272000193595886;-0.0634399950504303;1.1058080196380615;-1.3562500476837158;-3.5218749046325684;8.535624504089355
1100;0.0;0.0;0.0;0.11907199770212173;-0.04001599922776222;1.1136159896850586;0.0;0.0;0.0
1102;0.0;0.0;0.0;0.1424959897994995;-0.01659199967980385;1.1136159896850586;0.0;0.0;0.0
1104;0.0;0.0;0.0;0.11907199770212173;-0.024399999529123306;1.122399926185608;0.0;0.0;0.0
1106;-0.010735999792814255;0.11101999878883362;0.9869799613952637;0.10345599800348282;-0.024399999529123306;1.1136159896850586;-0.09624999761581421;-3.731874942779541;8.815624237060547
1109;0.0;0.0;0.0;0.09662400186061859;-0.028303999453783035;1.0970239639282227;0.0;0.0;0.0
1111;0.0;0.0;0.0;0.13859200477600098;-0.024399999529123306;1.1136159896850586;0.0;0.0;0.0
1113;0.0;0.0;0.0;0.13078400492668152;-0.024399999529123306;1.1175199747085571;0.0;0.0;0.0
1115;-0.006099999882280827;0.11321599781513214;0.9872239828109741;0.11907199770212173;-0.024399999529123306;1.0931199789047241;0.5337499976158142;-4.151875019073486;8.885624885559082
1117;0.0;0.0;0.0;0.09662400186061859;-0.004879999905824661;1.122399926185608;0.0;0.0;0.0
1119;0.0;0.0;0.0;0.10735999792814255;-0.00878399983048439;1.101904034614563;0.0;0.0;0.0
1121;0.0;0.0;0.0;0.115167997777462;-0.00878399983048439;1.1058080196380615;0.0;0.0;0.0
1123;-0.0024399999529123306;0.11101999878883362;0.9789279699325562;0.12004800140857697;-0.05172799900174141;1.101904034614563;0.8137500286102295;-4.851874828338623;8.815624237060547
1126;0.0;0.0;0.0;0.1424959897994995;-0.01268799975514412;1.1136159896850586;0.0;0.0;0.0
1128;0.0;0.0;0.0;0.15030398964881897;-0.01659199967980385;1.097999930381775;0.0;0.0;0.0
1130;0.0;0.0;0.0;0.13859200477600098;-0.020495999604463577;1.0931199789047241;0.0;0.0;0.0
1132;0.01268799975514412;0.10833600163459778;0.9750239849090576;0.15030398964881897;-0.01268799975514412;1.0892159938812256;-0.09624999761581421;-4.361875057220459;8.535624504089355
1134;0.0;0.0;0.0;0.1424959897994995;-0.03611199930310249;1.10971200466156;0.0;0.0;0.0
1136;0.0;0.0;0.0;0.1542080044746399;-0.04001599922776222;1.1058080196380615;0.0;0.0;0.0
1138;0.0;0.0;0.0;0.1424959897994995;-0.020495999604463577;1.101904034614563;0.0;0.0;0.0
1140;0.02537599951028824;0.11077599972486496;0.9752680063247681;0.1542080044746399;-0.024399999529123306;1.10971200466156;-2.336249828338623;-0.721875011920929;7.625625133514404
1143;0.0;0.0;0.0;0.1542080044746399;0.0029279999434947968;1.0892159938812256;0.0;0.0;0.0
1145;0.0;0.0;0.0;0.1542080044746399;-0.01659199967980385;1.1058080196380615;0.0;0.0;0.0
1147;0.0;0.0;0.0;0.13468798995018005;-0.01268799975514412;1.1175199747085571;0.0;0.0;0.0
1149;0.025619998574256897;0.1088239997625351;0.9799039959907532;0.1542080044746399;-0.032207999378442764;1.1058080196380615;-5.136250019073486;4.598124980926514;5.595624923706055
1151;0.0;0.0;0.0;0.1424959897994995;-0.020495999604463577;1.1175199747085571;0.0;0.0;0.0
1153;0.0;0.0;0.0;0.15030398964881897;-0.020495999604463577;1.1058080196380615;0.0;0.0;0.0
1155;0.0;0.0;0.0;0.12297599762678146;-0.03611199930310249;1.1214239597320557;0.0;0.0;0.0
1157;0.018300000578165054;0.10491999983787537;0.9850279688835144;0.1424959897994995;-0.032207999378442764;1.1302080154418945;-6.676249980926514;8.728124618530273;3.775624990463257
1160;0.0;0.0;0.0;0.14640000462532043;-0.032207999378442764;1.122399926185608;0.0;0.0;0.0
1162;0.0;0.0;0.0;0.12297599762678146;-0.01268799975514412;1.1302080154418945;0.0;0.0;0.0
1164;0.0;0.0;0.0;0.07320000231266022;-0.05953599885106087;1.134112000465393;0.0;0.0;0.0
1166;-0.0009759999811649323;0.1012599989771843;0.9969840049743652;0.08881600201129913;-0.04001599922776222;1.122399926185608;-6.326250076293945;9.98812484741211;3.215625047683716
1168;0.0;0.0;0.0;0.09272000193595886;-0.028303999453783035;1.126304030418396;0.0;0.0;0.0
1170;0.0;0.0;0.0;0.09272000193595886;-0.04782399907708168;1.134112000465393;0.0;0.0;0.0
1172;0.0;0.0;0.0;0.07320000231266022;-0.01268799975514412;1.1136159896850586;0.0;0.0;0.0
1174;-0.029767999425530434;0.09442799538373947;1.002351999282837;0.06929600238800049;-0.03611199930310249;1.1419199705123901;-4.716249942779541;7.678124904632568;2.7256250381469727
1177;0.0;0.0;0.0;0.06148799881339073;-0.028303999453783035;1.122399926185608;0.0;0.0;0.0
1179;0.0;0.0;0.0;0.057583998888731;-0.06734399497509003;1.1302080154418945;0.0;0.0;0.0
1181;0.0;0.0;0.0;0.057583998888731;-0.07515199482440948;1.146799921989441;0.0;0.0;0.0
1183;-0.048312000930309296;0.09272000193595886;1.0033279657363892;0.06148799881339073;-0.03611199930310249;1.1302080154418945;-2.336249828338623;3.198125123977661;1.8856250047683716
1185;0.0;0.0;0.0;0.0849120020866394;-0.05172799900174141;1.1419199705123901;0.0;0.0;0.0
1187;0.0;0.0;0.0;0.06539200246334076;-0.04782399907708168;1.1136159896850586;0.0;0.0;0.0
1189;0.0;0.0;0.0;0.06929600238800049;-0.028303999453783035;1.1175199747085571;0.0;0.0;0.0
1191;-0.05514399707317352;0.09784399718046188;0.9979599714279175;0.06539200246334076;-0.04391999915242195;1.1058080196380615;-0.026250001043081284;-1.9118750095367432;1.1856250762939453
1194;0.0;0.0;0.0;0.045871999114751816;-0.024399999529123306;1.1136159896850586;0.0;0.0;0.0
1196;0.0;0.0;0.0;0.049775999039411545;-0.04001599922776222;1.1175199747085571;0.0;0.0;0.0
1198;0.0;0.0;0.0;0.06929600238800049;-0.05172799900174141;1.1136159896850586;0.0;0.0;0.0
1200;-0.05148399993777275;0.10979999601840973;0.9838079810142517;0.045871999114751816;-0.0009759999811649323;1.1136159896850586;1.7937500476837158;-5.691874980926514;0.6256250143051147
1202;0.0;0.0;0.0;0.06539200246334076;-0.01268799975514412;1.097999930381775;0.0;0.0;0.0
1204;0.0;0.0;0.0;0.07320000231266022;-0.024399999529123306;1.0931199789047241;0.0;0.0;0.0
1206;0.0;0.0;0.0;0.08881600201129913;-0.020495999604463577;1.097999930381775;0.0;0.0;0.0
1208;-0.04025999829173088;0.1239520013332367;0.9779520034790039;0.09272000193595886;-0.0009759999811649323;1.10971200466156;2.6337502002716064;-7.721874713897705;0.27562499046325684
1211;0.0;0.0;0.0;0.0849120020866394;-0.004879999905824661;1.101904034614563;0.0;0.0;0.0
1213;0.0;0.0;0.0;0.10735999792814255;-0.020495999604463577;1.0931199789047241;0.0;0.0;0.0
1215;0.0;0.0;0.0;0.07710400223731995;0.022447999566793442;1.097999930381775;0.0;0.0;0.0
1217;-0.018055999651551247;0.13883599638938904;0.9757559895515442;0.11907199770212173;-0.0009759999811649323;1.097999930381775;1.933750033378601;-8.631875038146973;0.6956250071525574
1219;0.0;0.0;0.0;0.10443200170993805;0.010735999792814255;1.10971200466156;0.0;0.0;0.0
1221;0.0;0.0;0.0;0.12297599762678146;-0.004879999905824661;1.1058080196380615;0.0;0.0;0.0
1223;0.0;0.0;0.0;0.13859200477600098;0.018543999642133713;1.0814080238342285;0.0;0.0;0.0
1225;0.01439599972218275;0.14859600365161896;0.9725840091705322;0.13468798995018005;0.018543999642133713;1.1058080196380615;-0.026250001043081284;-7.791874885559082;2.2356250286102295
1228;0.0;0.0;0.0;0.13078400492668152;0.0302559994161129;1.097999930381775;0.0;0.0;0.0
1230;0.0;0.0;0.0;0.1424959897994995;-0.004879999905824661;1.10971200466156;0.0;0.0;0.0
1232;0.0;0.0;0.0;0.15030398964881897;0.014639999717473984;1.10971200466156;0.0;0.0;0.0
1234;0.026839999482035637;0.14981599152088165;0.9745360016822815;0.13078400492668152;0.02635199949145317;1.1136159896850586;-2.476249933242798;-3.9418749809265137;3.8456249237060547
1236;0.0;0.0;0.0;0.12297599762678146;0.02635199949145317;1.097999930381775;0.0;0.0;0.0
1238;0.0;0.0;0.0;0.13468798995018005;0.010735999792814255;1.1136159896850586;0.0;0.0;0.0
1240;0.0;0.0;0.0;0.13468798995018005;-0.0009759999811649323;1.10971200466156;0.0;0.0;0.0
1242;0.02635199949145317;0.14420399069786072;0.9762439727783203;0.11907199770212173;0.006831999868154526;1.0931199789047241;-4.296249866485596;0.11812499910593033;5.455625057220459
1245;0.0;0.0;0.0;0.15030398964881897;0.006831999868154526;1.085312008857727;0.0;0.0;0.0
1247;0.0;0.0;0.0;0.13859200477600098;0.02635199949145317;1.0970239639282227;0.0;0.0;0.0
1249;0.0;0.0;0.0;0.1424959897994995;0.006831999868154526;1.10971200466156;0.0;0.0;0.0
1251;0.016835998743772507;0.12931999564170837;0.97843998670578;0.15030398964881897;-0.0009759999811649323;1.0892159938812256;-4.856249809265137;2.008125066757202;7.485625267028809
1253;0.0;0.0;0.0;0.15030398964881897;-0.024399999529123306;1.0931199789047241;0.0;0.0;0.0
1255;0.0;0.0;0.0;0.09955199807882309;-0.032207999378442764;1.126304030418396;0.0;0.0;0.0
1257;0.0;0.0;0.0;0.10735999792814255;-0.01659199967980385;1.122399926185608;0.0;0.0;0.0
1259;0.0014639999717473984;0.11370399594306946;0.9806360006332397;0.10833600163459778;-0.01659199967980385;1.097999930381775;-3.8762497901916504;1.5181249380111694;8.745624542236328
1262;0.0;0.0;0.0;0.09662400186061859;-0.05563199892640114;1.1058080196380615;0.0;0.0;0.0
1264;0.0;0.0;0.0;0.10735999792814255;-0.04001599922776222;1.101904034614563;0.0;0.0;0.0
1266;0.0;0.0;0.0;0.09662400186061859;-0.00878399983048439;1.1058080196380615;0.0;0.0;0.0
1268;-0.021715998649597168;0.1012599989771843;0.9796599745750427;0.08881600201129913;-0.01659199967980385;1.1136159896850586;-2.0562498569488525;-0.3018749952316284;9.165624618530273
1270;0.0;0.0;0.0;0.0849120020866394;-0.0634399950504303;1.0892159938812256;0.0;0.0;0.0
1272;0.0;0.0;0.0;0.0849120020866394;-0.01659199967980385;1.10971200466156;0.0;0.0;0.0
1274;0.0;0.0;0.0;0.06929600238800049;-0.04001599922776222;1.101904034614563;0.0;0.0;0.0
1276;-0.03855200111865997;0.09467199444770813;0.9755119681358337;0.07320000231266022;-0.028303999453783035;1.0931199789047241;-0.16625000536441803;-3.3118748664855957;8.9556245803833
1279;0.0;0.0;0.0;0.07320000231266022;-0.03611199930310249;1.097999930381775;0.0;0.0;0.0
1281;0.0;0.0;0.0;0.0849120020866394;-0.032207999378442764;1.097999930381775;0.0;0.0;0.0
1283;0.0;0.0;0.0;0.07710400223731995;-0.00878399983048439;1.101904034614563;0.0;0.0;0.0
1285;-0.04001599922776222;0.10662800073623657;0.9762439727783203;0.09662400186061859;-0.032207999378442764;1.10971200466156;0.6737499833106995;-6.39187479019165;8.67562484741211
1287;0.0;0.0;0.0;0.09272000193595886;-0.004879999905824661;1.097999930381775;0.0;0.0;0.0
1289;0.0;0.0;0.0;0.09662400186061859;-0.020495999604463577;1.1302080154418945;0.0;0.0;0.0
1291;0.0;0.0;0.0;0.10735999792814255;-0.01268799975514412;1.10971200466156;0.0;0.0;0.0
1293;-0.015615999698638916;0.11834000051021576;0.9767319560050964;0.10052800178527832;0.014639999717473984;1.0775039196014404;0.11374999582767487;-8.281875610351562;8.255624771118164
1296;0.0;0.0;0.0;0.11907199770212173;-0.01268799975514412;1.0931199789047241;0.0;0.0;0.0
1298;0.0;0.0;0.0;0.11224000155925751;-0.01268799975514412;1.0892159938812256;0.0;0.0;0.0
1300;0.0;0.0;0.0;0.10735999792814255;-0.020495999604463577;1.0775039196014404;0.0;0.0;0.0
1302;-0.005123999901115894;0.12053599953651428;0.9681919813156128;0.11907199770212173;-0.0009759999811649323;1.073599934577942;-1.566249966621399;-7.301875114440918;7.625625133514404
1304;0.0;0.0;0.0;0.1424959897994995;-0.01268799975514412;1.1136159896850586;0.0;0.0;0.0
1306;0.0;0.0;0.0;0.14640000462532043;-0.01659199967980385;1.097999930381775;0.0;0.0;0.0
1308;0.0;0.0;0.0;0.13468798995018005;0.010735999792814255;1.0814080238342285;0.0;0.0;0.0
1310;0.011223999783396721;0.12419600039720535;0.9679479598999023;0.13859200477600098;-0.020495999604463577;1.0892159938812256;-4.016250133514404;-4.64187479019165;7.135624885559082
1313;0.0;0.0;0.0;0.1542080044746399;-0.00878399983048439;1.0892159938812256;0.0;0.0;0.0
1315;0.0;0.0;0.0;0.13468798995018005;-0.024399999529123306;1.0775039196014404;0.0;0.0;0.0
1317;0.0;0.0;0.0;0.12297599762678146;-0.028303999453783035;1.0775039196014404;0.0;0.0;0.0
1319;0.01756799966096878;0.13102799654006958;0.965507984161377;0.16591998934745789;0.010735999792814255;1.0775039196014404;-5.976249694824219;-1.2818750143051147;7.835625171661377
1321;0.0;0.0;0.0;0.14640000462532043;0.0029279999434947968;1.085312008857727;0.0;0.0;0.0
1323;0.0;0.0;0.0;0.1542080044746399;0.018543999642133713;1.126304030418396;0.0;0.0;0.0
1325;0.0;0.0;0.0;0.12297599762678146;-0.01659199967980385;1.10971200466156;0.0;0.0;0.0
1327;0.014883999712765217;0.12590399384498596;0.9716079831123352;0.11614400148391724;0.006831999868154526;1.1058080196380615;-7.026249885559082;1.3081250190734863;8.745624542236328
1330;0.0;0.0;0.0;0.13078400492668152;-0.04391999915242195;1.10971200466156;0.0;0.0;0.0
1332;0.0;0.0;0.0;0.115167997777462;-0.020495999604463577;1.0931199789047241;0.0;0.0;0.0
1334;0.0;0.0;0.0;0.10833600163459778;-0.024399999529123306;1.1058080196380615;0.0;0.0;0.0
1336;0.011711999773979187;0.10613999515771866;0.9830759763717651;0.11907199770212173;-0.05563199892640114;1.1302080154418945;-7.37624979019165;2.3581252098083496;10.075624465942383
1338;0.0;0.0;0.0;0.11126399785280228;-0.0634399950504303;1.1175199747085571;0.0;0.0;0.0
1340;0.0;0.0;0.0;0.11126399785280228;-0.07124799489974976;1.1184959411621094;0.0;0.0;0.0
1342;0.0;0.0;0.0;0.11907199770212173;-0.05563199892640114;1.126304030418396;0.0;0.0;0.0
1344;-0.004391999915242195;0.08466799557209015;0.9947879910469055;0.11614400148391724;-0.07515199482440948;1.122399926185608;-7.096250057220459;2.2881250381469727;11.125624656677246
1347;0.0;0.0;0.0;0.07320000231266022;-0.05563199892640114;1.122399926185608;0.0;0.0;0.0
1349;0.0;0.0;0.0;0.09662400186061859;-0.07905599474906921;1.1419199705123901;0.0;0.0;0.0
1351;0.0;0.0;0.0;0.09272000193595886;-0.04782399907708168;1.134112000465393;0.0;0.0;0.0
1353;-0.019763998687267303;0.06709999591112137;0.9984479546546936;0.09174399822950363;-0.07905599474906921;1.10971200466156;-6.326250076293945;0.8181250095367432;10.7056245803833
1355;0.0;0.0;0.0;0.11126399785280228;-0.07124799489974976;1.134112000465393;0.0;0.0;0.0
1357;0.0;0.0;0.0;0.11224000155925751;-0.08295999467372894;1.1136159896850586;0.0;0.0;0.0
1359;0.0;0.0;0.0;0.10052800178527832;-0.07905599474906921;1.10971200466156;0.0;0.0;0.0
1361;-0.02122800052165985;0.056120000779628754;0.9886879920959473;0.0849120020866394;-0.0907679945230484;1.0892159938812256;-4.436249732971191;-2.1918749809265137;9.445624351501465
1364;0.0;0.0;0.0;0.11907199770212173;-0.07515199482440948;1.10971200466156;0.0;0.0;0.0
1366;0.0;0.0;0.0;0.09662400186061859;-0.09467199444770813;1.10971200466156;0.0;0.0;0.0
1368;0.0;0.0;0.0;0.13078400492668152;-0.07515199482440948;1.0931199789047241;0.0;0.0;0.0
1370;-0.004635999910533428;0.056120000779628754;0.9786840081214905;0.11907199770212173;-0.06734399497509003;1.10971200466156;-1.9162499904632568;-4.221874713897705;8.045624732971191
1372;0.0;0.0;0.0;0.1268799901008606;-0.05172799900174141;1.10971200466156;0.0;0.0;0.0
1374;0.0;0.0;0.0;0.14640000462532043;-0.07124799489974976;1.0931199789047241;0.0;0.0;0.0
1376;0.0;0.0;0.0;0.13468798995018005;-0.04782399907708168;1.10971200466156;0.0;0.0;0.0
1378;0.003903999924659729;0.07539600133895874;0.9799039959907532;0.12297599762678146;-0.05172799900174141;1.0931199789047241;-0.026250001043081284;-3.9418749809265137;6.645625114440918
1381;0.0;0.0;0.0;0.1424959897994995;-0.04391999915242195;1.101904034614563;0.0;0.0;0.0
1383;0.0;0.0;0.0;0.1268799901008606;-0.028303999453783035;1.0931199789047241;0.0;0.0;0.0
1385;0.0;0.0;0.0;0.11907199770212173;-0.032207999378442764;1.126304030418396;0.0;0.0;0.0
1387;0.0058559998869895935;0.09808799624443054;0.9850279688835144;0.13468798995018005;-0.024399999529123306;1.10971200466156;0.39375001192092896;-2.2618749141693115;5.665625095367432
1389;0.0;0.0;0.0;0.13468798995018005;-0.00878399983048439;1.1175199747085571;0.0;0.0;0.0
1391;0.0;0.0;0.0;0.13468798995018005;-0.0009759999811649323;1.1175199747085571;0.0;0.0;0.0
1393;0.0;0.0;0.0;0.12297599762678146;-0.03611199930310249;1.1058080196380615;0.0;0.0;0.0
1395;0.005123999901115894;0.11541199684143066;0.9886879920959473;0.1268799901008606;-0.0009759999811649323;1.1302080154418945;-0.16625000536441803;0.048124998807907104;4.825624942779541
1398;0.0;0.0;0.0;0.10735999792814255;-0.01268799975514412;1.1175199747085571;0.0;0.0;0.0
1400;0.0;0.0;0.0;0.1268799901008606;-0.032207999378442764;1.1302080154418945;0.0;0.0;0.0
1402;0.0;0.0;0.0;0.13468798995018005;-0.01659199967980385;1.122399926185608;0.0;0.0;0.0
1404;0.008295999839901924;0.12541599571704865;0.9938119649887085;0.1268799901008606;0.0029279999434947968;1.1136159896850586;-0.9362500309944153;2.008125066757202;4.685625076293945
1406;0.0;0.0;0.0;0.1268799901008606;-0.004879999905824661;1.134112000465393;0.0;0.0;0.0
1408;0.0;0.0;0.0;0.13468798995018005;-0.020495999604463577;1.1302080154418945;0.0;0.0;0.0
1410;0.0;0.0;0.0;0.1268799901008606;-0.004879999905824661;1.150704026222229;0.0;0.0;0.0
1412;0.0058559998869895935;0.12809999287128448;1.00381600856781;0.1268799901008606;-0.01268799975514412;1.1175199747085571;-1.6362500190734863;2.218125104904175;5.805624961853027
1415;0.0;0.0;0.0;0.115167997777462;-0.004879999905824661;1.1380159854888916;0.0;0.0;0.0
1417;0.0;0.0;0.0;0.12297599762678146;-0.01268799975514412;1.1419199705123901;0.0;0.0;0.0
1419;0.0;0.0;0.0;0.13468798995018005;-0.024399999529123306;1.134112000465393;0.0;0.0;0.0
1421;0.004635999910533428;0.12297599762678146;1.0106480121612549;0.13468798995018005;-0.020495999604463577;1.1419199705123901;-3.036249876022339;0.8181250095367432;7.485625267028809
1423;0.0;0.0;0.0;0.14640000462532043;-0.032207999378442764;1.134112000465393;0.0;0.0;0.0
1425;0.0;0.0;0.0;0.14640000462532043;-0.028303999453783035;1.1419199705123901;0.0;0.0;0.0
1427;0.0;0.0;0.0;0.1424959897994995;-0.03611199930310249;1.1302080154418945;0.0;0.0;0.0
1430;0.013175999745726585;0.11370399594306946;1.0091840028762817;0.1424959897994995;-0.032207999378442764;1.122399926185608;-4.576250076293945;-0.16187499463558197;8.605624198913574
1432;0.0;0.0;0.0;0.15030398964881897;-0.028303999453783035;1.1302080154418945;0.0;0.0;0.0
1434;0.0;0.0;0.0;0.1542080044746399;-0.03611199930310249;1.134112000465393;0.0;0.0;0.0
1436;0.0;0.0;0.0;0.13078400492668152;-0.05172799900174141;1.1302080154418945;0.0;0.0;0.0
1438;0.022204000502824783;0.10369999706745148;1.0094280242919922;0.11907199770212173;-0.032207999378442764;1.1302080154418945;-6.536250114440918;0.8181250095367432;9.235624313354492
1440;0.0;0.0;0.0;0.12297599762678146;-0.06734399497509003;1.134112000465393;0.0;0.0;0.0
1442;0.0;0.0;0.0;0.11126399785280228;-0.0634399950504303;1.1380159854888916;0.0;0.0;0.0
1444;0.0;0.0;0.0;0.13468798995018005;-0.04782399907708168;1.1380159854888916;0.0;0.0;0.0
1446;0.007563999854028225;0.08515600115060806;1.0055240392684937;0.10735999792814255;-0.04001599922776222;1.134112000465393;-8.56624984741211;3.198125123977661;8.605624198913574
1449;0.0;0.0;0.0;0.10052800178527832;-0.07905599474906921;1.1175199747085571;0.0;0.0;0.0
1451;0.0;0.0;0.0;0.11907199770212173;-0.04001599922776222;1.126304030418396;0.0;0.0;0.0
1453;0.0;0.0;0.0;0.11907199770212173;-0.07124799489974976;1.1175199747085571;0.0;0.0;0.0
1455;-0.007807999849319458;0.07173600047826767;0.9969840049743652;0.11126399785280228;-0.05172799900174141;1.122399926185608;-9.896249771118164;4.598124980926514;6.925624847412109
1457;0.0;0.0;0.0;0.115167997777462;-0.05953599885106087;1.1302080154418945;0.0;0.0;0.0
1459;0.0;0.0;0.0;0.10735999792814255;-0.06734399497509003;1.134112000465393;0.0;0.0;0.0
1461;0.0;0.0;0.0;0.10443200170993805;-0.0634399950504303;1.1058080196380615;0.0;0.0;0.0
1463;-0.005367999896407127;0.06831999868154526;0.9928359985351562;0.115167997777462;-0.06734399497509003;1.10971200466156;-9.896249771118164;4.528125286102295;4.965624809265137
1466;0.0;0.0;0.0;0.11614400148391724;-0.07515199482440948;1.101904034614563;0.0;0.0;0.0
1468;0.0;0.0;0.0;0.115167997777462;-0.08686399459838867;1.1058080196380615;0.0;0.0;0.0
1470;0.0;0.0;0.0;0.12297599762678146;-0.05563199892640114;1.101904034614563;0.0;0.0;0.0
1472;-0.00634399987757206;0.0680759996175766;0.9833199977874756;0.12004800140857697;-0.06734399497509003;1.0892159938812256;-8.636249542236328;2.63812518119812;3.705625057220459
1474;0.0;0.0;0.0;0.10345599800348282;-0.08295999467372894;1.101904034614563;0.0;0.0;0.0
1476;0.0;0.0;0.0;0.115167997777462;-0.06734399497509003;1.0775039196014404;0.0;0.0;0.0
1478;0.0;0.0;0.0;0.11126399785280228;-0.07124799489974976;1.0687199831008911;0.0;0.0;0.0
1481;0.0024399999529123306;0.06856399774551392;0.9677039980888367;0.13859200477600098;-0.08686399459838867;1.097999930381775;-6.256249904632568;-0.37187498807907104;2.8656251430511475
1483;0.0;0.0;0.0;0.16591998934745789;-0.0634399950504303;1.0726239681243896;0.0;0.0;0.0
1485;0.0;0.0;0.0;0.15811198949813843;-0.04001599922776222;1.0814080238342285;0.0;0.0;0.0
1487;0.0;0.0;0.0;0.15030398964881897;-0.05953599885106087;1.0775039196014404;0.0;0.0;0.0
1489;0.024156000465154648;0.07515199482440948;0.9576999545097351;0.14640000462532043;-0.06734399497509003;1.0775039196014404;-3.036249876022339;-1.771875023841858;2.7256250381469727
1491;0.0;0.0;0.0;0.17372798919677734;-0.08686399459838867;1.0775039196014404;0.0;0.0;0.0
1493;0.0;0.0;0.0;0.17372798919677734;-0.08295999467372894;1.0775039196014404;0.0;0.0;0.0
1495;0.0;0.0;0.0;0.15030398964881897;-0.04391999915242195;1.0775039196014404;0.0;0.0;0.0
1498;0.03684400022029877;0.08125200122594833;0.9591639637947083;0.15811198949813843;-0.0634399950504303;1.10971200466156;0.4637500047683716;-1.3518750667572021;2.8656251430511475
1500;0.0;0.0;0.0;0.13859200477600098;-0.05563199892640114;1.0931199789047241;0.0;0.0;0.0
1502;0.0;0.0;0.0;0.13859200477600098;-0.032207999378442764;1.0892159938812256;0.0;0.0;0.0
1504;0.0;0.0;0.0;0.13859200477600098;-0.01659199967980385;1.10971200466156;0.0;0.0;0.0
1506;0.0226919986307621;0.08979199826717377;0.9781959652900696;0.1268799901008606;-0.04001599922776222;1.1058080196380615;2.423750162124634;-0.44187501072883606;2.7956249713897705
1508;0.0;0.0;0.0;0.09272000193595886;-0.04391999915242195;1.1067839860916138;0.0;0.0;0.0
1510;0.0;0.0;0.0;0.11907199770212173;-0.04001599922776222;1.1028800010681152;0.0;0.0;0.0
1512;0.0;0.0;0.0;0.12004800140857697;-0.05172799900174141;1.1145919561386108;0.0;0.0;0.0
1515;0.00024399999529123306;0.09272000193595886;0.990884006023407;0.10735999792814255;-0.04001599922776222;1.1302080154418945;1.933750033378601;-0.721875011920929;1.8156250715255737
1517;0.0;0.0;0.0;0.13078400492668152;-0.05953599885106087;1.126304030418396;0.0;0.0;0.0
1519;0.0;0.0;0.0;0.13078400492668152;-0.032207999378442764;1.1184959411621094;0.0;0.0;0.0
1521;0.0;0.0;0.0;0.11907199770212173;-0.04782399907708168;1.1145919561386108;0.0;0.0;0.0
1523;0.0007319999858736992;0.09027999639511108;0.9903959631919861;0.13859200477600098;-0.04391999915242195;1.0989760160446167;0.39375001192092896;-1.9818750619888306;0.27562499046325684
1525;0.0;0.0;0.0;0.11907199770212173;-0.05172799900174141;1.10971200466156;0.0;0.0;0.0
1527;0.0;0.0;0.0;0.09272000193595886;-0.05172799900174141;1.0814080238342285;0.0;0.0;0.0
1529;0.0;0.0;0.0;0.13468798995018005;-0.04782399907708168;1.0892159938812256;0.0;0.0;0.0
1532;0.00024399999529123306;0.08417999744415283;0.9781959652900696;0.1268799901008606;-0.04782399907708168;1.1136159896850586;-1.3562500476837158;-1.211875081062317;-1.6843750476837158
1534;0.0;0.0;0.0;0.13468798995018005;-0.05172799900174141;1.085312008857727;0.0;0.0;0.0
1536;0.0;0.0;0.0;0.11614400148391724;-0.024399999529123306;1.10971200466156;0.0;0.0;0.0
1538;0.0;0.0;0.0;0.10443200170993805;-0.05953599885106087;1.0814080238342285;0.0;0.0;0.0
1540;-0.0021959999576210976;0.0802759975194931;0.9642879962921143;0.10052800178527832;-0.05563199892640114;1.0931199789047241;-2.1262497901916504;1.3081250190734863;-3.7143750190734863
1542;0.0;0.0;0.0;0.09955199807882309;-0.04391999915242195;1.0892159938812256;0.0;0.0;0.0
1544;0.0;0.0;0.0;0.11224000155925751;-0.05563199892640114;1.0726239681243896;0.0;0.0;0.0
1546;0.0;0.0;0.0;0.11126399785280228;-0.05563199892640114;1.0931199789047241;0.0;0.0;0.0
1549;-0.011467999778687954;0.09418399631977081;0.9574559926986694;0.08100800216197968;-0.028303999453783035;1.0814080238342285;-2.40625;4.458125114440918;-5.674375057220459
1551;0.0;0.0;0.0;0.11907199770212173;-0.028303999453783035;1.085312008857727;0.0;0.0;0.0
1553;0.0;0.0;0.0;0.11614400148391724;-0.00878399983048439;1.0892159938812256;0.0;0.0;0.0
1555;0.0;0.0;0.0;0.11126399785280228;0.006831999868154526;1.1058080196380615;0.0;0.0;0.0
1557;-0.007075999863445759;0.11467999964952469;0.9677039980888367;0.14640000462532043;-0.028303999453783035;1.0892159938812256;-2.966249942779541;7.60812520980835;-6.724375247955322
1559;0.0;0.0;0.0;0.12297599762678146;-0.01268799975514412;1.0892159938812256;0.0;0.0;0.0
1561;0.0;0.0;0.0;0.11224000155925751;-0.004879999905824661;1.1136159896850586;0.0;0.0;0.0
1563;0.0;0.0;0.0;0.15030398964881897;-0.004879999905824661;1.122399926185608;0.0;0.0;0.0
1566;0.004879999905824661;0.12614800035953522;0.9823439717292786;0.11224000155925751;0.0029279999434947968;1.0892159938812256;-4.506249904632568;9.42812442779541;-5.464375019073486
1568;0.0;0.0;0.0;0.13078400492668152;0.0029279999434947968;1.1175199747085571;0.0;0.0;0.0
1570;0.0;0.0;0.0;0.115167997777462;-0.032207999378442764;1.122399926185608;0.0;0.0;0.0
1572;0.0;0.0;0.0;0.09564799815416336;-0.0009759999811649323;1.122399926185608;0.0;0.0;0.0
1574;-0.0017079999670386314;0.12590399384498596;0.9921039938926697;0.11907199770212173;-0.00878399983048439;1.126304030418396;-6.326250076293945;9.498125076293945;-3.1543750762939453
1576;0.0;0.0;0.0;0.10345599800348282;0.006831999868154526;1.126304030418396;0.0;0.0;0.0
1578;0.0;0.0;0.0;0.11907199770212173;-0.00878399983048439;1.1419199705123901;0.0;0.0;0.0
1580;0.0;0.0;0.0;0.11907199770212173;-0.04001599922776222;1.1175199747085571;0.0;0.0;0.0
1583;-0.010735999792814255;0.11882799863815308;1.0006439685821533;0.09272000193595886;-0.01659199967980385;1.146799921989441;-8.006250381469727;7.538125038146973;-0.9143750071525574
1585;0.0;0.0;0.0;0.10443200170993805;-0.020495999604463577;1.1302080154418945;0.0;0.0;0.0
1587;0.0;0.0;0.0;0.11907199770212173;-0.05563199892640114;1.126304030418396;0.0;0.0;0.0
1589;0.0;0.0;0.0;0.09662400186061859;-0.07905599474906921;1.122399926185608;0.0;0.0;0.0
1591;-0.012443999759852886;0.09467199444770813;0.9979599714279175;0.11224000155925751;-0.05563199892640114;1.1136159896850586;-8.8462495803833;3.5481250286102295;0.4856249988079071
1593;0.0;0.0;0.0;0.115167997777462;-0.06734399497509003;1.1058080196380615;0.0;0.0;0.0
1595;0.0;0.0;0.0;0.09955199807882309;-0.05563199892640114;1.10971200466156;0.0;0.0;0.0
1597;0.0;0.0;0.0;0.09955199807882309;-0.07515199482440948;1.1175199747085571;0.0;0.0;0.0
1600;0.0009759999811649323;0.06685599684715271;0.9833199977874756;0.12297599762678146;-0.07905599474906921;1.101904034614563;-7.726249694824219;-0.44187501072883606;1.5356249809265137
1602;0.0;0.0;0.0;0.13859200477600098;-0.04782399907708168;1.085312008857727;0.0;0.0;0.0
1604;0.0;0.0;0.0;0.1424959897994995;-0.0634399950504303;1.10971200466156;0.0;0.0;0.0
1606;0.0;0.0;0.0;0.13078400492668152;-0.05953599885106087;1.085312008857727;0.0;0.0;0.0
1608;0.015615999698638916;0.053679998964071274;0.9711199998855591;0.1268799901008606;-0.07124799489974976;1.085312008857727;-5.066249847412109;-1.9818750619888306;1.7456250190734863
1610;0.0;0.0;0.0;0.1424959897994995;-0.07905599474906921;1.0892159938812256;0.0;0.0;0.0
1612;0.0;0.0;0.0;0.15030398964881897;-0.10247999429702759;1.0775039196014404;0.0;0.0;0.0
1614;0.0;0.0;0.0;0.16591998934745789;-0.0634399950504303;1.101904034614563;0.0;0.0;0.0
1617;0.020495999604463577;0.047091998159885406;0.9657520055770874;0.16591998934745789;-0.07515199482440948;1.0970239639282227;-2.7562499046325684;-1.421875;1.4656250476837158
1619;0.0;0.0;0.0;0.1542080044746399;-0.09467199444770813;1.101904034614563;0.0;0.0;0.0
1621;0.0;0.0;0.0;0.1542080044746399;-0.08295999467372894;1.0775039196014404;0.0;0.0;0.0
1623;0.0;0.0;0.0;0.1424959897994995;-0.09467199444770813;1.1136159896850586;0.0;0.0;0.0
1625;0.023423999547958374;0.04416399821639061;0.966484010219574;0.1424959897994995;-0.09857599437236786;1.0931199789047241;-0.3062500059604645;0.398125022649765;1.3256250619888306
1627;0.0;0.0;0.0;0.11907199770212173;-0.07515199482440948;1.1058080196380615;0.0;0.0;0.0
1629;0.0;0.0;0.0;0.12297599762678146;-0.08295999467372894;1.0931199789047241;0.0;0.0;0.0
1631;0.0;0.0;0.0;0.115167997777462;-0.08686399459838867;1.1175199747085571;0.0;0.0;0.0
1634;0.008051999844610691;0.051239997148513794;0.9786840081214905;0.1268799901008606;-0.06734399497509003;1.1175199747085571;2.0037500858306885;2.148125171661377;1.115625023841858
1636;0.0;0.0;0.0;0.11126399785280228;-0.08295999467372894;1.101904034614563;0.0;0.0;0.0
1638;0.0;0.0;0.0;0.11907199770212173;-0.04782399907708168;1.1175199747085571;0.0;0.0;0.0
1640;0.0;0.0;0.0;0.09272000193595886;-0.07905599474906921;1.1302080154418945;0.0;0.0;0.0
1642;-0.01781199872493744;0.07588399946689606;0.9991799592971802;0.10052800178527832;-0.05172799900174141;1.150704026222229;2.913750171661377;3.0581250190734863;-0.07437500357627869
1644;0.0;0.0;0.0;0.10345599800348282;-0.04782399907708168;1.134112000465393;0.0;0.0;0.0
1646;0.0;0.0;0.0;0.06539200246334076;-0.028303999453783035;1.158511996269226;0.0;0.0;0.0
1648;0.0;0.0;0.0;0.08881600201129913;-0.032207999378442764;1.1663199663162231;0.0;0.0;0.0
1651;-0.03245199844241142;0.1000399962067604;1.018455982208252;0.09272000193595886;-0.024399999529123306;1.150704026222229;1.3037500381469727;2.778125047683716;-0.984375
1653;0.0;0.0;0.0;0.09564799815416336;-0.01659199967980385;1.158511996269226;0.0;0.0;0.0
1655;0.0;0.0;0.0;0.0849120020866394;-0.004879999905824661;1.1380159854888916;0.0;0.0;0.0
1657;0.0;0.0;0.0;0.09955199807882309;-0.03611199930310249;1.1663199663162231;0.0;0.0;0.0
1659;-0.029767999425530434;0.1180959939956665;1.0330959558486938;0.053679998964071274;-0.024399999529123306;1.1712000370025635;-1.4262499809265137;1.238124966621399;-1.4743750095367432
1661;0.0;0.0;0.0;0.09955199807882309;-0.00878399983048439;1.1546080112457275;0.0;0.0;0.0
1663;0.0;0.0;0.0;0.10443200170993805;0.010735999792814255;1.1419199705123901;0.0;0.0;0.0
1665;0.0;0.0;0.0;0.09272000193595886;-0.004879999905824661;1.175104022026062;0.0;0.0;0.0
1668;-0.022935999557375908;0.12321999669075012;1.030411958694458;0.08393599838018417;-0.004879999905824661;1.1419199705123901;-4.15625;0.6781249642372131;-2.3843750953674316
1670;0.0;0.0;0.0;0.10833600163459778;0.0029279999434947968;1.1624159812927246;0.0;0.0;0.0
1672;0.0;0.0;0.0;0.10052800178527832;0.0029279999434947968;1.150704026222229;0.0;0.0;0.0
1674;0.0;0.0;0.0;0.115167997777462;-0.004879999905824661;1.175104022026062;0.0;0.0;0.0
1676;-0.01781199872493744;0.12785600125789642;1.0287039279937744;0.13468798995018005;-0.020495999604463577;1.1702239513397217;-6.186249732971191;0.6081249713897705;-1.6843750476837158
1678;0.0;0.0;0.0;0.11224000155925751;-0.024399999529123306;1.150704026222229;0.0;0.0;0.0
1680;0.0;0.0;0.0;0.09662400186061859;-0.020495999604463577;1.150704026222229;0.0;0.0;0.0
1682;0.0;0.0;0.0;0.11126399785280228;-0.01268799975514412;1.1302080154418945;0.0;0.0;0.0
1685;-0.015615999698638916;0.12053599953651428;1.0213840007781982;0.12297599762678146;-0.020495999604463577;1.150704026222229;-8.636249542236328;-0.02187499962747097;0.13562500476837158
1687;0.0;0.0;0.0;0.10735999792814255;-0.04391999915242195;1.1175199747085571;0.0;0.0;0.0
1689;0.0;0.0;0.0;0.10833600163459778;-0.032207999378442764;1.097999930381775;0.0;0.0;0.0
1691;0.0;0.0;0.0;0.11126399785280228;-0.04001599922776222;1.0970239639282227;0.0;0.0;0.0
1693;-0.013663999736309052;0.11077599972486496;1.0003999471664429;0.09662400186061859;-0.032207999378442764;1.1058080196380615;-10.176249504089355;-1.211875081062317;2.025624990463257
1695;0.0;0.0;0.0;0.10443200170993805;-0.028303999453783035;1.1058080196380615;0.0;0.0;0.0
1697;0.0;0.0;0.0;0.0849120020866394;-0.028303999453783035;1.0892159938812256;0.0;0.0;0.0
1700;0.0;0.0;0.0;0.115167997777462;-0.01268799975514412;1.10971200466156;0.0;0.0;0.0
1702;-0.010491999797523022;0.09711199998855591;0.9864919781684875;0.115167997777462;-0.04001599922776222;1.085312008857727;-9.966249465942383;-2.1218748092651367;3.2856249809265137
1704;0.0;0.0;0.0;0.11126399785280228;-0.04391999915242195;1.085312008857727;0.0;0.0;0.0
1706;0.0;0.0;0.0;0.11126399785280228;-0.04001599922776222;1.126304030418396;0.0;0.0;0.0
1708;0.0;0.0;0.0;0.08881600201129913;-0.07515199482440948;1.101904034614563;0.0;0.0;0.0
1710;-0.007807999849319458;0.08588799834251404;0.9767319560050964;0.1268799901008606;-0.05563199892640114;1.1136159896850586;-8.076250076293945;-2.9618749618530273;3.9856250286102295
1712;0.0;0.0;0.0;0.13078400492668152;-0.04782399907708168;1.1058080196380615;0.0;0.0;0.0
1714;0.0;0.0;0.0;0.115167997777462;-0.07124799489974976;1.1175199747085571;0.0;0.0;0.0
1717;0.0;0.0;0.0;0.1268799901008606;-0.05563199892640114;1.0931199789047241;0.0;0.0;0.0
1719;-0.0009759999811649323;0.07320000231266022;0.974291980266571;0.13468798995018005;-0.05563199892640114;1.1136159896850586;-5.276249885559082;-3.171875;4.055624961853027
1721;0.0;0.0;0.0;0.115167997777462;-0.06734399497509003;1.122399926185608;0.0;0.0;0.0
1723;0.0;0.0;0.0;0.10052800178527832;-0.09467199444770813;1.1175199747085571;0.0;0.0;0.0
1725;0.0;0.0;0.0;0.10833600163459778;-0.07124799489974976;1.1136159896850586;0.0;0.0;0.0
1727;-0.00317199993878603;0.06465999782085419;0.9796599745750427;0.09955199807882309;-0.10638399422168732;1.1136159896850586;-2.476249933242798;-2.7518749237060547;3.9856250286102295
1729;0.0;0.0;0.0;0.08881600201129913;-0.0634399950504303;1.1136159896850586;0.0;0.0;0.0
1731;0.0;0.0;0.0;0.115167997777462;-0.08295999467372894;1.101904034614563;0.0;0.0;0.0
1734;0.0;0.0;0.0;0.10833600163459778;-0.06734399497509003;1.122399926185608;0.0;0.0;0.0
1736;-0.018300000578165054;0.05709599703550339;0.9828319549560547;0.09272000193595886;-0.09857599437236786;1.10971200466156;0.04374999925494194;-3.3818750381469727;3.145625114440918
1738;0.0;0.0;0.0;0.09564799815416336;-0.09467199444770813;1.10971200466156;0.0;0.0;0.0
1740;0.0;0.0;0.0;0.07710400223731995;-0.07515199482440948;1.101904034614563;0.0;0.0;0.0
1742;0.0;0.0;0.0;0.10052800178527832;-0.08295999467372894;1.097999930381775;0.0;0.0;0.0
1744;-0.02537599951028824;0.06002400070428848;0.9794159531593323;0.11907199770212173;-0.0907679945230484;1.101904034614563;2.213750123977661;-4.361875057220459;1.6756250858306885
1746;0.0;0.0;0.0;0.10345599800348282;-0.05953599885106087;1.1136159896850586;0.0;0.0;0.0
1748;0.0;0.0;0.0;0.09662400186061859;-0.04782399907708168;1.101904034614563;0.0;0.0;0.0
1751;0.0;0.0;0.0;0.10052800178527832;-0.07124799489974976;1.1058080196380615;0.0;0.0;0.0
1753;-0.02537599951028824;0.07149200141429901;0.9750239849090576;0.09662400186061859;-0.05953599885106087;1.0892159938812256;3.6837501525878906;-5.341875076293945;0.2056250125169754
1755;0.0;0.0;0.0;0.0849120020866394;-0.04001599922776222;1.101904034614563;0.0;0.0;0.0
1757;0.0;0.0;0.0;0.10345599800348282;-0.04782399907708168;1.0775039196014404;0.0;0.0;0.0
1759;0.0;0.0;0.0;0.09662400186061859;-0.01268799975514412;1.097999930381775;0.0;0.0;0.0
1761;-0.03171999752521515;0.08881600201129913;0.9689239859580994;0.11126399785280228;-0.032207999378442764;1.0892159938812256;4.103750228881836;-6.181874752044678;-1.4743750095367432
1763;0.0;0.0;0.0;0.0849120020866394;-0.0634399950504303;1.085312008857727;0.0;0.0;0.0
1765;0.0;0.0;0.0;0.09272000193595886;-0.01659199967980385;1.1175199747085571;0.0;0.0;0.0
1768;0.0;0.0;0.0;0.10052800178527832;-0.04782399907708168;1.073599934577942;0.0;0.0;0.0
1770;-0.023180000483989716;0.09393999725580215;0.965507984161377;0.10443200170993805;-0.04001599922776222;1.0775039196014404;3.6837501525878906;-8.001874923706055;-2.874375104904175
1772;0.0;0.0;0.0;0.115167997777462;-0.03611199930310249;1.0892159938812256;0.0;0.0;0.0
1774;0.0;0.0;0.0;0.12297599762678146;-0.06734399497509003;1.0775039196014404;0.0;0.0;0.0
1776;0.0;0.0;0.0;0.11907199770212173;-0.032207999378442764;1.0931199789047241;0.0;0.0;0.0
1778;0.0;0.09516000002622604;0.9501360058784485;0.1268799901008606;-0.04391999915242195;1.0726239681243896;3.40375018119812;-9.191875457763672;-2.4543750286102295
1780;0.0;0.0;0.0;0.13078400492668152;-0.04001599922776222;1.0814080238342285;0.0;0.0;0.0
1782;0.0;0.0;0.0;0.15030398964881897;-0.05563199892640114;1.060912013053894;0.0;0.0;0.0
1785;0.0;0.0;0.0;0.13468798995018005;-0.028303999453783035;1.060912013053894;0.0;0.0;0.0
1787;0.00878399983048439;0.09882000088691711;0.9401319622993469;0.15030398964881897;-0.020495999604463577;1.0570080280303955;4.033750057220459;-7.441874980926514;-1.6143749952316284
1789;0.0;0.0;0.0;0.10833600163459778;-0.01659199967980385;1.085312008857727;0.0;0.0;0.0
1791;0.0;0.0;0.0;0.13859200477600098;-0.00878399983048439;1.0648159980773926;0.0;0.0;0.0
1793;0.0;0.0;0.0;0.10052800178527832;0.0029279999434947968;1.0687199831008911;0.0;0.0;0.0
1795;0.0014639999717473984;0.11980399489402771;0.9469639658927917;0.13078400492668152;-0.0009759999811649323;1.0648159980773926;4.033750057220459;-3.801874876022339;-2.5243749618530273
1797;0.0;0.0;0.0;0.09272000193595886;0.03806399926543236;1.0775039196014404;0.0;0.0;0.0
1799;0.0;0.0;0.0;0.1268799901008606;0.014639999717473984;1.097999930381775;0.0;0.0;0.0
1802;0.0;0.0;0.0;0.13859200477600098;0.006831999868154526;1.0892159938812256;0.0;0.0;0.0
1804;0.0017079999670386314;0.1449359953403473;0.9657520055770874;0.11126399785280228;0.022447999566793442;1.1175199747085571;2.4937500953674316;-0.861875057220459;-2.9443750381469727
1806;0.0;0.0;0.0;0.13078400492668152;0.018543999642133713;1.122399926185608;0.0;0.0;0.0
1808;0.0;0.0;0.0;0.12297599762678146;0.0302559994161129;1.0931199789047241;0.0;0.0;0.0
1810;0.0;0.0;0.0;0.13859200477600098;0.03806399926543236;1.1302080154418945;0.0;0.0;0.0
1812;0.01634800061583519;0.16250400245189667;0.9879559874534607;0.16201600432395935;0.0302559994161129;1.1136159896850586;-1.006250023841858;-0.2318750023841858;-0.6343749761581421
1814;0.0;0.0;0.0;0.15030398964881897;0.006831999868154526;1.1175199747085571;0.0;0.0;0.0
1816;0.0;0.0;0.0;0.15811198949813843;0.022447999566793442;1.126304030418396;0.0;0.0;0.0
1819;0.0;0.0;0.0;0.13859200477600098;0.006831999868154526;1.134112000465393;0.0;0.0;0.0
1821;0.024399999529123306;0.15640400350093842;0.9989359974861145;0.16591998934745789;0.022447999566793442;1.1136159896850586;-5.62624979019165;-0.6518750190734863;3.635625123977661
1823;0.0;0.0;0.0;0.13859200477600098;0.0029279999434947968;1.134112000465393;0.0;0.0;0.0
1825;0.0;0.0;0.0;0.1424959897994995;-0.01659199967980385;1.126304030418396;0.0;0.0;0.0
1827;0.0;0.0;0.0;0.11126399785280228;-0.004879999905824661;1.1136159896850586;0.0;0.0;0.0
1829;0.01195599976927042;0.12785600125789642;0.9891759753227234;0.12297599762678146;-0.01268799975514412;1.1175199747085571;-9.966249465942383;-0.6518750190734863;7.135624885559082
1831;0.0;0.0;0.0;0.10735999792814255;-0.00878399983048439;1.085312008857727;0.0;0.0;0.0
1833;0.0;0.0;0.0;0.13859200477600098;-0.04001599922776222;1.101904034614563;0.0;0.0;0.0
1836;0.0;0.0;0.0;0.1268799901008606;-0.05953599885106087;1.0931199789047241;0.0;0.0;0.0
1838;-0.004879999905824661;0.08979199826717377;0.9667279720306396;0.09272000193595886;-0.06734399497509003;1.0648159980773926;-12.06624984741211;-0.6518750190734863;8.325624465942383
1840;0.0;0.0;0.0;0.13468798995018005;-0.0634399950504303;1.0814080238342285;0.0;0.0;0.0
1842;0.0;0.0;0.0;0.11907199770212173;-0.07905599474906921;1.0814080238342285;0.0;0.0;0.0
1844;0.0;0.0;0.0;0.11126399785280228;-0.10247999429702759;1.060912013053894;0.0;0.0;0.0
1846;-0.010735999792814255;0.05270399898290634;0.9459879994392395;0.11907199770212173;-0.12199999392032623;1.0648159980773926;-11.786250114440918;-0.721875011920929;7.835625171661377
1848;0.0;0.0;0.0;0.11907199770212173;-0.09857599437236786;1.044319987297058;0.0;0.0;0.0
1850;0.0;0.0;0.0;0.13078400492668152;-0.1180959939956665;1.0648159980773926;0.0;0.0;0.0
1853;0.0;0.0;0.0;0.12004800140857697;-0.09857599437236786;1.036512017250061;0.0;0.0;0.0
1855;-0.010247999802231789;0.025619998574256897;0.9271999597549438;0.1268799901008606;-0.11028799414634705;1.044319987297058;-9.476249694824219;-0.44187501072883606;6.995625019073486
1857;0.0;0.0;0.0;0.10443200170993805;-0.11028799414634705;1.0287039279937744;0.0;0.0;0.0
1859;0.0;0.0;0.0;0.11907199770212173;-0.09857599437236786;1.0482239723205566;0.0;0.0;0.0
1861;0.0;0.0;0.0;0.115167997777462;-0.11419199407100677;1.0531039237976074;0.0;0.0;0.0
1863;-0.015371999703347683;0.01634800061583519;0.9225639700889587;0.10052800178527832;-0.10247999429702759;1.0404160022735596;-5.90625;-0.02187499962747097;7.345624923706055
1866;0.0;0.0;0.0;0.11126399785280228;-0.13761599361896515;1.0570080280303955;0.0;0.0;0.0
1868;0.0;0.0;0.0;0.11126399785280228;-0.10638399422168732;1.0687199831008911;0.0;0.0;0.0
1870;0.0;0.0;0.0;0.13078400492668152;-0.14151999354362488;1.0687199831008911;0.0;0.0;0.0
1872;-0.008295999839901924;0.01903199963271618;0.9318360090255737;0.1268799901008606;-0.1180959939956665;1.060912013053894;-2.40625;0.048124998807907104;7.415625095367432
1874;0.0;0.0;0.0;0.12297599762678146;-0.10638399422168732;1.0775039196014404;0.0;0.0;0.0
1876;0.0;0.0;0.0;0.10735999792814255;-0.10247999429702759;1.0814080238342285;0.0;0.0;0.0
1878;0.0;0.0;0.0;0.10443200170993805;-0.0907679945230484;1.085312008857727;0.0;0.0;0.0
1880;-0.003415999934077263;0.0348920002579689;0.9494040012359619;0.13078400492668152;-0.09857599437236786;1.0687199831008911;0.2537499964237213;0.6081249713897705;7.065625190734863
1882;0.0;0.0;0.0;0.10443200170993805;-0.08295999467372894;1.101904034614563;0.0;0.0;0.0
1885;0.0;0.0;0.0;0.1268799901008606;-0.0907679945230484;1.1136159896850586;0.0;0.0;0.0
1887;0.0;0.0;0.0;0.10052800178527832;-0.08295999467372894;1.122399926185608;0.0;0.0;0.0
1889;-0.00951599981635809;0.05026400089263916;0.9740479588508606;0.11126399785280228;-0.06734399497509003;1.10971200466156;0.8137500286102295;0.398125022649765;6.29562520980835
1891;0.0;0.0;0.0;0.10735999792814255;-0.10638399422168732;1.122399926185608;0.0;0.0;0.0
1893;0.0;0.0;0.0;0.11907199770212173;-0.08686399459838867;1.1136159896850586;0.0;0.0;0.0
1895;0.0;0.0;0.0;0.09272000193595886;-0.09857599437236786;1.097999930381775;0.0;0.0;0.0
1897;-0.007807999849319458;0.049531999975442886;0.9903959631919861;0.14640000462532043;-0.0907679945230484;1.134112000465393;-1.006250023841858;-0.5818750262260437;5.105625152587891
1899;0.0;0.0;0.0;0.1424959897994995;-0.0907679945230484;1.134112000465393;0.0;0.0;0.0
1902;0.0;0.0;0.0;0.13468798995018005;-0.0907679945230484;1.122399926185608;0.0;0.0;0.0
1904;0.0;0.0;0.0;0.10735999792814255;-0.09467199444770813;1.134112000465393;0.0;0.0;0.0
1906;0.007563999854028225;0.037087999284267426;1.002351999282837;0.15030398964881897;-0.11419199407100677;1.1302080154418945;-4.786250114440918;-1.2818750143051147;4.125625133514404
1908;0.0;0.0;0.0;0.17372798919677734;-0.12199999392032623;1.126304030418396;0.0;0.0;0.0
1910;0.0;0.0;0.0;0.13468798995018005;-0.08686399459838867;1.1380159854888916;0.0;0.0;0.0
1912;0.0;0.0;0.0;0.12297599762678146;-0.14151999354362488;1.101904034614563;0.0;0.0;0.0
1914;0.02659599855542183;0.013907999731600285;0.9984479546546936;0.15811198949813843;-0.1454239934682846;1.101904034614563;-10.036250114440918;-1.5618749856948853;5.175624847412109
1917;0.0;0.0;0.0;0.1424959897994995;-0.17665599286556244;1.1175199747085571;0.0;0.0;0.0
1919;0.0;0.0;0.0;0.16201600432395935;-0.1727519929409027;1.0892159938812256;0.0;0.0;0.0
1921;0.0;0.0;0.0;0.1542080044746399;-0.1727519929409027;1.10971200466156;0.0;0.0;0.0
1923;0.04294399917125702;-0.03001200035214424;0.9779520034790039;0.17763200402259827;-0.19227199256420135;1.10971200466156;-13.886249542236328;-1.421875;7.485625267028809
1925;0.0;0.0;0.0;0.18544000387191772;-0.19617599248886108;1.0775039196014404;0.0;0.0;0.0
1927;0.0;0.0;0.0;0.1698240041732788;-0.1844639927148819;1.0814080238342285;0.0;0.0;0.0
1929;0.0;0.0;0.0;0.15030398964881897;-0.19617599248886108;1.073599934577942;0.0;0.0;0.0
1931;0.05270399898290634;-0.05563199892640114;0.9625799655914307;0.17372798919677734;-0.18836799263954163;1.097999930381775;-14.516249656677246;0.7481249570846558;7.625625133514404
1934;0.0;0.0;0.0;0.1815359890460968;-0.19617599248886108;1.0814080238342285;0.0;0.0;0.0
1936;0.0;0.0;0.0;0.1698240041732788;-0.2000799924135208;1.101904034614563;0.0;0.0;0.0
1938;0.0;0.0;0.0;0.15811198949813843;-0.21569599211215973;1.101904034614563;0.0;0.0;0.0
1940;0.051239997148513794;-0.07320000231266022;0.966484010219574;0.16201600432395935;-0.22740799188613892;1.101904034614563;-12.416250228881836;3.758125066757202;6.435625076293945
1942;0.0;0.0;0.0;0.16591998934745789;-0.2235039919614792;1.10971200466156;0.0;0.0;0.0
1944;0.0;0.0;0.0;0.15811198949813843;-0.1844639927148819;1.1175199747085571;0.0;0.0;0.0
1946;0.0;0.0;0.0;0.17372798919677734;-0.20788799226284027;1.122399926185608;0.0;0.0;0.0
1948;0.04928799718618393;-0.07393199950456619;0.9933239817619324;0.1815359890460968;-0.21959999203681946;1.1302080154418945;-10.176249504089355;4.318125247955322;5.035624980926514
1951;0.0;0.0;0.0;0.17763200402259827;-0.20788799226284027;1.146799921989441;0.0;0.0;0.0
1953;0.0;0.0;0.0;0.16591998934745789;-0.21569599211215973;1.158511996269226;0.0;0.0;0.0
1955;0.0;0.0;0.0;0.17372798919677734;-0.2235039919614792;1.1302080154418945;0.0;0.0;0.0
1957;0.058803997933864594;-0.08100800216197968;1.0174800157546997;0.20105600357055664;-0.2117919921875;1.1546080112457275;-9.266249656677246;2.8481252193450928;4.335625171661377
1959;0.0;0.0;0.0;0.20105600357055664;-0.19617599248886108;1.158511996269226;0.0;0.0;0.0
1961;0.0;0.0;0.0;0.18544000387191772;-0.2117919921875;1.146799921989441;0.0;0.0;0.0
1963;0.0;0.0;0.0;0.16201600432395935;-0.2117919921875;1.158511996269226;0.0;0.0;0.0
1965;0.062463998794555664;-0.08710800111293793;1.0316319465637207;0.17763200402259827;-0.23131199181079865;1.1624159812927246;-8.706250190734863;1.3781249523162842;3.2856249809265137
1967;0.0;0.0;0.0;0.18934398889541626;-0.21569599211215973;1.1790080070495605;0.0;0.0;0.0
1970;0.0;0.0;0.0;0.1815359890460968;-0.2117919921875;1.1790080070495605;0.0;0.0;0.0
1972;0.0;0.0;0.0;0.16201600432395935;-0.21569599211215973;1.1546080112457275;0.0;0.0;0.0
1974;0.05441199988126755;-0.0849120020866394;1.0355359315872192;0.1698240041732788;-0.23131199181079865;1.150704026222229;-8.146249771118164;0.18812501430511475;1.5356249809265137
1976;0.0;0.0;0.0;0.15030398964881897;-0.20398399233818054;1.1790080070495605;0.0;0.0;0.0
1978;0.0;0.0;0.0;0.17763200402259827;-0.20788799226284027;1.1663199663162231;0.0;0.0;0.0
1980;0.0;0.0;0.0;0.1815359890460968;-0.20788799226284027;1.182911992073059;0.0;0.0;0.0
1982;0.05026400089263916;-0.0785679966211319;1.0306559801101685;0.17763200402259827;-0.2117919921875;1.150704026222229;-8.146249771118164;-1.9118750095367432;-0.07437500357627869
1985;0.0;0.0;0.0;0.19324800372123718;-0.21569599211215973;1.122399926185608;0.0;0.0;0.0
1987;0.0;0.0;0.0;0.17763200402259827;-0.21959999203681946;1.134112000465393;0.0;0.0;0.0
1989;0.0;0.0;0.0;0.18934398889541626;-0.23131199181079865;1.134112000465393;0.0;0.0;0.0
1991;0.06124399974942207;-0.07832399755716324;1.0133320093154907;0.18934398889541626;-0.2117919921875;1.1175199747085571;-7.516250133514404;-4.64187479019165;-1.4043749570846558
1993;0.0;0.0;0.0;0.18934398889541626;-0.19227199256420135;1.10971200466156;0.0;0.0;0.0
1995;0.0;0.0;0.0;0.2088640034198761;-0.20788799226284027;1.134112000465393;0.0;0.0;0.0
1997;0.0;0.0;0.0;0.18544000387191772;-0.23521599173545837;1.0931199789047241;0.0;0.0;0.0
1999;0.08417999744415283;-0.07368800044059753;0.9882000088691711;0.2088640034198761;-0.21959999203681946;1.1175199747085571;-5.276249885559082;-4.64187479019165;-2.804374933242798
2002;0.0;0.0;0.0;0.2088640034198761;-0.2117919921875;1.10971200466156;0.0;0.0;0.0
2004;0.0;0.0;0.0;0.2088640034198761;-0.20398399233818054;1.0931199789047241;0.0;0.0;0.0
2006;0.0;0.0;0.0;0.22448000311851501;-0.2117919921875;1.0775039196014404;0.0;0.0;0.0
2008;0.09613599628210068;-0.06075599789619446;0.9747799634933472;0.23228800296783447;-0.18836799263954163;1.097999930381775;-1.6362500190734863;-0.7918750047683716;-3.994374990463257
2010;0.0;0.0;0.0;0.22448000311851501;-0.20788799226284027;1.1058080196380615;0.0;0.0;0.0
2012;0.0;0.0;0.0;0.2205759882926941;-0.16494399309158325;1.10971200466156;0.0;0.0;0.0
2014;0.0;0.0;0.0;0.2518079876899719;-0.18055999279022217;1.0814080238342285;0.0;0.0;0.0
2016;0.09467199444770813;-0.048555999994277954;0.9684360027313232;0.20495998859405518;-0.1844639927148819;1.1136159896850586;3.0537500381469727;4.808125019073486;-4.484375
2019;0.0;0.0;0.0;0.18934398889541626;-0.16494399309158325;1.1136159896850586;0.0;0.0;0.0
2021;0.0;0.0;0.0;0.2088640034198761;-0.20398399233818054;1.10971200466156;0.0;0.0;0.0
2023;0.0;0.0;0.0;0.1815359890460968;-0.1844639927148819;1.0931199789047241;0.0;0.0;0.0
2025;0.07490799576044083;-0.03855200111865997;0.9808799624443054;0.1698240041732788;-0.17665599286556244;1.1175199747085571;8.6537504196167;9.638124465942383;-4.484375
2027;0.0;0.0;0.0;0.2088640034198761;-0.1727519929409027;1.126304030418396;0.0;0.0;0.0
2029;0.0;0.0;0.0;0.1698240041732788;-0.16103999316692352;1.134112000465393;0.0;0.0;0.0
2031;0.0;0.0;0.0;0.13859200477600098;-0.17665599286556244;1.1663199663162231;0.0;0.0;0.0
2033;0.03928399831056595;-0.02781599946320057;1.014307975769043;0.12297599762678146;-0.16494399309158325;1.1712000370025635;13.553750038146973;11.73812484741211;-4.274374961853027
2036;0.0;0.0;0.0;0.13468798995018005;-0.14932799339294434;1.1663199663162231;0.0;0.0;0.0
2038;0.0;0.0;0.0;0.11126399785280228;-0.13371199369430542;1.1907199621200562;0.0;0.0;0.0
2040;0.0;0.0;0.0;0.14640000462532043;-0.12590399384498596;1.199504017829895;0.0;0.0;0.0
2042;0.00878399983048439;-0.010735999792814255;1.0557879209518433;0.11126399785280228;-0.1298079937696457;1.1907199621200562;16.073749542236328;10.128124237060547;-3.994374990463257
2044;0.0;0.0;0.0;0.12297599762678146;-0.1180959939956665;1.2112159729003906;0.0;0.0;0.0
2046;0.0;0.0;0.0;0.10345599800348282;-0.12199999392032623;1.2034080028533936;0.0;0.0;0.0
2048;0.0;0.0;0.0;0.10052800178527832;-0.12590399384498596;1.1946239471435547;0.0;0.0;0.0
2050;-0.016103999689221382;0.01195599976927042;1.0804319381713867;0.10052800178527832;-0.1298079937696457;1.2034080028533936;15.443750381469727;5.928124904632568;-4.134375095367432
2053;0.0;0.0;0.0;0.09662400186061859;-0.10247999429702759;1.2190239429473877;0.0;0.0;0.0
2055;0.0;0.0;0.0;0.12297599762678146;-0.09467199444770813;1.2112159729003906;0.0;0.0;0.0
2057;0.0;0.0;0.0;0.115167997777462;-0.12199999392032623;1.2151199579238892;0.0;0.0;0.0
2059;-0.016835998743772507;0.032207999378442764;1.0906800031661987;0.11614400148391724;-0.08295999467372894;1.199504017829895;11.733750343322754;1.728124976158142;-4.76437520980835
2061;0.0;0.0;0.0;0.11907199770212173;-0.08295999467372894;1.2151199579238892;0.0;0.0;0.0
2063;0.0;0.0;0.0;0.10443200170993805;-0.08295999467372894;1.231711983680725;0.0;0.0;0.0
2065;0.0;0.0;0.0;0.11907199770212173;-0.09467199444770813;1.2112159729003906;0.0;0.0;0.0
2067;-0.007563999854028225;0.05441199988126755;1.079211950302124;0.12297599762678146;-0.06734399497509003;1.2034080028533936;5.923749923706055;-0.02187499962747097;-5.744375228881836
2070;0.0;0.0;0.0;0.13078400492668152;-0.06734399497509003;1.1702239513397217;0.0;0.0;0.0
2072;0.0;0.0;0.0;0.13859200477600098;-0.05953599885106087;1.199504017829895;0.0;0.0;0.0
2074;0.0;0.0;0.0;0.15030398964881897;-0.05172799900174141;1.1790080070495605;0.0;0.0;0.0
2076;0.004391999915242195;0.07320000231266022;1.055299997329712;0.1268799901008606;-0.04001599922776222;1.175104022026062;0.2537499964237213;1.0281249284744263;-7.144374847412109
2078;0.0;0.0;0.0;0.1542080044746399;-0.05563199892640114;1.1790080070495605;0.0;0.0;0.0
2080;0.0;0.0;0.0;0.13078400492668152;-0.04001599922776222;1.1624159812927246;0.0;0.0;0.0
2082;0.0;0.0;0.0;0.1268799901008606;-0.05953599885106087;1.1419199705123901;0.0;0.0;0.0
2084;0.007807999849319458;0.08247199654579163;1.034559965133667;0.115167997777462;-0.04001599922776222;1.1624159812927246;-3.59624981880188;3.6881251335144043;-7.774374961853027
2087;0.0;0.0;0.0;0.09272000193595886;-0.028303999453783035;1.158511996269226;0.0;0.0;0.0
2089;0.0;0.0;0.0;0.10052800178527832;-0.05172799900174141;1.1546080112457275;0.0;0.0;0.0
2091;0.0;0.0;0.0;0.09662400186061859;-0.04001599922776222;1.1546080112457275;0.0;0.0;0.0
2093;-0.006099999882280827;0.08832799643278122;1.0223599672317505;0.09662400186061859;-0.024399999529123306;1.1458239555358887;-5.136250019073486;6.278125286102295;-7.914374828338623
2095;0.0;0.0;0.0;0.0878399983048439;-0.05953599885106087;1.126304030418396;0.0;0.0;0.0
2097;0.0;0.0;0.0;0.08881600201129913;-0.07124799489974976;1.158511996269226;0.0;0.0;0.0
2099;0.0;0.0;0.0;0.07710400223731995;-0.05172799900174141;1.1380159854888916;0.0;0.0;0.0
2101;-0.02025200054049492;0.0832040011882782;1.0187000036239624;0.11126399785280228;-0.05563199892640114;1.146799921989441;-5.276249885559082;6.838125228881836;-7.354374885559082
2104;0.0;0.0;0.0;0.08100800216197968;-0.07515199482440948;1.1546080112457275;0.0;0.0;0.0
2106;0.0;0.0;0.0;0.09272000193595886;-0.06734399497509003;1.126304030418396;0.0;0.0;0.0
2108;0.0;0.0;0.0;0.11224000155925751;-0.05563199892640114;1.134112000465393;0.0;0.0;0.0
2110;-0.031964000314474106;0.06734399497509003;1.0113799571990967;0.10443200170993805;-0.07515199482440948;1.1175199747085571;-4.506249904632568;4.388124942779541;-6.51437520980835
2112;0.0;0.0;0.0;0.0849120020866394;-0.05953599885106087;1.1175199747085571;0.0;0.0;0.0
2114;0.0;0.0;0.0;0.09662400186061859;-0.0907679945230484;1.134112000465393;0.0;0.0;0.0
2116;0.0;0.0;0.0;0.09662400186061859;-0.07124799489974976;1.1175199747085571;0.0;0.0;0.0
2118;-0.028303999453783035;0.046115998178720474;0.9991799592971802;0.11126399785280228;-0.0634399950504303;1.097999930381775;-2.6162497997283936;-0.09187500178813934;-5.744375228881836
2121;0.0;0.0;0.0;0.115167997777462;-0.10247999429702759;1.134112000465393;0.0;0.0;0.0
2123;0.0;0.0;0.0;0.08881600201129913;-0.10247999429702759;1.085312008857727;0.0;0.0;0.0
2125;0.0;0.0;0.0;0.09955199807882309;-0.10638399422168732;1.101904034614563;0.0;0.0;0.0
2127;-0.0287919994443655;0.03513599932193756;0.9806360006332397;0.0878399983048439;-0.10247999429702759;1.085312008857727;0.32374998927116394;-4.571875095367432;-4.414374828338623
2129;0.0;0.0;0.0;0.10052800178527832;-0.11419199407100677;1.0775039196014404;0.0;0.0;0.0
2131;0.0;0.0;0.0;0.0849120020866394;-0.09467199444770813;1.122399926185608;0.0;0.0;0.0
2133;0.0;0.0;0.0;0.0849120020866394;-0.07124799489974976;1.10971200466156;0.0;0.0;0.0
2135;-0.024643998593091965;0.04001599922776222;0.9696559906005859;0.10443200170993805;-0.08295999467372894;1.0892159938812256;2.1437501907348633;-6.531875133514404;-3.7143750190734863
2138;0.0;0.0;0.0;0.10735999792814255;-0.08686399459838867;1.101904034614563;0.0;0.0;0.0
2140;0.0;0.0;0.0;0.11907199770212173;-0.0634399950504303;1.0931199789047241;0.0;0.0;0.0
2142;0.0;0.0;0.0;0.10833600163459778;-0.0907679945230484;1.0892159938812256;0.0;0.0;0.0
2144;-0.02147199958562851;0.05807200074195862;0.9713639616966248;0.11907199770212173;-0.05172799900174141;1.10971200466156;2.283750057220459;-6.321875095367432;-3.854374885559082
2146;0.0;0.0;0.0;0.09662400186061859;-0.09467199444770813;1.101904034614563;0.0;0.0;0.0
2148;0.0;0.0;0.0;0.09272000193595886;-0.04391999915242195;1.126304030418396;0.0;0.0;0.0
2150;0.0;0.0;0.0;0.10345599800348282;-0.05563199892640114;1.101904034614563;0.0;0.0;0.0
2152;-0.004635999910533428;0.08003199845552444;0.9828319549560547;0.1268799901008606;-0.032207999378442764;1.122399926185608;1.09375;-5.201874732971191;-4.834374904632568
2155;0.0;0.0;0.0;0.1424959897994995;-0.024399999529123306;1.097999930381775;0.0;0.0;0.0
2157;0.0;0.0;0.0;0.1268799901008606;-0.05172799900174141;1.122399926185608;0.0;0.0;0.0
2159;0.0;0.0;0.0;0.13078400492668152;-0.05563199892640114;1.1302080154418945;0.0;0.0;0.0
2161;0.004391999915242195;0.09003599733114243;0.9960079789161682;0.13468798995018005;-0.05172799900174141;1.1302080154418945;-1.1462500095367432;-1.70187509059906;-5.884375095367432
2163;0.0;0.0;0.0;0.13859200477600098;-0.05563199892640114;1.101904034614563;0.0;0.0;0.0
2165;0.0;0.0;0.0;0.13859200477600098;-0.04782399907708168;1.1136159896850586;0.0;0.0;0.0
2167;0.0;0.0;0.0;0.1424959897994995;-0.05953599885106087;1.146799921989441;0.0;0.0;0.0
2169;0.0017079999670386314;0.09174399822950363;1.002351999282837;0.10735999792814255;-0.0634399950504303;1.1380159854888916;-3.666249990463257;2.078125;-6.164374828338623
2172;0.0;0.0;0.0;0.11224000155925751;-0.04391999915242195;1.1302080154418945;0.0;0.0;0.0
2174;0.0;0.0;0.0;0.11907199770212173;-0.07124799489974976;1.122399926185608;0.0;0.0;0.0
2176;0.0;0.0;0.0;0.115167997777462;-0.04782399907708168;1.1175199747085571;0.0;0.0;0.0
2178;-0.003659999929368496;0.08442399650812149;1.0062559843063354;0.115167997777462;-0.04391999915242195;1.126304030418396;-5.346250057220459;3.198125123977661;-4.624374866485596
2180;0.0;0.0;0.0;0.10052800178527832;-0.06734399497509003;1.1058080196380615;0.0;0.0;0.0
2182;0.0;0.0;0.0;0.11907199770212173;-0.06734399497509003;1.1419199705123901;0.0;0.0;0.0
2184;0.0;0.0;0.0;0.07320000231266022;-0.05953599885106087;1.134112000465393;0.0;0.0;0.0
2186;-0.01659199967980385;0.07124799489974976;1.0082080364227295;0.11907199770212173;-0.08295999467372894;1.1380159854888916;-6.116250038146973;1.238124966621399;-2.664375066757202
2189;0.0;0.0;0.0;0.07320000231266022;-0.0634399950504303;1.134112000465393;0.0;0.0;0.0
2191;0.0;0.0;0.0;0.06148799881339073;-0.06734399497509003;1.1419199705123901;0.0;0.0;0.0
2193;0.0;0.0;0.0;0.1268799901008606;-0.09857599437236786;1.1175199747085571;0.0;0.0;0.0
2195;-0.029523998498916626;0.05441199988126755;1.0045479536056519;0.07320000231266022;-0.10247999429702759;1.1302080154418945;-6.326250076293945;-4.221874713897705;-1.1943750381469727
2197;0.0;0.0;0.0;0.08881600201129913;-0.12199999392032623;1.1058080196380615;0.0;0.0;0.0
2199;0.0;0.0;0.0;0.09662400186061859;-0.11028799414634705;1.10971200466156;0.0;0.0;0.0
2201;0.0;0.0;0.0;0.08881600201129913;-0.11028799414634705;1.085312008857727;0.0;0.0;0.0
2203;-0.023180000483989716;0.02635199949145317;0.977463960647583;0.10443200170993805;-0.1298079937696457;1.0892159938812256;-6.466249942779541;-11.361875534057617;0.5556250214576721
2206;0.0;0.0;0.0;0.13859200477600098;-0.13371199369430542;1.0775039196014404;0.0;0.0;0.0
2208;0.0;0.0;0.0;0.1542080044746399;-0.13371199369430542;1.0531039237976074;0.0;0.0;0.0
2210;0.0;0.0;0.0;0.14640000462532043;-0.13761599361896515;1.0326080322265625;0.0;0.0;0.0
2212;0.016835998743772507;-0.0021959999576210976;0.9381799697875977;0.16591998934745789;-0.1571359932422638;1.0238239765167236;-6.326250076293945;-16.891876220703125;2.7256250381469727
2214;0.0;0.0;0.0;0.16591998934745789;-0.1454239934682846;1.0326080322265625;0.0;0.0;0.0
2216;0.0;0.0;0.0;0.20105600357055664;-0.15323199331760406;1.0326080322265625;0.0;0.0;0.0
2218;0.0;0.0;0.0;0.21276798844337463;-0.12590399384498596;1.0160160064697266;0.0;0.0;0.0
2220;0.07075999677181244;-0.018543999642133713;0.8971880078315735;0.20105600357055664;-0.1571359932422638;0.9877119660377502;-5.696249961853027;-17.031875610351562;4.615624904632568
2223;0.0;0.0;0.0;0.2088640034198761;-0.16103999316692352;0.9759999513626099;0.0;0.0;0.0
2225;0.0;0.0;0.0;0.2205759882926941;-0.1454239934682846;0.9838079810142517;0.0;0.0;0.0
2227;0.0;0.0;0.0;0.22448000311851501;-0.1571359932422638;0.9877119660377502;0.0;0.0;0.0
2229;0.10589599609375;-0.029523998498916626;0.8688839673995972;0.24009600281715393;-0.15323199331760406;0.9955199956893921;-3.9462499618530273;-10.171875;5.245625019073486
2231;0.0;0.0;0.0;0.2205759882926941;-0.16103999316692352;1.0160160064697266;0.0;0.0;0.0
2233;0.0;0.0;0.0;0.236191987991333;-0.1571359932422638;1.0043039321899414;0.0;0.0;0.0
2235;0.0;0.0;0.0;0.22838398814201355;-0.1571359932422638;1.012112021446228;0.0;0.0;0.0
2237;0.11785199493169785;-0.022204000502824783;0.8835240006446838;0.22448000311851501;-0.16884799301624298;1.019919991493225;-1.2862499952316284;1.168125033378601;4.475625038146973
2240;0.0;0.0;0.0;0.22838398814201355;-0.11419199407100677;1.0482239723205566;0.0;0.0;0.0
2242;0.0;0.0;0.0;0.21667200326919556;-0.13761599361896515;1.0482239723205566;0.0;0.0;0.0
2244;0.0;0.0;0.0;0.2205759882926941;-0.1571359932422638;1.0726239681243896;0.0;0.0;0.0
2246;0.09027999639511108;-0.005367999896407127;0.9320799708366394;0.18544000387191772;-0.13761599361896515;1.101904034614563;0.5337499976158142;12.858124732971191;2.655625104904175
2248;0.0;0.0;0.0;0.17763200402259827;-0.10638399422168732;1.1058080196380615;0.0;0.0;0.0
2250;0.0;0.0;0.0;0.16201600432395935;-0.12590399384498596;1.0931199789047241;0.0;0.0;0.0
2252;0.0;0.0;0.0;0.13468798995018005;-0.11419199407100677;1.1419199705123901;0.0;0.0;0.0
2254;0.03806399926543236;0.015371999703347683;0.9982039928436279;0.10052800178527832;-0.13761599361896515;1.1790080070495605;1.09375;19.298124313354492;1.0456249713897705
2257;0.0;0.0;0.0;0.11907199770212173;-0.10638399422168732;1.1907199621200562;0.0;0.0;0.0
2259;0.0;0.0;0.0;0.1268799901008606;-0.10638399422168732;1.150704026222229;0.0;0.0;0.0
2261;0.0;0.0;0.0;0.10833600163459778;-0.11419199407100677;1.1624159812927246;0.0;0.0;0.0
2263;-0.011467999778687954;0.02781599946320057;1.0416359901428223;0.09564799815416336;-0.1180959939956665;1.182911992073059;-0.5162500143051147;18.038124084472656;0.13562500476837158
2265;0.0;0.0;0.0;0.09174399822950363;-0.09857599437236786;1.1790080070495605;0.0;0.0;0.0
2267;0.0;0.0;0.0;0.08100800216197968;-0.0907679945230484;1.1868159770965576;0.0;0.0;0.0
2269;0.0;0.0;0.0;0.11614400148391724;-0.08686399459838867;1.1956000328063965;0.0;0.0;0.0
2271;-0.03415999934077263;0.029523998498916626;1.0574959516525269;0.07710400223731995;-0.08686399459838867;1.1907199621200562;-2.1962499618530273;11.668124198913574;-0.4943750202655792
2274;0.0;0.0;0.0;0.07710400223731995;-0.09857599437236786;1.1624159812927246;0.0;0.0;0.0
2276;0.0;0.0;0.0;0.045871999114751816;-0.1180959939956665;1.1907199621200562;0.0;0.0;0.0
2278;0.0;0.0;0.0;0.10052800178527832;-0.11419199407100677;1.1907199621200562;0.0;0.0;0.0
2280;-0.04562800005078316;0.034648001194000244;1.0655479431152344;0.07710400223731995;-0.07905599474906921;1.1946239471435547;-3.7362499237060547;3.5481250286102295;-0.7743749618530273
2282;0.0;0.0;0.0;0.06929600238800049;-0.1180959939956665;1.182911992073059;0.0;0.0;0.0
2284;0.0;0.0;0.0;0.06929600238800049;-0.12199999392032623;1.199504017829895;0.0;0.0;0.0
2286;0.0;0.0;0.0;0.10345599800348282;-0.1180959939956665;1.1868159770965576;0.0;0.0;0.0
2289;-0.0424560010433197;0.017079999670386314;1.0584720373153687;0.07710400223731995;-0.11419199407100677;1.1946239471435547;-6.046249866485596;-4.571875095367432;-1.4743750095367432
2291;0.0;0.0;0.0;0.0849120020866394;-0.1298079937696457;1.1712000370025635;0.0;0.0;0.0
2293;0.0;0.0;0.0;0.0849120020866394;-0.11419199407100677;1.1546080112457275;0.0;0.0;0.0
2295;0.0;0.0;0.0;0.11224000155925751;-0.13371199369430542;1.158511996269226;0.0;0.0;0.0
2297;-0.018055999651551247;-0.010491999797523022;1.0257760286331177;0.10052800178527832;-0.16103999316692352;1.1380159854888916;-7.796249866485596;-10.381875038146973;-3.7143750190734863
2299;0.0;0.0;0.0;0.13468798995018005;-0.16884799301624298;1.10971200466156;0.0;0.0;0.0
2301;0.0;0.0;0.0;0.13468798995018005;-0.18055999279022217;1.101904034614563;0.0;0.0;0.0
2303;0.0;0.0;0.0;0.1424959897994995;-0.19617599248886108;1.1136159896850586;0.0;0.0;0.0
2306;0.010491999797523022;-0.02781599946320057;0.9889319539070129;0.13859200477600098;-0.16884799301624298;1.0970239639282227;-8.426249504089355;-11.431875228881836;-6.794374942779541
2308;0.0;0.0;0.0;0.13859200477600098;-0.16494399309158325;1.0931199789047241;0.0;0.0;0.0
2310;0.0;0.0;0.0;0.11907199770212173;-0.18836799263954163;1.085312008857727;0.0;0.0;0.0
2312;0.0;0.0;0.0;0.13859200477600098;-0.1844639927148819;1.085312008857727;0.0;0.0;0.0
2314;0.0226919986307621;-0.04001599922776222;0.9659959673881531;0.14640000462532043;-0.18055999279022217;1.0931199789047241;-8.146249771118164;-7.021874904632568;-9.594375610351562
2316;0.0;0.0;0.0;0.11126399785280228;-0.16103999316692352;1.0892159938812256;0.0;0.0;0.0
2318;0.0;0.0;0.0;0.10443200170993805;-0.18055999279022217;1.073599934577942;0.0;0.0;0.0
2320;0.0;0.0;0.0;0.13078400492668152;-0.17665599286556244;1.0931199789047241;0.0;0.0;0.0
2323;-0.0024399999529123306;-0.03757599741220474;0.9647759795188904;0.07710400223731995;-0.16103999316692352;1.0775039196014404;-6.956249713897705;-1.4918750524520874;-11.484375953674316
2325;0.0;0.0;0.0;0.10735999792814255;-0.14151999354362488;1.097999930381775;0.0;0.0;0.0
2327;0.0;0.0;0.0;0.10735999792814255;-0.14932799339294434;1.126304030418396;0.0;0.0;0.0
2329;0.0;0.0;0.0;0.08100800216197968;-0.13761599361896515;1.1175199747085571;0.0;0.0;0.0
2331;-0.02391199953854084;-0.018543999642133713;0.9757559895515442;0.0849120020866394;-0.1298079937696457;1.1136159896850586;-5.066249847412109;0.18812501430511475;-12.88437557220459
2333;0.0;0.0;0.0;0.09272000193595886;-0.14151999354362488;1.1058080196380615;0.0;0.0;0.0
2335;0.0;0.0;0.0;0.07320000231266022;-0.14932799339294434;1.0931199789047241;0.0;0.0;0.0
2337;0.0;0.0;0.0;0.053679998964071274;-0.13371199369430542;1.1175199747085571;0.0;0.0;0.0
2340;-0.03879600018262863;-0.003659999929368496;0.9845399856567383;0.07710400223731995;-0.1454239934682846;1.10971200466156;-2.5462498664855957;-2.4018750190734863;-12.954375267028809
2342;0.0;0.0;0.0;0.053679998964071274;-0.09857599437236786;1.1302080154418945;0.0;0.0;0.0
2344;0.0;0.0;0.0;0.06539200246334076;-0.11419199407100677;1.1136159896850586;0.0;0.0;0.0
2346;0.0;0.0;0.0;0.0849120020866394;-0.11028799414634705;1.1058080196380615;0.0;0.0;0.0
2348;-0.047335997223854065;0.02659599855542183;0.98990797996521;0.08881600201129913;-0.09467199444770813;1.1380159854888916;-0.3762499988079071;-7.651875019073486;-12.88437557220459
2350;0.0;0.0;0.0;0.10735999792814255;-0.08686399459838867;1.10971200466156;0.0;0.0;0.0
2352;0.0;0.0;0.0;0.09662400186061859;-0.06734399497509003;1.1175199747085571;0.0;0.0;0.0
2354;0.0;0.0;0.0;0.13078400492668152;-0.09467199444770813;1.101904034614563;0.0;0.0;0.0
2357;-0.017079999670386314;0.04636000096797943;0.9850279688835144;0.11126399785280228;-0.05953599885106087;1.0931199789047241;1.443750023841858;-12.551875114440918;-12.674375534057617
2359;0.0;0.0;0.0;0.1268799901008606;-0.07124799489974976;1.1136159896850586;0.0;0.0;0.0
2361;0.0;0.0;0.0;0.11907199770212173;-0.05563199892640114;1.0892159938812256;0.0;0.0;0.0
2363;0.0;0.0;0.0;0.1542080044746399;-0.08295999467372894;1.1058080196380615;0.0;0.0;0.0
2365;0.016835998743772507;0.06075599789619446;0.9811239838600159;0.1424959897994995;-0.0907679945230484;1.085312008857727;2.353750228881836;-12.971875190734863;-12.744375228881836
2367;0.0;0.0;0.0;0.17763200402259827;-0.07905599474906921;1.0970239639282227;0.0;0.0;0.0
2369;0.0;0.0;0.0;0.16591998934745789;-0.08295999467372894;1.0892159938812256;0.0;0.0;0.0
