Timestamp(ms);LG-Accel x(g);LG-Accel y(g);LG-Accel z(g);HG-Accel x(g);HG-Accel y(g);HG-Accel z(g);Gyro x(dps);Gyro y(dps);Gyro z(dps)
68;0.0;0.0;0.0;0.08979199826717377;-0.018543999642133713;1.1526559591293335;0.0;0.0;0.0
70;0.0;0.0;0.0;0.0936959981918335;-0.03415999934077263;1.1448479890823364;0.0;0.0;0.0
72;0.0;0.0;0.0;0.0936959981918335;-0.0302559994161129;1.132159948348999;0.0;0.0;0.0
74;0.0;0.0;0.0;0.10931199789047241;-0.018543999642133713;1.1614400148391724;0.0;0.0;0.0
76;0.0;0.0;0.0;0.09759999811649323;-0.02635199949145317;1.1526559591293335;0.0;0.0;0.0
78;0.0;0.0;0.0;0.1268799901008606;-0.024399999529123306;1.1380159854888916;0.0;0.0;0.0
81;0.0;0.0;0.0;0.10052800178527832;-0.04391999915242195;1.1302080154418945;0.0;0.0;0.0
83;0.0;0.0;0.0;0.10735999792814255;-0.03611199930310249;1.1380159854888916;0.0;0.0;0.0
85;-0.0007319999858736992;0.10272400081157684;1.0182119607925415;0.10735999792814255;-0.004879999905824661;1.1546080112457275;0.0;0.0;0.0
87;0.0;0.0;0.0;0.115167997777462;-0.03611199930310249;1.1302080154418945;0.0;0.0;0.0
89;0.0;0.0;0.0;0.0849120020866394;0.014639999717473984;1.1419199705123901;0.0;0.0;0.0
91;0.0;0.0;0.0;0.10345599800348282;-0.00878399983048439;1.1624159812927246;0.0;0.0;0.0
93;-0.004635999910533428;0.11711999773979187;1.0238239765167236;0.13078400492668152;-0.020495999604463577;1.1624159812927246;0.0;0.0;0.0
96;0.0;0.0;0.0;0.1424959897994995;-0.00878399983048439;1.1594879627227783;0.0;0.0;0.0
98;0.0;0.0;0.0;0.11224000155925751;-0.028303999453783035;1.1594879627227783;0.0;0.0;0.0
100;0.0;0.0;0.0;0.13468798995018005;-0.028303999453783035;1.1594879627227783;0.0;0.0;0.0
102;0.013419999741017818;0.11224000155925751;1.0333399772644043;0.16201600432395935;-0.024399999529123306;1.1555839776992798;0.0;0.0;0.0
104;0.0;0.0;0.0;0.115167997777462;-0.05953599885106087;1.1594879627227783;0.0;0.0;0.0
106;0.0;0.0;0.0;0.10735999792814255;-0.0634399950504303;1.1838879585266113;0.0;0.0;0.0
108;0.0;0.0;0.0;0.10345599800348282;-0.05172799900174141;1.1799839735031128;0.0;0.0;0.0
110;-0.006099999882280827;0.08198399841785431;1.0360239744186401;0.08100800216197968;-0.05953599885106087;1.1389919519424438;0.0;0.0;0.0
113;0.0;0.0;0.0;0.0849120020866394;-0.0634399950504303;1.1663199663162231;0.0;0.0;0.0
115;0.0;0.0;0.0;0.08100800216197968;-0.04391999915242195;1.1663199663162231;0.0;0.0;0.0
117;0.0;0.0;0.0;0.049775999039411545;-0.04782399907708168;1.158511996269226;0.0;0.0;0.0
119;-0.04684799909591675;0.0697840005159378;1.0396839380264282;0.06539200246334076;-0.07515199482440948;1.1546080112457275;0.0;0.0;0.0
121;0.0;0.0;0.0;0.06148799881339073;-0.10638399422168732;1.1624159812927246;0.0;0.0;0.0
123;0.0;0.0;0.0;0.049775999039411545;-0.0907679945230484;1.1428959369659424;0.0;0.0;0.0
125;0.0;0.0;0.0;0.053679998964071274;-0.09857599437236786;1.146799921989441;0.0;0.0;0.0
127;-0.06758800148963928;0.04123599827289581;1.0233359336853027;0.045871999114751816;-0.1298079937696457;1.1546080112457275;-12.678750038146973;4.808125019073486;5.158124923706055
130;0.0;0.0;0.0;0.06148799881339073;-0.10247999429702759;1.134112000465393;0.0;0.0;0.0
132;0.0;0.0;0.0;0.06148799881339073;-0.11419199407100677;1.122399926185608;0.0;0.0;0.0
134;0.0;0.0;0.0;0.045871999114751816;-0.1298079937696457;1.1136159896850586;0.0;0.0;0.0
136;-0.06856399774551392;0.011711999773979187;0.9928359985351562;0.053679998964071274;-0.12199999392032623;1.0931199789047241;-9.598750114440918;-0.09187500178813934;4.10812520980835
138;0.0;0.0;0.0;0.04196799919009209;-0.14932799339294434;1.0814080238342285;0.0;0.0;0.0
140;0.0;0.0;0.0;0.06539200246334076;-0.1454239934682846;1.0814080238342285;0.0;0.0;0.0
142;0.0;0.0;0.0;0.0849120020866394;-0.16884799301624298;1.0892159938812256;0.0;0.0;0.0
144;-0.05026400089263916;-0.00951599981635809;0.9684360027313232;0.10735999792814255;-0.16103999316692352;1.1175199747085571;-4.278749942779541;-4.431874752044678;2.4281251430511475
147;0.0;0.0;0.0;0.09662400186061859;-0.15323199331760406;1.0687199831008911;0.0;0.0;0.0
149;0.0;0.0;0.0;0.09272000193595886;-0.12590399384498596;1.0687199831008911;0.0;0.0;0.0
151;0.0;0.0;0.0;0.12297599762678146;-0.15323199331760406;1.0726239681243896;0.0;0.0;0.0
153;-0.02513200044631958;-0.012199999764561653;0.9503799676895142;0.10833600163459778;-0.15323199331760406;1.073599934577942;1.3912500143051147;-6.881875038146973;0.8881250023841858
155;0.0;0.0;0.0;0.1268799901008606;-0.11419199407100677;1.0775039196014404;0.0;0.0;0.0
157;0.0;0.0;0.0;0.13859200477600098;-0.11419199407100677;1.0775039196014404;0.0;0.0;0.0
159;0.0;0.0;0.0;0.12297599762678146;-0.1298079937696457;1.085312008857727;0.0;0.0;0.0
161;0.004635999910533428;0.0019519999623298645;0.9506239891052246;0.1268799901008606;-0.11419199407100677;1.0814080238342285;5.941250324249268;-7.301875114440918;-0.2318750023841858
164;0.0;0.0;0.0;0.11907199770212173;-0.12590399384498596;1.073599934577942;0.0;0.0;0.0
166;0.0;0.0;0.0;0.13859200477600098;-0.1298079937696457;1.0687199831008911;0.0;0.0;0.0
168;0.0;0.0;0.0;0.13859200477600098;-0.10638399422168732;1.101904034614563;0.0;0.0;0.0
170;0.01781199872493744;0.01634800061583519;0.9552599787712097;0.14640000462532043;-0.11419199407100677;1.0814080238342285;8.321249961853027;-6.671875;-0.9318750500679016
172;0.0;0.0;0.0;0.14640000462532043;-0.1298079937696457;1.085312008857727;0.0;0.0;0.0
174;0.0;0.0;0.0;0.16201600432395935;-0.10247999429702759;1.097999930381775;0.0;0.0;0.0
176;0.0;0.0;0.0;0.1698240041732788;-0.10638399422168732;1.0814080238342285;0.0;0.0;0.0
178;0.029523998498916626;0.030743999406695366;0.9591639637947083;0.1542080044746399;-0.11419199407100677;1.0687199831008911;9.091249465942383;-4.921875;-1.5618749856948853
181;0.0;0.0;0.0;0.1424959897994995;-0.09857599437236786;1.0892159938812256;0.0;0.0;0.0
183;0.0;0.0;0.0;0.12297599762678146;-0.09857599437236786;1.097999930381775;0.0;0.0;0.0
185;0.0;0.0;0.0;0.1698240041732788;-0.07124799489974976;1.0531039237976074;0.0;0.0;0.0
187;0.031231999397277832;0.038307998329401016;0.9598959684371948;0.12004800140857697;-0.10247999429702759;1.0687199831008911;9.091249465942383;-3.3118748664855957;-1.771875023841858
189;0.0;0.0;0.0;0.1542080044746399;-0.09467199444770813;1.0814080238342285;0.0;0.0;0.0
191;0.0;0.0;0.0;0.15030398964881897;-0.07124799489974976;1.1058080196380615;0.0;0.0;0.0
193;0.0;0.0;0.0;0.1268799901008606;-0.10638399422168732;1.097999930381775;0.0;0.0;0.0
195;0.02781599946320057;0.0424560010433197;0.9628239870071411;0.13078400492668152;-0.08295999467372894;1.0931199789047241;8.951250076293945;-2.61187481880188;-1.2818750143051147
198;0.0;0.0;0.0;0.12297599762678146;-0.07905599474906921;1.0531039237976074;0.0;0.0;0.0
200;0.0;0.0;0.0;0.1424959897994995;-0.07905599474906921;1.097999930381775;0.0;0.0;0.0
202;0.0;0.0;0.0;0.13859200477600098;-0.0907679945230484;1.0892159938812256;0.0;0.0;0.0
204;0.013419999741017818;0.053679998964071274;0.9650200009346008;0.13078400492668152;-0.05953599885106087;1.0892159938812256;8.53125;-2.1918749809265137;-0.721875011920929
206;0.0;0.0;0.0;0.1542080044746399;-0.07515199482440948;1.101904034614563;0.0;0.0;0.0
208;0.0;0.0;0.0;0.1542080044746399;-0.07124799489974976;1.10971200466156;0.0;0.0;0.0
210;0.0;0.0;0.0;0.15030398964881897;-0.05563199892640114;1.1175199747085571;0.0;0.0;0.0
212;0.033427998423576355;0.07515199482440948;0.9850279688835144;0.15811198949813843;-0.05953599885106087;1.134112000465393;6.641250133514404;-1.771875023841858;-0.09187500178813934
215;0.0;0.0;0.0;0.17372798919677734;-0.04782399907708168;1.150704026222229;0.0;0.0;0.0
217;0.0;0.0;0.0;0.1698240041732788;-0.03611199930310249;1.1790080070495605;0.0;0.0;0.0
219;0.0;0.0;0.0;0.16591998934745789;-0.020495999604463577;1.1302080154418945;0.0;0.0;0.0
221;0.06026799976825714;0.10589599609375;1.0201640129089355;0.1698240041732788;-0.01268799975514412;1.134112000465393;2.3012499809265137;-0.2318750023841858;2.148125171661377
223;0.0;0.0;0.0;0.1815359890460968;-0.01268799975514412;1.146799921989441;0.0;0.0;0.0
225;0.0;0.0;0.0;0.15811198949813843;-0.020495999604463577;1.1302080154418945;0.0;0.0;0.0
227;0.0;0.0;0.0;0.16201600432395935;-0.020495999604463577;1.1419199705123901;0.0;0.0;0.0
229;0.04270000010728836;0.11150799691677094;1.0235799551010132;0.1268799901008606;-0.03611199930310249;1.134112000465393;-3.018749952316284;2.4981250762939453;4.10812520980835
232;0.0;0.0;0.0;0.14640000462532043;-0.04782399907708168;1.1419199705123901;0.0;0.0;0.0
234;0.0;0.0;0.0;0.13859200477600098;-0.032207999378442764;1.158511996269226;0.0;0.0;0.0
236;0.0;0.0;0.0;0.09955199807882309;-0.06734399497509003;1.126304030418396;0.0;0.0;0.0
238;0.0056119998916983604;0.0802759975194931;1.0072319507598877;0.10443200170993805;-0.0634399950504303;1.10971200466156;-6.658750057220459;4.738125324249268;4.458125114440918
240;0.0;0.0;0.0;0.12297599762678146;-0.07124799489974976;1.126304030418396;0.0;0.0;0.0
242;0.0;0.0;0.0;0.10443200170993805;-0.03611199930310249;1.122399926185608;0.0;0.0;0.0
244;0.0;0.0;0.0;0.10833600163459778;-0.0634399950504303;1.1302080154418945;0.0;0.0;0.0
246;-0.021715998649597168;0.06441599875688553;0.9962520003318787;0.08881600201129913;-0.07905599474906921;1.1380159854888916;-7.288749694824219;4.878125190734863;4.10812520980835
249;0.0;0.0;0.0;0.08100800216197968;-0.06734399497509003;1.134112000465393;0.0;0.0;0.0
251;0.0;0.0;0.0;0.08100800216197968;-0.07905599474906921;1.10971200466156;0.0;0.0;0.0
253;0.0;0.0;0.0;0.06539200246334076;-0.06734399497509003;1.10971200466156;0.0;0.0;0.0
255;-0.03928399831056595;0.059779997915029526;1.0033279657363892;0.053679998964071274;-0.05953599885106087;1.122399926185608;-6.518749713897705;2.708125114440918;3.268125057220459
257;0.0;0.0;0.0;0.045871999114751816;-0.07515199482440948;1.126304030418396;0.0;0.0;0.0
259;0.0;0.0;0.0;0.10443200170993805;-0.08686399459838867;1.126304030418396;0.0;0.0;0.0
261;0.0;0.0;0.0;0.09662400186061859;-0.07124799489974976;1.134112000465393;0.0;0.0;0.0
263;-0.0424560010433197;0.06124399974942207;1.0011320114135742;0.11224000155925751;-0.08295999467372894;1.1136159896850586;-6.168749809265137;-1.0018750429153442;2.9181251525878906
266;0.0;0.0;0.0;0.115167997777462;-0.11028799414634705;1.1350879669189453;0.0;0.0;0.0
268;0.0;0.0;0.0;0.12297599762678146;-0.07124799489974976;1.1428959369659424;0.0;0.0;0.0
270;0.0;0.0;0.0;0.115167997777462;-0.09467199444770813;1.0823839902877808;0.0;0.0;0.0
272;-0.005123999901115894;0.0424560010433197;1.0013760328292847;0.115167997777462;-0.10247999429702759;1.1311839818954468;-6.09874963760376;-2.8218748569488525;1.728124976158142
274;0.0;0.0;0.0;0.1542080044746399;-0.10247999429702759;1.1028800010681152;0.0;0.0;0.0
276;0.0;0.0;0.0;0.1268799901008606;-0.0907679945230484;1.101904034614563;0.0;0.0;0.0
278;0.0;0.0;0.0;0.12297599762678146;-0.0907679945230484;1.1067839860916138;0.0;0.0;0.0
280;0.012199999764561653;0.031231999397277832;0.9786840081214905;0.15030398964881897;-0.11028799414634705;1.101904034614563;-4.628749847412109;-2.2618749141693115;1.3781249523162842
283;0.0;0.0;0.0;0.14640000462532043;-0.12199999392032623;1.101904034614563;0.0;0.0;0.0
285;0.0;0.0;0.0;0.1698240041732788;-0.10638399422168732;1.1302080154418945;0.0;0.0;0.0
287;0.0;0.0;0.0;0.14640000462532043;-0.1180959939956665;1.1136159896850586;0.0;0.0;0.0
289;0.030743999406695366;0.02391199953854084;0.9864919781684875;0.15811198949813843;-0.10638399422168732;1.10971200466156;-2.108750104904175;0.6081249713897705;1.168125033378601
291;0.0;0.0;0.0;0.13468798995018005;-0.10247999429702759;1.1175199747085571;0.0;0.0;0.0
293;0.0;0.0;0.0;0.11614400148391724;-0.07124799489974976;1.1058080196380615;0.0;0.0;0.0
295;0.0;0.0;0.0;0.13859200477600098;-0.08686399459838867;1.134112000465393;0.0;0.0;0.0
298;0.012443999759852886;0.02903600037097931;0.9962520003318787;0.13468798995018005;-0.10638399422168732;1.122399926185608;-0.07874999940395355;2.63812518119812;1.3781249523162842
300;0.0;0.0;0.0;0.09662400186061859;-0.0907679945230484;1.126304030418396;0.0;0.0;0.0
302;0.0;0.0;0.0;0.1268799901008606;-0.06734399497509003;1.150704026222229;0.0;0.0;0.0
304;0.0;0.0;0.0;0.10735999792814255;-0.10247999429702759;1.146799921989441;0.0;0.0;0.0
306;-0.010247999802231789;0.039772000163793564;1.0106480121612549;0.115167997777462;-0.10638399422168732;1.146799921989441;1.4612499475479126;2.9181251525878906;1.0981249809265137
308;0.0;0.0;0.0;0.11126399785280228;-0.08686399459838867;1.150704026222229;0.0;0.0;0.0
310;0.0;0.0;0.0;0.09272000193595886;-0.07905599474906921;1.150704026222229;0.0;0.0;0.0
312;0.0;0.0;0.0;0.10833600163459778;-0.09857599437236786;1.134112000465393;0.0;0.0;0.0
315;-0.021715998649597168;0.04196799919009209;1.0111359357833862;0.08881600201129913;-0.07124799489974976;1.1302080154418945;1.8112499713897705;2.078125;0.11812499910593033
317;0.0;0.0;0.0;0.08881600201129913;-0.07124799489974976;1.1311839818954468;0.0;0.0;0.0
319;0.0;0.0;0.0;0.07320000231266022;-0.07124799489974976;1.1184959411621094;0.0;0.0;0.0
321;0.0;0.0;0.0;0.0849120020866394;-0.08295999467372894;1.1389919519424438;0.0;0.0;0.0
323;-0.026108000427484512;0.047091998159885406;1.006011962890625;0.09272000193595886;-0.08686399459838867;1.1389919519424438;2.091249942779541;1.3081250190734863;-0.721875011920929
325;0.0;0.0;0.0;0.115167997777462;-0.09467199444770813;1.150704026222229;0.0;0.0;0.0
327;0.0;0.0;0.0;0.09662400186061859;-0.09467199444770813;1.1311839818954468;0.0;0.0;0.0
329;0.0;0.0;0.0;0.10345599800348282;-0.06734399497509003;1.1350879669189453;0.0;0.0;0.0
332;-0.028547998517751694;0.04636000096797943;1.0055240392684937;0.049775999039411545;-0.0907679945230484;1.126304030418396;2.231250047683716;0.5381249785423279;-1.4918750524520874
334;0.0;0.0;0.0;0.07710400223731995;-0.0634399950504303;1.1184959411621094;0.0;0.0;0.0
336;0.0;0.0;0.0;0.08100800216197968;-0.07905599474906921;1.1380159854888916;0.0;0.0;0.0
338;0.0;0.0;0.0;0.08881600201129913;-0.05953599885106087;1.1302080154418945;0.0;0.0;0.0
340;-0.0378200002014637;0.07173600047826767;1.00381600856781;0.0878399983048439;-0.05563199892640114;1.158511996269226;2.721250057220459;-0.7918750047683716;-1.421875
342;0.0;0.0;0.0;0.09272000193595886;-0.024399999529123306;1.158511996269226;0.0;0.0;0.0
344;0.0;0.0;0.0;0.115167997777462;-0.024399999529123306;1.1868159770965576;0.0;0.0;0.0
346;0.0;0.0;0.0;0.13078400492668152;-0.024399999529123306;1.175104022026062;0.0;0.0;0.0
349;-0.010003999806940556;0.10638399422168732;1.044808030128479;0.13078400492668152;-0.028303999453783035;1.1907199621200562;0.6212500333786011;-2.4018750190734863;-0.6518750190734863
351;0.0;0.0;0.0;0.1268799901008606;-0.00878399983048439;1.1663199663162231;0.0;0.0;0.0
353;0.0;0.0;0.0;0.10443200170993805;0.0029279999434947968;1.1868159770965576;0.0;0.0;0.0
355;0.0;0.0;0.0;0.09272000193595886;-0.020495999604463577;1.1546080112457275;0.0;0.0;0.0
357;0.00024399999529123306;0.12175599485635757;1.04066002368927;0.13078400492668152;-0.00878399983048439;1.158511996269226;-4.068749904632568;-2.681874990463257;0.5381249785423279
359;0.0;0.0;0.0;0.14640000462532043;-0.05172799900174141;1.1624159812927246;0.0;0.0;0.0
361;0.0;0.0;0.0;0.11126399785280228;-0.00878399983048439;1.158511996269226;0.0;0.0;0.0
363;0.0;0.0;0.0;0.10735999792814255;-0.024399999529123306;1.158511996269226;0.0;0.0;0.0
366;-0.0009759999811649323;0.11785199493169785;1.040903925895691;0.13468798995018005;-0.028303999453783035;1.150704026222229;-8.05875015258789;-2.2618749141693115;0.8881250023841858
368;0.0;0.0;0.0;0.1542080044746399;-0.0634399950504303;1.150704026222229;0.0;0.0;0.0
370;0.0;0.0;0.0;0.1268799901008606;-0.05563199892640114;1.1555839776992798;0.0;0.0;0.0
372;0.0;0.0;0.0;0.13859200477600098;-0.07515199482440948;1.1311839818954468;0.0;0.0;0.0
374;-0.0007319999858736992;0.07807999849319458;1.016260027885437;0.1268799901008606;-0.0634399950504303;1.1350879669189453;-10.858750343322754;-1.2818750143051147;0.9581249952316284
376;0.0;0.0;0.0;0.13468798995018005;-0.05563199892640114;1.1311839818954468;0.0;0.0;0.0
378;0.0;0.0;0.0;0.10443200170993805;-0.10638399422168732;1.1184959411621094;0.0;0.0;0.0
380;0.0;0.0;0.0;0.11126399785280228;-0.09467199444770813;1.0862879753112793;0.0;0.0;0.0
383;-0.013175999745726585;0.05709599703550339;0.9913719892501831;0.10052800178527832;-0.11028799414634705;1.1067839860916138;-10.298749923706055;-1.2818750143051147;0.5381249785423279
385;0.0;0.0;0.0;0.09272000193595886;-0.0907679945230484;1.101904034614563;0.0;0.0;0.0
387;0.0;0.0;0.0;0.11907199770212173;-0.09857599437236786;1.097999930381775;0.0;0.0;0.0
389;0.0;0.0;0.0;0.10833600163459778;-0.11028799414634705;1.085312008857727;0.0;0.0;0.0
391;-0.009759999811649323;0.032207999378442764;0.973315954208374;0.11907199770212173;-0.1454239934682846;1.101904034614563;-8.478750228881836;-0.9318750500679016;-1.6318750381469727
393;0.0;0.0;0.0;0.09272000193595886;-0.13761599361896515;1.101904034614563;0.0;0.0;0.0
395;0.0;0.0;0.0;0.11126399785280228;-0.14151999354362488;1.0775039196014404;0.0;0.0;0.0
397;0.0;0.0;0.0;0.13468798995018005;-0.13371199369430542;1.0648159980773926;0.0;0.0;0.0
400;-0.00951599981635809;0.004147999919950962;0.9494040012359619;0.10345599800348282;-0.13371199369430542;1.0648159980773926;-4.768749713897705;0.5381249785423279;-3.3818750381469727
402;0.0;0.0;0.0;0.115167997777462;-0.12199999392032623;1.0696959495544434;0.0;0.0;0.0
404;0.0;0.0;0.0;0.0849120020866394;-0.1571359932422638;1.0540800094604492;0.0;0.0;0.0
406;0.0;0.0;0.0;0.07320000231266022;-0.14932799339294434;1.0452959537506104;0.0;0.0;0.0
408;-0.027084000408649445;-0.009271999821066856;0.9359839558601379;0.09662400186061859;-0.13761599361896515;1.0618879795074463;1.3212499618530273;1.0981249809265137;-4.991874694824219
410;0.0;0.0;0.0;0.09662400186061859;-0.16494399309158325;1.0618879795074463;0.0;0.0;0.0
412;0.0;0.0;0.0;0.07320000231266022;-0.13761599361896515;1.0579839944839478;0.0;0.0;0.0
414;0.0;0.0;0.0;0.07710400223731995;-0.1298079937696457;1.073599934577942;0.0;0.0;0.0
417;-0.047091998159885406;0.0056119998916983604;0.9413520097732544;0.06148799881339073;-0.09467199444770813;1.0657919645309448;8.181249618530273;-0.861875057220459;-7.161874771118164
419;0.0;0.0;0.0;0.045871999114751816;-0.11419199407100677;1.097999930381775;0.0;0.0;0.0
421;0.0;0.0;0.0;0.06539200246334076;-0.08295999467372894;1.0892159938812256;0.0;0.0;0.0
423;0.0;0.0;0.0;0.08881600201129913;-0.07905599474906921;1.060912013053894;0.0;0.0;0.0
425;-0.03415999934077263;0.044652000069618225;0.9589200019836426;0.10735999792814255;-0.05953599885106087;1.101904034614563;13.151249885559082;-5.411874771118164;-8.631875038146973
427;0.0;0.0;0.0;0.08881600201129913;-0.06734399497509003;1.097999930381775;0.0;0.0;0.0
429;0.0;0.0;0.0;0.10735999792814255;-0.04391999915242195;1.097999930381775;0.0;0.0;0.0
431;0.0;0.0;0.0;0.11126399785280228;-0.004879999905824661;1.10971200466156;0.0;0.0;0.0
434;-0.004147999919950962;0.10467600077390671;0.9759999513626099;0.12297599762678146;0.022447999566793442;1.1214239597320557;14.761249542236328;-9.051875114440918;-7.721874713897705
436;0.0;0.0;0.0;0.1424959897994995;0.010735999792814255;1.1058080196380615;0.0;0.0;0.0
438;0.0;0.0;0.0;0.12297599762678146;0.02635199949145317;1.150704026222229;0.0;0.0;0.0
440;0.0;0.0;0.0;0.12297599762678146;0.04196799919009209;1.1380159854888916;0.0;0.0;0.0
442;0.01439599972218275;0.15908800065517426;1.00381600856781;0.1542080044746399;0.03806399926543236;1.134112000465393;11.4712495803833;-9.751875877380371;-6.601874828338623
444;0.0;0.0;0.0;0.15030398964881897;0.049775999039411545;1.1380159854888916;0.0;0.0;0.0
446;0.0;0.0;0.0;0.16591998934745789;0.049775999039411545;1.126304030418396;0.0;0.0;0.0
448;0.0;0.0;0.0;0.17763200402259827;0.0302559994161129;1.158511996269226;0.0;0.0;0.0
451;0.04440800100564957;0.18714798986911774;1.0106480121612549;0.18934398889541626;0.07710400223731995;1.1380159854888916;3.5612499713897705;-7.161874771118164;-4.64187479019165
453;0.0;0.0;0.0;0.19324800372123718;0.057583998888731;1.134112000465393;0.0;0.0;0.0
455;0.0;0.0;0.0;0.19324800372123718;0.053679998964071274;1.126304030418396;0.0;0.0;0.0
457;0.0;0.0;0.0;0.1698240041732788;0.0302559994161129;1.134112000465393;0.0;0.0;0.0
459;0.05172799900174141;0.18251200020313263;1.001863956451416;0.17763200402259827;0.022447999566793442;1.122399926185608;-4.278749942779541;-1.8418750762939453;-2.471874952316284
461;0.0;0.0;0.0;0.18934398889541626;0.03415999934077263;1.1175199747085571;0.0;0.0;0.0
463;0.0;0.0;0.0;0.14640000462532043;0.018543999642133713;1.134112000465393;0.0;0.0;0.0
465;0.0;0.0;0.0;0.15030398964881897;-0.0009759999811649323;1.1136159896850586;0.0;0.0;0.0
468;0.03440399840474129;0.14761999249458313;0.9957639575004578;0.14640000462532043;0.0029279999434947968;1.1058080196380615;-10.228750228881836;4.388124942779541;-1.071874976158142
470;0.0;0.0;0.0;0.13468798995018005;-0.00878399983048439;1.101904034614563;0.0;0.0;0.0
472;0.0;0.0;0.0;0.13468798995018005;-0.0634399950504303;1.1175199747085571;0.0;0.0;0.0
474;0.0;0.0;0.0;0.10735999792814255;-0.04391999915242195;1.126304030418396;0.0;0.0;0.0
476;0.003659999929368496;0.0924759954214096;0.9842959642410278;0.1268799901008606;-0.06734399497509003;1.0775039196014404;-12.888750076293945;8.58812427520752;0.398125022649765
478;0.0;0.0;0.0;0.09955199807882309;-0.08686399459838867;1.1058080196380615;0.0;0.0;0.0
480;0.0;0.0;0.0;0.09272000193595886;-0.1180959939956665;1.122399926185608;0.0;0.0;0.0
483;0.0;0.0;0.0;0.053679998964071274;-0.05563199892640114;1.101904034614563;0.0;0.0;0.0
485;-0.03903999924659729;0.05172799900174141;0.9799039959907532;0.08881600201129913;-0.12590399384498596;1.085312008857727;-10.998750686645508;9.778124809265137;1.168125033378601
487;0.0;0.0;0.0;0.057583998888731;-0.09467199444770813;1.1555839776992798;0.0;0.0;0.0
489;0.0;0.0;0.0;0.049775999039411545;-0.06734399497509003;1.1272799968719482;0.0;0.0;0.0
491;0.0;0.0;0.0;0.018543999642133713;-0.09857599437236786;1.1428959369659424;0.0;0.0;0.0
493;-0.0785679966211319;0.04294399917125702;1.0043039321899414;0.03415999934077263;-0.10247999429702759;1.1311839818954468;-7.288749694824219;6.69812536239624;0.11812499910593033
495;0.0;0.0;0.0;0.045871999114751816;-0.05953599885106087;1.1633919477462769;0.0;0.0;0.0
497;0.0;0.0;0.0;0.049775999039411545;-0.0907679945230484;1.1594879627227783;0.0;0.0;0.0
500;0.0;0.0;0.0;0.03415999934077263;-0.0907679945230484;1.1594879627227783;0.0;0.0;0.0
502;-0.07881199568510056;0.052216000854969025;1.0260199308395386;0.06148799881339073;-0.09467199444770813;1.1712000370025635;-6.09874963760376;1.238124966621399;-2.471874952316284
504;0.0;0.0;0.0;0.057583998888731;-0.07124799489974976;1.146799921989441;0.0;0.0;0.0
506;0.0;0.0;0.0;0.06929600238800049;-0.07905599474906921;1.1546080112457275;0.0;0.0;0.0
508;0.0;0.0;0.0;0.0849120020866394;-0.10638399422168732;1.150704026222229;0.0;0.0;0.0
510;-0.05172799900174141;0.04294399917125702;1.018455982208252;0.06929600238800049;-0.10638399422168732;1.1136159896850586;-5.538749694824219;-3.661875009536743;-3.9418749809265137
512;0.0;0.0;0.0;0.0849120020866394;-0.09857599437236786;1.126304030418396;0.0;0.0;0.0
514;0.0;0.0;0.0;0.08100800216197968;-0.09467199444770813;1.10971200466156;0.0;0.0;0.0
516;0.0;0.0;0.0;0.11907199770212173;-0.09857599437236786;1.126304030418396;0.0;0.0;0.0
519;-0.027327999472618103;0.042211998254060745;1.0033279657363892;0.09272000193595886;-0.1180959939956665;1.126304030418396;-4.208749771118164;-6.741875171661377;-4.991874694824219
521;0.0;0.0;0.0;0.1268799901008606;-0.1180959939956665;1.10971200466156;0.0;0.0;0.0
523;0.0;0.0;0.0;0.10443200170993805;-0.09467199444770813;1.1302080154418945;0.0;0.0;0.0
525;0.0;0.0;0.0;0.1424959897994995;-0.08295999467372894;1.1184959411621094;0.0;0.0;0.0
527;-0.010247999802231789;0.037087999284267426;0.9896639585494995;0.11907199770212173;-0.11028799414634705;1.122399926185608;-2.2487499713897705;-7.091875076293945;-6.811874866485596
529;0.0;0.0;0.0;0.115167997777462;-0.10638399422168732;1.1136159896850586;0.0;0.0;0.0
531;0.0;0.0;0.0;0.10443200170993805;-0.05563199892640114;1.1419199705123901;0.0;0.0;0.0
534;0.0;0.0;0.0;0.12297599762678146;-0.07905599474906921;1.097999930381775;0.0;0.0;0.0
536;-0.005123999901115894;0.048312000930309296;0.9869799613952637;0.115167997777462;-0.0907679945230484;1.1136159896850586;-1.3387500047683716;-6.671875;-8.07187557220459
538;0.0;0.0;0.0;0.11907199770212173;-0.06734399497509003;1.10971200466156;0.0;0.0;0.0
540;0.0;0.0;0.0;0.1424959897994995;-0.05172799900174141;1.1175199747085571;0.0;0.0;0.0
542;0.0;0.0;0.0;0.13859200477600098;-0.06734399497509003;1.0931199789047241;0.0;0.0;0.0
544;0.01634800061583519;0.05660799890756607;0.9762439727783203;0.14640000462532043;-0.07905599474906921;1.097999930381775;-2.108750104904175;-5.831874847412109;-8.841875076293945
546;0.0;0.0;0.0;0.1542080044746399;-0.07124799489974976;1.1058080196380615;0.0;0.0;0.0
548;0.0;0.0;0.0;0.16201600432395935;-0.07905599474906921;1.085312008857727;0.0;0.0;0.0
551;0.0;0.0;0.0;0.1542080044746399;-0.08295999467372894;1.0814080238342285;0.0;0.0;0.0
553;0.03635599836707115;0.058803997933864594;0.9589200019836426;0.1424959897994995;-0.05172799900174141;1.085312008857727;-2.038749933242798;-2.8918750286102295;-8.351875305175781
555;0.0;0.0;0.0;0.16201600432395935;-0.08295999467372894;1.0726239681243896;0.0;0.0;0.0
557;0.0;0.0;0.0;0.14640000462532043;-0.0634399950504303;1.060912013053894;0.0;0.0;0.0
559;0.0;0.0;0.0;0.1268799901008606;-0.07124799489974976;1.0726239681243896;0.0;0.0;0.0
561;0.028547998517751694;0.054655998945236206;0.9520879983901978;0.15811198949813843;-0.08686399459838867;1.0726239681243896;0.9012500047683716;0.6081249713897705;-7.511875152587891
563;0.0;0.0;0.0;0.15030398964881897;-0.05953599885106087;1.0814080238342285;0.0;0.0;0.0
565;0.0;0.0;0.0;0.15030398964881897;-0.07905599474906921;1.097999930381775;0.0;0.0;0.0
568;0.0;0.0;0.0;0.11907199770212173;-0.07124799489974976;1.0970239639282227;0.0;0.0;0.0
570;0.009027999825775623;0.04904399812221527;0.9637999534606934;0.13859200477600098;-0.10638399422168732;1.0931199789047241;5.101250171661377;1.0981249809265137;-5.271874904632568
572;0.0;0.0;0.0;0.115167997777462;-0.07905599474906921;1.1136159896850586;0.0;0.0;0.0
574;0.0;0.0;0.0;0.10833600163459778;-0.08686399459838867;1.10971200466156;0.0;0.0;0.0
576;0.0;0.0;0.0;0.10735999792814255;-0.11419199407100677;1.10971200466156;0.0;0.0;0.0
578;-0.00878399983048439;0.05270399898290634;0.9803919792175293;0.08100800216197968;-0.0907679945230484;1.1175199747085571;9.021249771118164;-1.3518750667572021;-2.7518749237060547
580;0.0;0.0;0.0;0.0849120020866394;-0.07515199482440948;1.1136159896850586;0.0;0.0;0.0
582;0.0;0.0;0.0;0.08881600201129913;-0.09467199444770813;1.146799921989441;0.0;0.0;0.0
585;0.0;0.0;0.0;0.0849120020866394;-0.07905599474906921;1.1302080154418945;0.0;0.0;0.0
587;-0.03562399744987488;0.04879999905824661;1.0043039321899414;0.053679998964071274;-0.07905599474906921;1.146799921989441;10.981249809265137;-4.711874961853027;-2.541874885559082
589;0.0;0.0;0.0;0.07710400223731995;-0.10638399422168732;1.1380159854888916;0.0;0.0;0.0
591;0.0;0.0;0.0;0.0849120020866394;-0.10638399422168732;1.134112000465393;0.0;0.0;0.0
593;0.0;0.0;0.0;0.07320000231266022;-0.09857599437236786;1.150704026222229;0.0;0.0;0.0
595;-0.048555999994277954;0.04513999819755554;1.0104039907455444;0.057583998888731;-0.08295999467372894;1.150704026222229;11.4712495803833;-9.191875457763672;-3.031874895095825
598;0.0;0.0;0.0;0.09662400186061859;-0.05563199892640114;1.158511996269226;0.0;0.0;0.0
599;0.0;0.0;0.0;0.10052800178527832;-0.07124799489974976;1.146799921989441;0.0;0.0;0.0
602;0.0;0.0;0.0;0.08100800216197968;-0.0634399950504303;1.1136159896850586;0.0;0.0;0.0
604;-0.034648001194000244;0.06368400156497955;1.020408034324646;0.13078400492668152;-0.0634399950504303;1.1546080112457275;10.63124942779541;-15.07187557220459;-1.9818750619888306
606;0.0;0.0;0.0;0.10443200170993805;-0.05172799900174141;1.1546080112457275;0.0;0.0;0.0
608;0.0;0.0;0.0;0.09662400186061859;-0.05563199892640114;1.1458239555358887;0.0;0.0;0.0
610;0.0;0.0;0.0;0.10833600163459778;-0.04001599922776222;1.1546080112457275;0.0;0.0;0.0
612;-0.023423999547958374;0.0907679945230484;1.0311440229415894;0.10443200170993805;-0.020495999604463577;1.158511996269226;8.181249618530273;-21.371875762939453;0.6781249642372131
614;0.0;0.0;0.0;0.115167997777462;-0.05953599885106087;1.1546080112457275;0.0;0.0;0.0
616;0.0;0.0;0.0;0.10345599800348282;-0.028303999453783035;1.1380159854888916;0.0;0.0;0.0
619;0.0;0.0;0.0;0.10735999792814255;-0.032207999378442764;1.1712000370025635;0.0;0.0;0.0
621;-0.015859998762607574;0.10101599991321564;1.0216280221939087;0.12297599762678146;-0.01268799975514412;1.122399926185608;5.591250419616699;-26.83187484741211;1.6581250429153442
623;0.0;0.0;0.0;0.1424959897994995;-0.028303999453783035;1.1428959369659424;0.0;0.0;0.0
625;0.0;0.0;0.0;0.13078400492668152;-0.024399999529123306;1.146799921989441;0.0;0.0;0.0
627;0.0;0.0;0.0;0.13859200477600098;-0.05563199892640114;1.134112000465393;0.0;0.0;0.0
629;0.003903999924659729;0.09174399822950363;1.0111359357833862;0.09662400186061859;-0.03611199930310249;1.134112000465393;3.211250066757202;-29.56187629699707;1.0981249809265137
631;0.0;0.0;0.0;0.15030398964881897;-0.032207999378442764;1.1302080154418945;0.0;0.0;0.0
633;0.0;0.0;0.0;0.1542080044746399;-0.0907679945230484;1.10971200466156;0.0;0.0;0.0
636;0.0;0.0;0.0;0.1424959897994995;-0.05953599885106087;1.1302080154418945;0.0;0.0;0.0
638;0.022935999557375908;0.07661599665880203;0.9906399846076965;0.16201600432395935;-0.05953599885106087;1.1136159896850586;1.0412499904632568;-29.63187599182129;0.18812501430511475
640;0.0;0.0;0.0;0.1424959897994995;-0.08295999467372894;1.1067839860916138;0.0;0.0;0.0
642;0.0;0.0;0.0;0.1542080044746399;-0.07124799489974976;1.1028800010681152;0.0;0.0;0.0
644;0.0;0.0;0.0;0.14640000462532043;-0.0634399950504303;1.0823839902877808;0.0;0.0;0.0
646;0.03440399840474129;0.0651479959487915;0.9738039970397949;0.17763200402259827;-0.07905599474906921;1.0940959453582764;-0.008749999105930328;-27.531875610351562;-1.2818750143051147
648;0.0;0.0;0.0;0.1542080044746399;-0.0634399950504303;1.0901919603347778;0.0;0.0;0.0
650;0.0;0.0;0.0;0.16591998934745789;-0.08686399459838867;1.073599934577942;0.0;0.0;0.0
653;0.0;0.0;0.0;0.17763200402259827;-0.07515199482440948;1.0657919645309448;0.0;0.0;0.0
655;0.048555999994277954;0.047091998159885406;0.95306396484375;0.1698240041732788;-0.0907679945230484;1.0784800052642822;-0.4987500011920929;-23.611875534057617;-4.221874713897705
657;0.0;0.0;0.0;0.17763200402259827;-0.11028799414634705;1.0579839944839478;0.0;0.0;0.0
659;0.0;0.0;0.0;0.22448000311851501;-0.11028799414634705;1.0618879795074463;0.0;0.0;0.0
661;0.0;0.0;0.0;0.18544000387191772;-0.11419199407100677;1.0531039237976074;0.0;0.0;0.0
663;0.06441599875688553;0.0331839993596077;0.9374479651451111;0.17763200402259827;-0.11419199407100677;1.0579839944839478;0.3412500023841858;-17.31187629699707;-7.511875152587891
665;0.0;0.0;0.0;0.1698240041732788;-0.09857599437236786;1.0491999387741089;0.0;0.0;0.0
667;0.0;0.0;0.0;0.1542080044746399;-0.1180959939956665;1.0501760244369507;0.0;0.0;0.0
670;0.0;0.0;0.0;0.18934398889541626;-0.11419199407100677;1.0823839902877808;0.0;0.0;0.0
672;0.05709599703550339;0.027084000408649445;0.9342759847640991;0.17763200402259827;-0.1180959939956665;1.0618879795074463;2.3712499141693115;-10.241875648498535;-10.311875343322754
674;0.0;0.0;0.0;0.18544000387191772;-0.0907679945230484;1.0687199831008911;0.0;0.0;0.0
676;0.0;0.0;0.0;0.1424959897994995;-0.10638399422168732;1.0648159980773926;0.0;0.0;0.0
678;0.0;0.0;0.0;0.15030398964881897;-0.0907679945230484;1.0570080280303955;0.0;0.0;0.0
680;0.04147999733686447;0.030988000333309174;0.9428159594535828;0.1542080044746399;-0.11028799414634705;1.0648159980773926;4.8212504386901855;-5.411874771118164;-12.4818754196167
683;0.0;0.0;0.0;0.15811198949813843;-0.10638399422168732;1.0687199831008911;0.0;0.0;0.0
684;0.0;0.0;0.0;0.1542080044746399;-0.10247999429702759;1.0931199789047241;0.0;0.0;0.0
687;0.0;0.0;0.0;0.13859200477600098;-0.07905599474906921;1.0931199789047241;0.0;0.0;0.0
689;0.020739998668432236;0.04416399821639061;0.9476959705352783;0.11907199770212173;-0.07515199482440948;1.085312008857727;6.711250305175781;-2.7518749237060547;-14.301875114440918
691;0.0;0.0;0.0;0.115167997777462;-0.05563199892640114;1.085312008857727;0.0;0.0;0.0
693;0.0;0.0;0.0;0.11907199770212173;-0.06734399497509003;1.0814080238342285;0.0;0.0;0.0
695;0.0;0.0;0.0;0.10443200170993805;-0.05953599885106087;1.097999930381775;0.0;0.0;0.0
697;0.0056119998916983604;0.06734399497509003;0.958187997341156;0.16201600432395935;-0.05563199892640114;1.0892159938812256;7.411250114440918;-1.5618749856948853;-15.281875610351562
699;0.0;0.0;0.0;0.11907199770212173;-0.04001599922776222;1.0931199789047241;0.0;0.0;0.0
701;0.0;0.0;0.0;0.115167997777462;-0.0634399950504303;1.0970239639282227;0.0;0.0;0.0
704;0.0;0.0;0.0;0.16591998934745789;-0.04782399907708168;1.0892159938812256;0.0;0.0;0.0
706;0.00878399983048439;0.08466799557209015;0.9747799634933472;0.15030398964881897;-0.0634399950504303;1.101904034614563;6.781250476837158;-1.4918750524520874;-16.121875762939453
708;0.0;0.0;0.0;0.14640000462532043;-0.03611199930310249;1.1184959411621094;0.0;0.0;0.0
710;0.0;0.0;0.0;0.13078400492668152;-0.024399999529123306;1.101904034614563;0.0;0.0;0.0
712;0.0;0.0;0.0;0.11907199770212173;-0.032207999378442764;1.1028800010681152;0.0;0.0;0.0
714;0.01756799966096878;0.09979599714279175;0.9757559895515442;0.13859200477600098;-0.01268799975514412;1.0784800052642822;5.871250152587891;-1.421875;-16.821874618530273
717;0.0;0.0;0.0;0.16201600432395935;-0.028303999453783035;1.122399926185608;0.0;0.0;0.0
719;0.0;0.0;0.0;0.15811198949813843;-0.024399999529123306;1.1067839860916138;0.0;0.0;0.0
721;0.0;0.0;0.0;0.16591998934745789;-0.020495999604463577;1.1184959411621094;0.0;0.0;0.0
723;0.033427998423576355;0.11224000155925751;0.9799039959907532;0.15030398964881897;-0.01268799975514412;1.0940959453582764;4.681250095367432;-0.44187501072883606;-17.451875686645508
725;0.0;0.0;0.0;0.15811198949813843;-0.028303999453783035;1.0901919603347778;0.0;0.0;0.0
727;0.0;0.0;0.0;0.16591998934745789;-0.004879999905824661;1.0940959453582764;0.0;0.0;0.0
729;0.0;0.0;0.0;0.13078400492668152;-0.01268799975514412;1.097999930381775;0.0;0.0;0.0
731;0.03635599836707115;0.1105320006608963;0.9740479588508606;0.1542080044746399;-0.032207999378442764;1.1028800010681152;3.0712499618530273;0.8181250095367432;-17.031875610351562
733;0.0;0.0;0.0;0.13859200477600098;-0.04001599922776222;1.097999930381775;0.0;0.0;0.0
736;0.0;0.0;0.0;0.16591998934745789;-0.04001599922776222;1.0862879753112793;0.0;0.0;0.0
738;0.0;0.0;0.0;0.13859200477600098;-0.04001599922776222;1.0901919603347778;0.0;0.0;0.0
740;0.01781199872493744;0.09930799901485443;0.9650200009346008;0.12297599762678146;-0.05563199892640114;1.097999930381775;2.231250047683716;2.4981250762939453;-17.661874771118164
742;0.0;0.0;0.0;0.15030398964881897;-0.028303999453783035;1.0931199789047241;0.0;0.0;0.0
744;0.0;0.0;0.0;0.115167997777462;-0.04782399907708168;1.1175199747085571;0.0;0.0;0.0
746;0.0;0.0;0.0;0.10443200170993805;-0.032207999378442764;1.10971200466156;0.0;0.0;0.0
748;0.0017079999670386314;0.09686800092458725;0.9694119691848755;0.11126399785280228;-0.024399999529123306;1.10971200466156;2.161249876022339;3.0581250190734863;-18.22187614440918
751;0.0;0.0;0.0;0.11907199770212173;-0.04391999915242195;1.1136159896850586;0.0;0.0;0.0
753;0.0;0.0;0.0;0.13859200477600098;-0.04001599922776222;1.097999930381775;0.0;0.0;0.0
755;0.0;0.0;0.0;0.115167997777462;-0.05172799900174141;1.1058080196380615;0.0;0.0;0.0
757;-0.007319999858736992;0.10028399527072906;0.9706319570541382;0.10052800178527832;-0.004879999905824661;1.101904034614563;1.881250023841858;1.3781249523162842;-18.22187614440918
759;0.0;0.0;0.0;0.1268799901008606;-0.028303999453783035;1.097999930381775;0.0;0.0;0.0
761;0.0;0.0;0.0;0.12297599762678146;-0.028303999453783035;1.085312008857727;0.0;0.0;0.0
763;0.0;0.0;0.0;0.09662400186061859;-0.01268799975514412;1.1136159896850586;0.0;0.0;0.0
765;-0.004879999905824661;0.1105320006608963;0.9694119691848755;0.09272000193595886;-0.020495999604463577;1.097999930381775;1.3912500143051147;-0.37187498807907104;-18.571874618530273
768;0.0;0.0;0.0;0.1268799901008606;-0.01659199967980385;1.1058080196380615;0.0;0.0;0.0
770;0.0;0.0;0.0;0.11907199770212173;-0.024399999529123306;1.1058080196380615;0.0;0.0;0.0
772;0.0;0.0;0.0;0.09272000193595886;-0.028303999453783035;1.122399926185608;0.0;0.0;0.0
774;-0.010003999806940556;0.12346399575471878;0.9828319549560547;0.11907199770212173;-0.00878399983048439;1.1136159896850586;0.27125000953674316;-0.861875057220459;-19.201875686645508
776;0.0;0.0;0.0;0.13078400492668152;0.006831999868154526;1.1302080154418945;0.0;0.0;0.0
778;0.0;0.0;0.0;0.11907199770212173;-0.01268799975514412;1.126304030418396;0.0;0.0;0.0
780;0.0;0.0;0.0;0.11907199770212173;-0.00878399983048439;1.0892159938812256;0.0;0.0;0.0
782;-0.011711999773979187;0.12785600125789642;0.9918599724769592;0.09955199807882309;0.006831999868154526;1.101904034614563;-2.1787500381469727;-1.1418750286102295;-20.251874923706055
784;0.0;0.0;0.0;0.10345599800348282;-0.00878399983048439;1.122399926185608;0.0;0.0;0.0
787;0.0;0.0;0.0;0.12297599762678146;-0.01268799975514412;1.1302080154418945;0.0;0.0;0.0
789;0.0;0.0;0.0;0.10833600163459778;0.014639999717473984;1.1184959411621094;0.0;0.0;0.0
791;-0.0058559998869895935;0.1210239976644516;0.9845399856567383;0.10052800178527832;-0.01268799975514412;1.085312008857727;-4.34874963760376;-1.9818750619888306;-20.951875686645508
793;0.0;0.0;0.0;0.10345599800348282;-0.01268799975514412;1.0901919603347778;0.0;0.0;0.0
795;0.0;0.0;0.0;0.13078400492668152;-0.020495999604463577;1.0940959453582764;0.0;0.0;0.0
797;0.0;0.0;0.0;0.11907199770212173;-0.05563199892640114;1.0823839902877808;0.0;0.0;0.0
799;0.004391999915242195;0.10589599609375;0.9662399888038635;0.13859200477600098;-0.05172799900174141;1.0618879795074463;-5.048749923706055;-3.591874837875366;-21.091875076293945
802;0.0;0.0;0.0;0.15811198949813843;-0.0634399950504303;1.0901919603347778;0.0;0.0;0.0
804;0.0;0.0;0.0;0.14640000462532043;-0.032207999378442764;1.0696959495544434;0.0;0.0;0.0
806;0.0;0.0;0.0;0.1542080044746399;-0.08295999467372894;1.0862879753112793;0.0;0.0;0.0
808;0.021715998649597168;0.0849120020866394;0.9464759826660156;0.14640000462532043;-0.08295999467372894;1.0823839902877808;-3.858750104904175;-3.9418749809265137;-21.021875381469727
810;0.0;0.0;0.0;0.16591998934745789;-0.05172799900174141;1.0579839944839478;0.0;0.0;0.0
812;0.0;0.0;0.0;0.1424959897994995;-0.05953599885106087;1.073599934577942;0.0;0.0;0.0
814;0.0;0.0;0.0;0.15030398964881897;-0.07515199482440948;1.073599934577942;0.0;0.0;0.0
816;0.0302559994161129;0.07149200141429901;0.9374479651451111;0.1424959897994995;-0.0907679945230484;1.0823839902877808;-1.6187500953674316;-1.9118750095367432;-20.531875610351562
819;0.0;0.0;0.0;0.15030398964881897;-0.07905599474906921;1.0775039196014404;0.0;0.0;0.0
821;0.0;0.0;0.0;0.1542080044746399;-0.0634399950504303;1.0618879795074463;0.0;0.0;0.0
823;0.0;0.0;0.0;0.1424959897994995;-0.0634399950504303;1.0784800052642822;0.0;0.0;0.0
825;0.023423999547958374;0.06954000145196915;0.944767951965332;0.12297599762678146;-0.0634399950504303;1.097999930381775;0.27125000953674316;2.9181251525878906;-19.901874542236328
827;0.0;0.0;0.0;0.13859200477600098;-0.0634399950504303;1.0901919603347778;0.0;0.0;0.0
829;0.0;0.0;0.0;0.13859200477600098;-0.028303999453783035;1.101904034614563;0.0;0.0;0.0
831;0.0;0.0;0.0;0.115167997777462;-0.028303999453783035;1.1184959411621094;0.0;0.0;0.0
833;0.005367999896407127;0.09272000193595886;0.9689239859580994;0.1268799901008606;-0.00878399983048439;1.126304030418396;1.6012499332427979;8.378124237060547;-20.321874618530273
836;0.0;0.0;0.0;0.13468798995018005;-0.028303999453783035;1.146799921989441;0.0;0.0;0.0
838;0.0;0.0;0.0;0.13859200477600098;-0.004879999905824661;1.1428959369659424;0.0;0.0;0.0
840;0.0;0.0;0.0;0.1424959897994995;-0.01268799975514412;1.1594879627227783;0.0;0.0;0.0
842;0.00634399987757206;0.1290760040283203;1.0089399814605713;0.11126399785280228;0.010735999792814255;1.1633919477462769;1.53125;11.668124198913574;-20.461875915527344
844;0.0;0.0;0.0;0.11126399785280228;0.02635199949145317;1.1663199663162231;0.0;0.0;0.0
846;0.0;0.0;0.0;0.12297599762678146;0.049775999039411545;1.182911992073059;0.0;0.0;0.0
848;0.0;0.0;0.0;0.11126399785280228;0.03806399926543236;1.1907199621200562;0.0;0.0;0.0
850;-0.00024399999529123306;0.1647000014781952;1.0477359294891357;0.09662400186061859;0.057583998888731;1.1946239471435547;-0.7087500095367432;12.508124351501465;-19.411874771118164
853;0.0;0.0;0.0;0.09662400186061859;0.04196799919009209;1.2034080028533936;0.0;0.0;0.0
855;0.0;0.0;0.0;0.13078400492668152;0.03415999934077263;1.1868159770965576;0.0;0.0;0.0
857;0.0;0.0;0.0;0.10443200170993805;0.053679998964071274;1.2151199579238892;0.0;0.0;0.0
859;-0.007563999854028225;0.18007199466228485;1.070915937423706;0.10052800178527832;0.02635199949145317;1.2190239429473877;-4.278749942779541;10.33812427520752;-17.731876373291016
861;0.0;0.0;0.0;0.09272000193595886;0.053679998964071274;1.2190239429473877;0.0;0.0;0.0
863;0.0;0.0;0.0;0.09272000193595886;0.03806399926543236;1.2034080028533936;0.0;0.0;0.0
865;0.0;0.0;0.0;0.08881600201129913;0.04196799919009209;1.2112159729003906;0.0;0.0;0.0
867;-0.01781199872493744;0.1798280030488968;1.077015995979309;0.11126399785280228;0.0302559994161129;1.199504017829895;-8.338749885559082;5.368124961853027;-15.841875076293945
870;0.0;0.0;0.0;0.0849120020866394;0.0302559994161129;1.207311987876892;0.0;0.0;0.0
872;0.0;0.0;0.0;0.0849120020866394;0.02635199949145317;1.1624159812927246;0.0;0.0;0.0
874;0.0;0.0;0.0;0.10735999792814255;0.014639999717473984;1.199504017829895;0.0;0.0;0.0
876;-0.022935999557375908;0.16103999316692352;1.0577399730682373;0.07710400223731995;0.006831999868154526;1.1624159812927246;-11.838749885559082;-1.6318750381469727;-13.671875
878;0.0;0.0;0.0;0.12297599762678146;-0.00878399983048439;1.1546080112457275;0.0;0.0;0.0
880;0.0;0.0;0.0;0.115167997777462;-0.01268799975514412;1.1380159854888916;0.0;0.0;0.0
882;0.0;0.0;0.0;0.11907199770212173;-0.01268799975514412;1.1428959369659424;0.0;0.0;0.0
884;-0.008539999835193157;0.12931999564170837;1.0250439643859863;0.1542080044746399;-0.0009759999811649323;1.134112000465393;-13.448750495910645;-7.161874771118164;-12.971875190734863
887;0.0;0.0;0.0;0.14640000462532043;-0.028303999453783035;1.146799921989441;0.0;0.0;0.0
889;0.0;0.0;0.0;0.16591998934745789;-0.028303999453783035;1.1058080196380615;0.0;0.0;0.0
891;0.0;0.0;0.0;0.15030398964881897;-0.05172799900174141;1.097999930381775;0.0;0.0;0.0
893;0.027327999472618103;0.09662400186061859;0.9862479567527771;0.1815359890460968;-0.07905599474906921;1.0931199789047241;-13.168750762939453;-9.051875114440918;-12.831875801086426
895;0.0;0.0;0.0;0.14640000462532043;-0.07124799489974976;1.0940959453582764;0.0;0.0;0.0
897;0.0;0.0;0.0;0.1542080044746399;-0.08686399459838867;1.0618879795074463;0.0;0.0;0.0
899;0.0;0.0;0.0;0.15030398964881897;-0.08295999467372894;1.0657919645309448;0.0;0.0;0.0
901;0.032207999378442764;0.05660799890756607;0.9406200051307678;0.14640000462532043;-0.07905599474906921;1.0335839986801147;-10.788750648498535;-6.461874961853027;-12.131875038146973
904;0.0;0.0;0.0;0.1815359890460968;-0.0907679945230484;1.0579839944839478;0.0;0.0;0.0
906;0.0;0.0;0.0;0.15811198949813843;-0.10247999429702759;1.0618879795074463;0.0;0.0;0.0
908;0.0;0.0;0.0;0.1698240041732788;-0.10247999429702759;1.0531039237976074;0.0;0.0;0.0
910;0.049531999975442886;0.03928399831056595;0.9306159615516663;0.18544000387191772;-0.1180959939956665;1.0413919687271118;-6.658750057220459;-1.4918750524520874;-12.551875114440918
912;0.0;0.0;0.0;0.1424959897994995;-0.1180959939956665;1.0540800094604492;0.0;0.0;0.0
914;0.0;0.0;0.0;0.15030398964881897;-0.1298079937696457;1.0413919687271118;0.0;0.0;0.0
916;0.0;0.0;0.0;0.1268799901008606;-0.1298079937696457;1.0579839944839478;0.0;0.0;0.0
918;0.030743999406695366;0.015371999703347683;0.9132919907569885;0.11907199770212173;-0.1298079937696457;1.0579839944839478;-1.408750057220459;4.10812520980835;-12.341875076293945
921;0.0;0.0;0.0;0.11126399785280228;-0.11419199407100677;1.0374879837036133;0.0;0.0;0.0
923;0.0;0.0;0.0;0.11126399785280228;-0.13761599361896515;1.0657919645309448;0.0;0.0;0.0
925;0.0;0.0;0.0;0.10443200170993805;-0.13371199369430542;1.0862879753112793;0.0;0.0;0.0
927;-0.009271999821066856;0.017324000597000122;0.9420839548110962;0.06929600238800049;-0.11028799414634705;1.0862879753112793;4.471250057220459;7.258125305175781;-12.831875801086426
929;0.0;0.0;0.0;0.10345599800348282;-0.10638399422168732;1.097999930381775;0.0;0.0;0.0
931;0.0;0.0;0.0;0.10052800178527832;-0.07124799489974976;1.1058080196380615;0.0;0.0;0.0
933;0.0;0.0;0.0;0.09272000193595886;-0.08295999467372894;1.1175199747085571;0.0;0.0;0.0
935;-0.03415999934077263;0.03855200111865997;0.9791719913482666;0.08003199845552444;-0.06734399497509003;1.1380159854888916;7.831250190734863;7.258125305175781;-13.951875686645508
938;0.0;0.0;0.0;0.06148799881339073;-0.0907679945230484;1.122399926185608;0.0;0.0;0.0
940;0.0;0.0;0.0;0.10345599800348282;-0.06734399497509003;1.126304030418396;0.0;0.0;0.0
942;0.0;0.0;0.0;0.0849120020866394;-0.03611199930310249;1.175104022026062;0.0;0.0;0.0
944;-0.03294000029563904;0.08149600028991699;1.0182119607925415;0.10052800178527832;-0.04391999915242195;1.150704026222229;7.341250419616699;5.718125343322754;-15.9818754196167
946;0.0;0.0;0.0;0.08881600201129913;-0.004879999905824661;1.1799839735031128;0.0;0.0;0.0
948;0.0;0.0;0.0;0.11126399785280228;-0.00878399983048439;1.1760799884796143;0.0;0.0;0.0
950;0.0;0.0;0.0;0.115167997777462;-0.024399999529123306;1.1672959327697754;0.0;0.0;0.0
952;-0.01512799970805645;0.12077999860048294;1.0411479473114014;0.1268799901008606;-0.004879999905824661;1.1672959327697754;3.5612499713897705;2.8481252193450928;-17.38187599182129
955;0.0;0.0;0.0;0.11126399785280228;-0.01659199967980385;1.1799839735031128;0.0;0.0;0.0
957;0.0;0.0;0.0;0.1424959897994995;0.018543999642133713;1.1799839735031128;0.0;0.0;0.0
959;0.0;0.0;0.0;0.115167997777462;0.006831999868154526;1.1555839776992798;0.0;0.0;0.0
961;-0.00317199993878603;0.13859200477600098;1.0418800115585327;0.13859200477600098;-0.004879999905824661;1.1594879627227783;-1.1287500858306885;-0.02187499962747097;-17.10187530517578
963;0.0;0.0;0.0;0.11126399785280228;0.010735999792814255;1.1712000370025635;0.0;0.0;0.0
965;0.0;0.0;0.0;0.09662400186061859;0.0302559994161129;1.150704026222229;0.0;0.0;0.0
967;0.0;0.0;0.0;0.1268799901008606;-0.0009759999811649323;1.1633919477462769;0.0;0.0;0.0
969;-0.0021959999576210976;0.14298400282859802;1.0250439643859863;0.1268799901008606;0.0029279999434947968;1.1272799968719482;-5.048749923706055;-3.9418749809265137;-15.771875381469727
972;0.0;0.0;0.0;0.13468798995018005;-0.004879999905824661;1.122399926185608;0.0;0.0;0.0
974;0.0;0.0;0.0;0.13859200477600098;-0.020495999604463577;1.146799921989441;0.0;0.0;0.0
976;0.0;0.0;0.0;0.11907199770212173;-0.028303999453783035;1.1145919561386108;0.0;0.0;0.0
978;0.013663999736309052;0.12639199197292328;0.98990797996521;0.14640000462532043;-0.020495999604463577;1.0901919603347778;-7.358749866485596;-7.931874752044678;-13.811875343322754
980;0.0;0.0;0.0;0.13859200477600098;-0.028303999453783035;1.085312008857727;0.0;0.0;0.0
982;0.0;0.0;0.0;0.15811198949813843;-0.04391999915242195;1.0931199789047241;0.0;0.0;0.0
984;0.0;0.0;0.0;0.1698240041732788;-0.032207999378442764;1.0814080238342285;0.0;0.0;0.0
986;0.035868000239133835;0.10247999429702759;0.9557479619979858;0.18934398889541626;-0.04001599922776222;1.060912013053894;-6.798749923706055;-8.351875305175781;-12.41187572479248
989;0.0;0.0;0.0;0.17372798919677734;-0.05172799900174141;1.085312008857727;0.0;0.0;0.0
991;0.0;0.0;0.0;0.1698240041732788;-0.01659199967980385;1.0931199789047241;0.0;0.0;0.0
993;0.0;0.0;0.0;0.18544000387191772;-0.01268799975514412;1.073599934577942;0.0;0.0;0.0
995;0.05270399898290634;0.0983319953083992;0.9547719955444336;0.1815359890460968;-0.028303999453783035;1.0931199789047241;-4.698750019073486;-4.991874694824219;-10.801875114440918
997;0.0;0.0;0.0;0.17763200402259827;-0.00878399983048439;1.1106879711151123;0.0;0.0;0.0
999;0.0;0.0;0.0;0.18934398889541626;-0.03611199930310249;1.0862879753112793;0.0;0.0;0.0
1001;0.0;0.0;0.0;0.16591998934745789;-0.032207999378442764;1.0862879753112793;0.0;0.0;0.0
1003;0.045871999114751816;0.10174799710512161;0.9608719944953918;0.15811198949813843;-0.04782399907708168;1.0784800052642822;-3.158750057220459;-1.1418750286102295;-9.191875457763672
1006;0.0;0.0;0.0;0.1542080044746399;-0.04391999915242195;1.0940959453582764;0.0;0.0;0.0
1008;0.0;0.0;0.0;0.15030398964881897;-0.03611199930310249;1.0784800052642822;0.0;0.0;0.0
1010;0.0;0.0;0.0;0.1268799901008606;-0.01268799975514412;1.1145919561386108;0.0;0.0;0.0
1012;0.024399999529123306;0.09759999811649323;0.9711199998855591;0.10345599800348282;-0.01268799975514412;1.1145919561386108;-2.2487499713897705;2.568125009536743;-8.141875267028809
1014;0.0;0.0;0.0;0.1424959897994995;-0.04001599922776222;1.1350879669189453;0.0;0.0;0.0
1016;0.0;0.0;0.0;0.15030398964881897;-0.0009759999811649323;1.1145919561386108;0.0;0.0;0.0
1018;0.0;0.0;0.0;0.13859200477600098;-0.04391999915242195;1.1311839818954468;0.0;0.0;0.0
1020;0.018543999642133713;0.11004399508237839;0.9923479557037354;0.13859200477600098;-0.032207999378442764;1.1145919561386108;-3.298750162124634;4.388124942779541;-8.001874923706055
1023;0.0;0.0;0.0;0.12297599762678146;-0.04001599922776222;1.1350879669189453;0.0;0.0;0.0
1025;0.0;0.0;0.0;0.1424959897994995;-0.05563199892640114;1.1184959411621094;0.0;0.0;0.0
1027;0.0;0.0;0.0;0.115167997777462;-0.07124799489974976;1.1106879711151123;0.0;0.0;0.0
1029;-0.0012199999764561653;0.08661999553442001;0.9889319539070129;0.11126399785280228;-0.05563199892640114;1.1272799968719482;-4.768749713897705;5.648125171661377;-7.721874713897705
1031;0.0;0.0;0.0;0.10052800178527832;-0.07124799489974976;1.126304030418396;0.0;0.0;0.0
1033;0.0;0.0;0.0;0.12297599762678146;-0.07124799489974976;1.1136159896850586;0.0;0.0;0.0
1035;0.0;0.0;0.0;0.11614400148391724;-0.05172799900174141;1.1136159896850586;0.0;0.0;0.0
1037;-0.014883999712765217;0.07197999954223633;0.9906399846076965;0.10052800178527832;-0.08295999467372894;1.1302080154418945;-5.608749866485596;4.948124885559082;-8.281875610351562
1040;0.0;0.0;0.0;0.09272000193595886;-0.07905599474906921;1.1058080196380615;0.0;0.0;0.0
1042;0.0;0.0;0.0;0.10345599800348282;-0.07515199482440948;1.1302080154418945;0.0;0.0;0.0
1044;0.0;0.0;0.0;0.06539200246334076;-0.08295999467372894;1.1136159896850586;0.0;0.0;0.0
1046;-0.03245199844241142;0.059779997915029526;0.9945439696311951;0.11907199770212173;-0.05953599885106087;1.1175199747085571;-5.398749828338623;2.218125104904175;-9.191875457763672
1048;0.0;0.0;0.0;0.08881600201129913;-0.06734399497509003;1.1546080112457275;0.0;0.0;0.0
1050;0.0;0.0;0.0;0.09272000193595886;-0.07905599474906921;1.122399926185608;0.0;0.0;0.0
1052;0.0;0.0;0.0;0.0849120020866394;-0.07124799489974976;1.1058080196380615;0.0;0.0;0.0
1054;-0.026839999482035637;0.05538799986243248;1.0003999471664429;0.09272000193595886;-0.07124799489974976;1.146799921989441;-5.18874979019165;-1.421875;-10.941875457763672
1057;0.0;0.0;0.0;0.09662400186061859;-0.08686399459838867;1.134112000465393;0.0;0.0;0.0
1059;0.0;0.0;0.0;0.10735999792814255;-0.09857599437236786;1.101904034614563;0.0;0.0;0.0
1061;0.0;0.0;0.0;0.0849120020866394;-0.10638399422168732;1.097999930381775;0.0;0.0;0.0
1063;-0.02025200054049492;0.0453839972615242;0.9874680042266846;0.09564799815416336;-0.09857599437236786;1.085312008857727;-4.978749752044678;-4.571875095367432;-12.341875076293945
1065;0.0;0.0;0.0;0.10833600163459778;-0.11028799414634705;1.1067839860916138;0.0;0.0;0.0
1067;0.0;0.0;0.0;0.13468798995018005;-0.10638399422168732;1.1145919561386108;0.0;0.0;0.0
1069;0.0;0.0;0.0;0.11907199770212173;-0.08295999467372894;1.097999930381775;0.0;0.0;0.0
1072;0.00951599981635809;0.045871999114751816;0.9713639616966248;0.14640000462532043;-0.10638399422168732;1.1184959411621094;-4.208749771118164;-5.271874904632568;-13.741875648498535
1074;0.0;0.0;0.0;0.1424959897994995;-0.07515199482440948;1.0696959495544434;0.0;0.0;0.0
1076;0.0;0.0;0.0;0.1542080044746399;-0.04391999915242195;1.0862879753112793;0.0;0.0;0.0
1078;0.0;0.0;0.0;0.1268799901008606;-0.07124799489974976;1.0940959453582764;0.0;0.0;0.0
1080;0.014639999717473984;0.054899998009204865;0.9681919813156128;0.12297599762678146;-0.0634399950504303;1.097999930381775;-3.298750162124634;-2.541874885559082;-15.07187557220459
1082;0.0;0.0;0.0;0.1268799901008606;-0.06734399497509003;1.097999930381775;0.0;0.0;0.0
1084;0.0;0.0;0.0;0.11126399785280228;-0.08295999467372894;1.097999930381775;0.0;0.0;0.0
1086;0.0;0.0;0.0;0.13859200477600098;-0.09857599437236786;1.10971200466156;0.0;0.0;0.0
1088;0.006587999872863293;0.06954000145196915;0.9718520045280457;0.11907199770212173;-0.06734399497509003;1.122399926185608;-2.7387499809265137;0.398125022649765;-15.9818754196167
1091;0.0;0.0;0.0;0.11907199770212173;-0.04391999915242195;1.1136159896850586;0.0;0.0;0.0
1093;0.0;0.0;0.0;0.115167997777462;-0.032207999378442764;1.0970239639282227;0.0;0.0;0.0
1095;0.0;0.0;0.0;0.11224000155925751;-0.07905599474906921;1.1136159896850586;0.0;0.0;0.0
1097;-0.009759999811649323;0.09198799729347229;0.9821000099182129;0.09272000193595886;-0.024399999529123306;1.0931199789047241;-2.8787500858306885;1.5181249380111694;-15.9818754196167
1099;0.0;0.0;0.0;0.09272000193595886;-0.05563199892640114;1.0940959453582764;0.0;0.0;0.0
1101;0.0;0.0;0.0;0.10052800178527832;-0.03611199930310249;1.1106879711151123;0.0;0.0;0.0
1103;0.0;0.0;0.0;0.115167997777462;-0.04001599922776222;1.1145919561386108;0.0;0.0;0.0
1105;-0.018300000578165054;0.09711199998855591;0.9796599745750427;0.115167997777462;-0.04391999915242195;1.0823839902877808;-2.8087501525878906;-0.3018749952316284;-15.701875686645508
1108;0.0;0.0;0.0;0.09955199807882309;-0.04782399907708168;1.0862879753112793;0.0;0.0;0.0
1110;0.0;0.0;0.0;0.10443200170993805;-0.05953599885106087;1.0940959453582764;0.0;0.0;0.0
1112;0.0;0.0;0.0;0.10052800178527832;-0.04391999915242195;1.1106879711151123;0.0;0.0;0.0
1114;-0.010735999792814255;0.08906000107526779;0.9667279720306396;0.10052800178527832;-0.04001599922776222;1.0745760202407837;-0.9887499809265137;-3.591874837875366;-15.351875305175781
1116;0.0;0.0;0.0;0.12297599762678146;-0.05172799900174141;1.0901919603347778;0.0;0.0;0.0
1118;0.0;0.0;0.0;0.1268799901008606;-0.03611199930310249;1.0618879795074463;0.0;0.0;0.0
1120;0.0;0.0;0.0;0.11614400148391724;-0.05953599885106087;1.0901919603347778;0.0;0.0;0.0
1123;-0.0009759999811649323;0.08564399927854538;0.9467200040817261;0.11224000155925751;-0.05172799900174141;1.0696959495544434;3.0712499618530273;-9.751875877380371;-13.671875
1125;0.0;0.0;0.0;0.13468798995018005;-0.04001599922776222;1.0657919645309448;0.0;0.0;0.0
1127;0.0;0.0;0.0;0.1424959897994995;-0.03611199930310249;1.0823839902877808;0.0;0.0;0.0
1129;0.0;0.0;0.0;0.14640000462532043;-0.032207999378442764;1.0657919645309448;0.0;0.0;0.0
1131;0.014639999717473984;0.09955199807882309;0.9469639658927917;0.1424959897994995;-0.032207999378442764;1.0696959495544434;8.53125;-17.731876373291016;-10.171875
1133;0.0;0.0;0.0;0.14640000462532043;-0.03611199930310249;1.073599934577942;0.0;0.0;0.0
1135;0.0;0.0;0.0;0.15030398964881897;-0.01659199967980385;1.073599934577942;0.0;0.0;0.0
1137;0.0;0.0;0.0;0.17763200402259827;-0.01268799975514412;1.0775039196014404;0.0;0.0;0.0
1140;0.031231999397277832;0.12199999392032623;0.9494040012359619;0.13859200477600098;-0.024399999529123306;1.0892159938812256;12.731249809265137;-21.441875457763672;-6.811874866485596
1142;0.0;0.0;0.0;0.1815359890460968;0.010735999792814255;1.0775039196014404;0.0;0.0;0.0
1144;0.0;0.0;0.0;0.16201600432395935;0.0029279999434947968;1.0814080238342285;0.0;0.0;0.0
1146;0.0;0.0;0.0;0.15030398964881897;0.006831999868154526;1.101904034614563;0.0;0.0;0.0
1148;0.037087999284267426;0.14054399728775024;0.9696559906005859;0.13859200477600098;-0.0009759999811649323;1.1175199747085571;14.061249732971191;-19.901874542236328;-4.921875
1150;0.0;0.0;0.0;0.1424959897994995;-0.004879999905824661;1.122399926185608;0.0;0.0;0.0
1152;0.0;0.0;0.0;0.14640000462532043;0.014639999717473984;1.1184959411621094;0.0;0.0;0.0
1154;0.0;0.0;0.0;0.1424959897994995;0.014639999717473984;1.101904034614563;0.0;0.0;0.0
1157;0.025863999500870705;0.15079200267791748;0.9891759753227234;0.16201600432395935;0.006831999868154526;1.1272799968719482;11.541250228881836;-16.47187614440918;-4.711874961853027
1159;0.0;0.0;0.0;0.15811198949813843;-0.00878399983048439;1.1311839818954468;0.0;0.0;0.0
1161;0.0;0.0;0.0;0.17372798919677734;-0.0009759999811649323;1.146799921989441;0.0;0.0;0.0
1163;0.0;0.0;0.0;0.13859200477600098;-0.01659199967980385;1.122399926185608;0.0;0.0;0.0
1165;0.02537599951028824;0.13346800208091736;0.9989359974861145;0.11907199770212173;-0.020495999604463577;1.146799921989441;6.5712504386901855;-11.991875648498535;-5.621874809265137
1167;0.0;0.0;0.0;0.1542080044746399;-0.03611199930310249;1.126304030418396;0.0;0.0;0.0
1169;0.0;0.0;0.0;0.13859200477600098;-0.04001599922776222;1.126304030418396;0.0;0.0;0.0
1171;0.0;0.0;0.0;0.13859200477600098;-0.07515199482440948;1.1175199747085571;0.0;0.0;0.0
1174;0.01659199967980385;0.09930799901485443;0.9901520013809204;0.1424959897994995;-0.07124799489974976;1.0892159938812256;1.181249976158142;-7.511875152587891;-6.881875038146973
1176;0.0;0.0;0.0;0.1424959897994995;-0.04782399907708168;1.0931199789047241;0.0;0.0;0.0
1178;0.0;0.0;0.0;0.115167997777462;-0.05953599885106087;1.101904034614563;0.0;0.0;0.0
1180;0.0;0.0;0.0;0.1239520013332367;-0.05563199892640114;1.097999930381775;0.0;0.0;0.0
1182;0.00878399983048439;0.07246799767017365;0.9769759774208069;0.13078400492668152;-0.05953599885106087;1.101904034614563;-1.3387500047683716;-2.9618749618530273;-8.281875610351562
1184;0.0;0.0;0.0;0.14640000462532043;-0.05172799900174141;1.1058080196380615;0.0;0.0;0.0
1186;0.0;0.0;0.0;0.14640000462532043;-0.0634399950504303;1.1175199747085571;0.0;0.0;0.0
1188;0.0;0.0;0.0;0.11614400148391724;-0.07124799489974976;1.1136159896850586;0.0;0.0;0.0
1191;0.009759999811649323;0.06173199787735939;0.982587993144989;0.13859200477600098;-0.10247999429702759;1.1175199747085571;-1.1287500858306885;0.048124998807907104;-10.101875305175781
1193;0.0;0.0;0.0;0.13468798995018005;-0.04782399907708168;1.1058080196380615;0.0;0.0;0.0
1195;0.0;0.0;0.0;0.15030398964881897;-0.07515199482440948;1.1302080154418945;0.0;0.0;0.0
1197;0.0;0.0;0.0;0.1268799901008606;-0.05953599885106087;1.1380159854888916;0.0;0.0;0.0
1199;0.004147999919950962;0.07295599579811096;0.9984479546546936;0.13468798995018005;-0.05953599885106087;1.1302080154418945;-0.9187500476837158;1.728124976158142;-10.871875762939453
1201;0.0;0.0;0.0;0.13468798995018005;-0.04001599922776222;1.126304030418396;0.0;0.0;0.0
1203;0.0;0.0;0.0;0.14640000462532043;-0.00878399983048439;1.1302080154418945;0.0;0.0;0.0
1205;0.0;0.0;0.0;0.12297599762678146;-0.024399999529123306;1.158511996269226;0.0;0.0;0.0
1208;0.0056119998916983604;0.10516399890184402;1.019919991493225;0.1268799901008606;0.018543999642133713;1.1546080112457275;-2.528749942779541;2.568125009536743;-10.801875114440918
1210;0.0;0.0;0.0;0.11907199770212173;-0.024399999529123306;1.1624159812927246;0.0;0.0;0.0
1212;0.0;0.0;0.0;0.13078400492668152;0.006831999868154526;1.146799921989441;0.0;0.0;0.0
1214;0.0;0.0;0.0;0.13078400492668152;-0.00878399983048439;1.158511996269226;0.0;0.0;0.0
1216;0.0058559998869895935;0.12590399384498596;1.028216004371643;0.14640000462532043;-0.004879999905824661;1.146799921989441;-4.768749713897705;2.63812518119812;-11.431875228881836
1218;0.0;0.0;0.0;0.1542080044746399;0.0029279999434947968;1.1419199705123901;0.0;0.0;0.0
1220;0.0;0.0;0.0;0.11907199770212173;0.022447999566793442;1.150704026222229;0.0;0.0;0.0
1222;0.0;0.0;0.0;0.1268799901008606;0.018543999642133713;1.158511996269226;0.0;0.0;0.0
1225;0.015371999703347683;0.13639599084854126;1.026263952255249;0.16591998934745789;0.045871999114751816;1.1624159812927246;-6.728749752044678;2.148125171661377;-11.361875534057617
1227;0.0;0.0;0.0;0.15030398964881897;0.0302559994161129;1.150704026222229;0.0;0.0;0.0
1229;0.0;0.0;0.0;0.17763200402259827;-0.0009759999811649323;1.150704026222229;0.0;0.0;0.0
1231;0.0;0.0;0.0;0.12297599762678146;0.010735999792814255;1.158511996269226;0.0;0.0;0.0
1233;0.013419999741017818;0.1395680010318756;1.02675199508667;0.10345599800348282;0.006831999868154526;1.134112000465393;-8.338749885559082;0.46812501549720764;-9.611875534057617
1235;0.0;0.0;0.0;0.13078400492668152;0.006831999868154526;1.1389919519424438;0.0;0.0;0.0
1237;0.0;0.0;0.0;0.12297599762678146;-0.01268799975514412;1.1555839776992798;0.0;0.0;0.0
1239;0.0;0.0;0.0;0.11907199770212173;-0.0009759999811649323;1.146799921989441;0.0;0.0;0.0
1242;0.004879999905824661;0.13053999841213226;1.014307975769043;0.14640000462532043;-0.04001599922776222;1.1389919519424438;-9.87874984741211;-2.1918749809265137;-8.001874923706055
1244;0.0;0.0;0.0;0.13468798995018005;-0.04001599922776222;1.1272799968719482;0.0;0.0;0.0
1246;0.0;0.0;0.0;0.11907199770212173;-0.024399999529123306;1.1145919561386108;0.0;0.0;0.0
1248;0.0;0.0;0.0;0.13859200477600098;-0.004879999905824661;1.122399926185608;0.0;0.0;0.0
1250;0.014639999717473984;0.11224000155925751;0.9957639575004578;0.14640000462532043;-0.0009759999811649323;1.101904034614563;-10.648750305175781;-2.8918750286102295;-8.001874923706055
1252;0.0;0.0;0.0;0.12297599762678146;-0.04782399907708168;1.0931199789047241;0.0;0.0;0.0
1254;0.0;0.0;0.0;0.1424959897994995;-0.04001599922776222;1.097999930381775;0.0;0.0;0.0
1256;0.0;0.0;0.0;0.1698240041732788;-0.04001599922776222;1.101904034614563;0.0;0.0;0.0
1259;0.024643998593091965;0.0936959981918335;0.9735599756240845;0.1542080044746399;-0.04001599922776222;1.0814080238342285;-10.36875057220459;-1.2818750143051147;-8.631875038146973
1261;0.0;0.0;0.0;0.16591998934745789;-0.04782399907708168;1.0648159980773926;0.0;0.0;0.0
1263;0.0;0.0;0.0;0.1268799901008606;-0.04001599922776222;1.0931199789047241;0.0;0.0;0.0
1265;0.0;0.0;0.0;0.1542080044746399;-0.05172799900174141;1.0814080238342285;0.0;0.0;0.0
1267;0.03537999838590622;0.08198399841785431;0.9523319602012634;0.18544000387191772;-0.04001599922776222;1.0531039237976074;-8.478750228881836;1.3781249523162842;-8.91187572479248
1269;0.0;0.0;0.0;0.16201600432395935;-0.04782399907708168;1.0648159980773926;0.0;0.0;0.0
1271;0.0;0.0;0.0;0.16201600432395935;-0.05953599885106087;1.0970239639282227;0.0;0.0;0.0
1273;0.0;0.0;0.0;0.1542080044746399;-0.05563199892640114;1.0892159938812256;0.0;0.0;0.0
1276;0.03903999924659729;0.08759599924087524;0.9547719955444336;0.1542080044746399;-0.028303999453783035;1.10971200466156;-5.048749923706055;4.528125286102295;-8.421875
1278;0.0;0.0;0.0;0.17372798919677734;-0.020495999604463577;1.097999930381775;0.0;0.0;0.0
1280;0.0;0.0;0.0;0.13859200477600098;-0.020495999604463577;1.1136159896850586;0.0;0.0;0.0
1282;0.0;0.0;0.0;0.13078400492668152;-0.01659199967980385;1.1302080154418945;0.0;0.0;0.0
1284;0.022447999566793442;0.11272799968719482;0.9808799624443054;0.14640000462532043;-0.032207999378442764;1.126304030418396;-1.4787499904632568;4.878125190734863;-6.601874828338623
1286;0.0;0.0;0.0;0.13859200477600098;0.0029279999434947968;1.126304030418396;0.0;0.0;0.0
1288;0.0;0.0;0.0;0.13078400492668152;0.022447999566793442;1.1311839818954468;0.0;0.0;0.0
1290;0.0;0.0;0.0;0.15811198949813843;0.03415999934077263;1.1350879669189453;0.0;0.0;0.0
1293;0.017079999670386314;0.1495719999074936;1.0025960206985474;0.13859200477600098;0.02635199949145317;1.122399926185608;0.5512499809265137;0.398125022649765;-3.171875
1295;0.0;0.0;0.0;0.11126399785280228;0.053679998964071274;1.1389919519424438;0.0;0.0;0.0
1297;0.0;0.0;0.0;0.14640000462532043;0.06539200246334076;1.1311839818954468;0.0;0.0;0.0
1299;0.0;0.0;0.0;0.1542080044746399;0.06929600238800049;1.1145919561386108;0.0;0.0;0.0
1301;0.02025200054049492;0.18251200020313263;1.0045479536056519;0.16201600432395935;0.06148799881339073;1.122399926185608;0.27125000953674316;-3.171875;0.6781249642372131
1303;0.0;0.0;0.0;0.11126399785280228;0.06539200246334076;1.122399926185608;0.0;0.0;0.0
1305;0.0;0.0;0.0;0.1424959897994995;0.049775999039411545;1.1145919561386108;0.0;0.0;0.0
1308;0.0;0.0;0.0;0.17763200402259827;0.06539200246334076;1.1272799968719482;0.0;0.0;0.0
1310;0.03294000029563904;0.2054480016231537;1.001863956451416;0.13468798995018005;0.09272000193595886;1.1311839818954468;-1.3387500047683716;-3.8718748092651367;4.178124904632568
1312;0.0;0.0;0.0;0.14640000462532043;0.0849120020866394;1.1350879669189453;0.0;0.0;0.0
1314;0.0;0.0;0.0;0.1698240041732788;0.06148799881339073;1.126304030418396;0.0;0.0;0.0
1316;0.0;0.0;0.0;0.1698240041732788;0.06929600238800049;1.1145919561386108;0.0;0.0;0.0
1318;0.037331998348236084;0.21032799780368805;0.9943000078201294;0.13078400492668152;0.06929600238800049;1.1184959411621094;-4.068749904632568;-3.5218749046325684;7.888124942779541
1320;0.0;0.0;0.0;0.16201600432395935;0.06929600238800049;1.0940959453582764;0.0;0.0;0.0
1322;0.0;0.0;0.0;0.13468798995018005;0.08100800216197968;1.0862879753112793;0.0;0.0;0.0
1325;0.0;0.0;0.0;0.1815359890460968;0.049775999039411545;1.0775039196014404;0.0;0.0;0.0
1327;0.04147999733686447;0.19154000282287598;0.9620919823646545;0.15811198949813843;0.045871999114751816;1.0696959495544434;-6.448750019073486;-2.681874990463257;10.828125
1329;0.0;0.0;0.0;0.16201600432395935;0.03415999934077263;1.0452959537506104;0.0;0.0;0.0
1331;0.0;0.0;0.0;0.17763200402259827;0.0302559994161129;1.0452959537506104;0.0;0.0;0.0
1333;0.0;0.0;0.0;0.15811198949813843;0.0029279999434947968;1.0130879878997803;0.0;0.0;0.0
1335;0.05392399802803993;0.15786799788475037;0.9171959757804871;0.1815359890460968;0.010735999792814255;1.0169919729232788;-6.798749923706055;0.8181250095367432;13.068124771118164
1337;0.0;0.0;0.0;0.17372798919677734;0.006831999868154526;1.0169919729232788;0.0;0.0;0.0
1339;0.0;0.0;0.0;0.15811198949813843;-0.020495999604463577;1.0130879878997803;0.0;0.0;0.0
1342;0.0;0.0;0.0;0.20495998859405518;-0.04391999915242195;1.0130879878997803;0.0;0.0;0.0
1344;0.053435999900102615;0.12663599848747253;0.8910880088806152;0.1698240041732788;-0.01659199967980385;1.0052800178527832;-4.628749847412109;6.068125247955322;15.58812427520752
1346;0.0;0.0;0.0;0.15811198949813843;-0.0009759999811649323;1.0247999429702759;0.0;0.0;0.0
1348;0.0;0.0;0.0;0.16201600432395935;-0.020495999604463577;1.0335839986801147;0.0;0.0;0.0
1350;0.0;0.0;0.0;0.19715198874473572;-0.01659199967980385;1.0296800136566162;0.0;0.0;0.0
1352;0.04879999905824661;0.11297199875116348;0.8957239985466003;0.1815359890460968;-0.028303999453783035;1.0531039237976074;-1.4787499904632568;10.2681245803833;17.548124313354492
1354;0.0;0.0;0.0;0.1815359890460968;-0.04001599922776222;1.0247999429702759;0.0;0.0;0.0
1356;0.0;0.0;0.0;0.18544000387191772;-0.01659199967980385;1.0413919687271118;0.0;0.0;0.0
1359;0.0;0.0;0.0;0.1698240041732788;-0.03611199930310249;1.0696959495544434;0.0;0.0;0.0
1361;0.04660400003194809;0.10223599523305893;0.9152439832687378;0.1542080044746399;-0.04391999915242195;1.0491999387741089;1.7412500381469727;13.698124885559082;19.298124313354492
1363;0.0;0.0;0.0;0.15811198949813843;-0.04782399907708168;1.1028800010681152;0.0;0.0;0.0
1365;0.0;0.0;0.0;0.12297599762678146;-0.020495999604463577;1.1028800010681152;0.0;0.0;0.0
1367;0.0;0.0;0.0;0.1424959897994995;-0.04391999915242195;1.101904034614563;0.0;0.0;0.0
1369;0.0226919986307621;0.10491999983787537;0.9606279730796814;0.15030398964881897;-0.04001599922776222;1.122399926185608;3.771250009536743;15.098124504089355;21.048124313354492
1371;0.0;0.0;0.0;0.14640000462532043;-0.032207999378442764;1.1428959369659424;0.0;0.0;0.0
1373;0.0;0.0;0.0;0.12297599762678146;-0.04001599922776222;1.126304030418396;0.0;0.0;0.0
1376;0.0;0.0;0.0;0.10833600163459778;-0.03611199930310249;1.1350879669189453;0.0;0.0;0.0
1378;0.005123999901115894;0.09564799815416336;1.0025960206985474;0.09272000193595886;-0.06734399497509003;1.1428959369659424;3.28125;14.608124732971191;22.02812385559082
1380;0.0;0.0;0.0;0.0849120020866394;-0.06734399497509003;1.1350879669189453;0.0;0.0;0.0
1382;0.0;0.0;0.0;0.08100800216197968;-0.05563199892640114;1.146799921989441;0.0;0.0;0.0
1384;0.0;0.0;0.0;0.0849120020866394;-0.05953599885106087;1.1594879627227783;0.0;0.0;0.0
1386;-0.022935999557375908;0.08003199845552444;1.0228480100631714;0.0849120020866394;-0.03611199930310249;1.1633919477462769;2.091249942779541;12.0181245803833;20.27812385559082
1388;0.0;0.0;0.0;0.10735999792814255;-0.08686399459838867;1.1516799926757812;0.0;0.0;0.0
1390;0.0;0.0;0.0;0.12297599762678146;-0.08686399459838867;1.1428959369659424;0.0;0.0;0.0
1393;0.0;0.0;0.0;0.10443200170993805;-0.07124799489974976;1.1428959369659424;0.0;0.0;0.0
1395;-0.02122800052165985;0.05831599980592728;1.024067997932434;0.10345599800348282;-0.08295999467372894;1.1555839776992798;0.6912499666213989;8.938124656677246;17.89812469482422
1397;0.0;0.0;0.0;0.07320000231266022;-0.08686399459838867;1.1428959369659424;0.0;0.0;0.0
1399;0.0;0.0;0.0;0.07710400223731995;-0.09467199444770813;1.122399926185608;0.0;0.0;0.0
1401;0.0;0.0;0.0;0.09662400186061859;-0.04782399907708168;1.1350879669189453;0.0;0.0;0.0
1403;-0.023423999547958374;0.05660799890756607;0.9984479546546936;0.115167997777462;-0.0907679945230484;1.122399926185608;0.27125000953674316;5.85812520980835;15.658124923706055
1405;0.0;0.0;0.0;0.11907199770212173;-0.07124799489974976;1.122399926185608;0.0;0.0;0.0
1407;0.0;0.0;0.0;0.10735999792814255;-0.09857599437236786;1.097999930381775;0.0;0.0;0.0
1410;0.0;0.0;0.0;0.13859200477600098;-0.07905599474906921;1.1067839860916138;0.0;0.0;0.0
1412;-0.006831999868154526;0.052947998046875;0.9786840081214905;0.11126399785280228;-0.09467199444770813;1.1272799968719482;0.3412500023841858;5.578125;12.998125076293945
1414;0.0;0.0;0.0;0.10052800178527832;-0.07124799489974976;1.0823839902877808;0.0;0.0;0.0
1416;0.0;0.0;0.0;0.10052800178527832;-0.07124799489974976;1.1106879711151123;0.0;0.0;0.0
1418;0.0;0.0;0.0;0.09272000193595886;-0.08295999467372894;1.1145919561386108;0.0;0.0;0.0
1420;-0.010491999797523022;0.05319199711084366;0.9706319570541382;0.09662400186061859;-0.08295999467372894;1.101904034614563;0.13124999403953552;7.468125343322754;10.058124542236328
1422;0.0;0.0;0.0;0.10443200170993805;-0.0634399950504303;1.0823839902877808;0.0;0.0;0.0
1424;0.0;0.0;0.0;0.10833600163459778;-0.08295999467372894;1.0940959453582764;0.0;0.0;0.0
1427;0.0;0.0;0.0;0.0849120020866394;-0.0634399950504303;1.097999930381775;0.0;0.0;0.0
1429;-0.018543999642133713;0.05929199978709221;0.9642879962921143;0.115167997777462;-0.07515199482440948;1.0940959453582764;1.3212499618530273;6.978125095367432;8.23812484741211
1431;0.0;0.0;0.0;0.09174399822950363;-0.05953599885106087;1.101904034614563;0.0;0.0;0.0
1433;0.0;0.0;0.0;0.115167997777462;-0.08295999467372894;1.1106879711151123;0.0;0.0;0.0
1435;0.0;0.0;0.0;0.07710400223731995;-0.03611199930310249;1.097999930381775;0.0;0.0;0.0
1437;-0.018055999651551247;0.07661599665880203;0.9738039970397949;0.10443200170993805;-0.032207999378442764;1.1145919561386108;4.261250019073486;4.598124980926514;8.028124809265137
1439;0.0;0.0;0.0;0.11126399785280228;-0.05172799900174141;1.1136159896850586;0.0;0.0;0.0
1441;0.0;0.0;0.0;0.10443200170993805;-0.04001599922776222;1.1175199747085571;0.0;0.0;0.0
1444;0.0;0.0;0.0;0.09272000193595886;-0.020495999604463577;1.126304030418396;0.0;0.0;0.0
1446;-0.019763998687267303;0.09955199807882309;0.994055986404419;0.08881600201129913;-0.01268799975514412;1.1302080154418945;7.271250247955322;1.5181249380111694;9.008124351501465
1448;0.0;0.0;0.0;0.10052800178527832;-0.00878399983048439;1.134112000465393;0.0;0.0;0.0
1450;0.0;0.0;0.0;0.115167997777462;-0.01659199967980385;1.1419199705123901;0.0;0.0;0.0
1452;0.0;0.0;0.0;0.07320000231266022;-0.00878399983048439;1.1175199747085571;0.0;0.0;0.0
1454;-0.03245199844241142;0.11955999583005905;1.0003999471664429;0.08881600201129913;0.0029279999434947968;1.146799921989441;9.7212495803833;-1.5618749856948853;9.848124504089355
1456;0.0;0.0;0.0;0.08881600201129913;-0.024399999529123306;1.126304030418396;0.0;0.0;0.0
1458;0.0;0.0;0.0;0.10052800178527832;-0.01268799975514412;1.126304030418396;0.0;0.0;0.0
1461;0.0;0.0;0.0;0.0849120020866394;-0.004879999905824661;1.146799921989441;0.0;0.0;0.0
1463;-0.02757199853658676;0.1268799901008606;1.009671926498413;0.10345599800348282;-0.01268799975514412;1.1428959369659424;10.561249732971191;-3.241874933242798;9.148124694824219
1465;0.0;0.0;0.0;0.09955199807882309;-0.004879999905824661;1.126304030418396;0.0;0.0;0.0
1467;0.0;0.0;0.0;0.10735999792814255;-0.01268799975514412;1.1380159854888916;0.0;0.0;0.0
1469;0.0;0.0;0.0;0.09662400186061859;-0.0009759999811649323;1.1302080154418945;0.0;0.0;0.0
1471;-0.013663999736309052;0.12468399852514267;1.0155279636383057;0.1424959897994995;-0.01268799975514412;1.150704026222229;9.861249923706055;-3.031874895095825;8.028124809265137
1473;0.0;0.0;0.0;0.10735999792814255;-0.03611199930310249;1.1350879669189453;0.0;0.0;0.0
1475;0.0;0.0;0.0;0.10052800178527832;-0.04782399907708168;1.1555839776992798;0.0;0.0;0.0
1478;0.0;0.0;0.0;0.10443200170993805;-0.024399999529123306;1.1311839818954468;0.0;0.0;0.0
1480;-0.006587999872863293;0.115167997777462;1.013819932937622;0.1424959897994995;-0.028303999453783035;1.1633919477462769;8.251249313354492;-1.2818750143051147;6.69812536239624
1482;0.0;0.0;0.0;0.11907199770212173;-0.032207999378442764;1.1633919477462769;0.0;0.0;0.0
1484;0.0;0.0;0.0;0.10345599800348282;-0.024399999529123306;1.126304030418396;0.0;0.0;0.0
1486;0.0;0.0;0.0;0.1268799901008606;-0.024399999529123306;1.126304030418396;0.0;0.0;0.0
1488;-0.0009759999811649323;0.10931199789047241;1.014307975769043;0.115167997777462;-0.024399999529123306;1.146799921989441;6.081250190734863;1.9381250143051147;5.018125057220459
1491;0.0;0.0;0.0;0.0878399983048439;-0.020495999604463577;1.1311839818954468;0.0;0.0;0.0
1492;0.0;0.0;0.0;0.10833600163459778;-0.04391999915242195;1.1428959369659424;0.0;0.0;0.0
1495;0.0;0.0;0.0;0.1268799901008606;-0.04391999915242195;1.1272799968719482;0.0;0.0;0.0
1497;-0.013175999745726585;0.10809199512004852;1.0167479515075684;0.115167997777462;-0.032207999378442764;1.150704026222229;3.981250047683716;5.508125305175781;2.9881250858306885
1499;0.0;0.0;0.0;0.1268799901008606;-0.01659199967980385;1.1555839776992798;0.0;0.0;0.0
1501;0.0;0.0;0.0;0.09662400186061859;-0.0009759999811649323;1.1428959369659424;0.0;0.0;0.0
1503;0.0;0.0;0.0;0.09662400186061859;0.0029279999434947968;1.1633919477462769;0.0;0.0;0.0
1505;-0.02659599855542183;0.11834000051021576;1.0284600257873535;0.07320000231266022;-0.01268799975514412;1.1633919477462769;1.881250023841858;6.628125190734863;1.168125033378601
1508;0.0;0.0;0.0;0.07710400223731995;-0.020495999604463577;1.1555839776992798;0.0;0.0;0.0
1510;0.0;0.0;0.0;0.07320000231266022;-0.004879999905824661;1.1428959369659424;0.0;0.0;0.0
1512;0.0;0.0;0.0;0.10735999792814255;0.022447999566793442;1.1428959369659424;0.0;0.0;0.0
1514;-0.03562399744987488;0.12614800035953522;1.02675199508667;0.08100800216197968;0.022447999566793442;1.1389919519424438;0.4112499952316284;4.038125038146973;0.5381249785423279
1516;0.0;0.0;0.0;0.09272000193595886;0.022447999566793442;1.1555839776992798;0.0;0.0;0.0
1518;0.0;0.0;0.0;0.09662400186061859;0.010735999792814255;1.1555839776992798;0.0;0.0;0.0
1520;0.0;0.0;0.0;0.0849120020866394;-0.01268799975514412;1.1555839776992798;0.0;0.0;0.0
1522;-0.025863999500870705;0.13712799549102783;1.0235799551010132;0.08100800216197968;0.0029279999434947968;1.1389919519424438;-0.008749999105930328;1.3781249523162842;0.46812501549720764
1524;0.0;0.0;0.0;0.09955199807882309;-0.004879999905824661;1.1389919519424438;0.0;0.0;0.0
1527;0.0;0.0;0.0;0.07710400223731995;0.0029279999434947968;1.1350879669189453;0.0;0.0;0.0
1529;0.0;0.0;0.0;0.08881600201129913;0.0302559994161129;1.1555839776992798;0.0;0.0;0.0
1531;-0.024643998593091965;0.14859600365161896;1.0213840007781982;0.115167997777462;0.0302559994161129;1.1555839776992798;-0.5687500238418579;0.6081249713897705;0.8181250095367432
1533;0.0;0.0;0.0;0.12297599762678146;0.010735999792814255;1.1350879669189453;0.0;0.0;0.0
1535;0.0;0.0;0.0;0.08100800216197968;0.014639999717473984;1.1516799926757812;0.0;0.0;0.0
1537;0.0;0.0;0.0;0.1268799901008606;-0.004879999905824661;1.1428959369659424;0.0;0.0;0.0
1539;-0.013419999741017818;0.15054799616336823;1.017967939376831;0.11907199770212173;-0.020495999604463577;1.126304030418396;-1.6187500953674316;0.398125022649765;1.0281249284744263
1541;0.0;0.0;0.0;0.12297599762678146;-0.0009759999811649323;1.1428959369659424;0.0;0.0;0.0
1544;0.0;0.0;0.0;0.11907199770212173;-0.00878399983048439;1.1350879669189453;0.0;0.0;0.0
1546;0.0;0.0;0.0;0.13859200477600098;0.006831999868154526;1.1350879669189453;0.0;0.0;0.0
1548;0.008539999835193157;0.14761999249458313;1.0091840028762817;0.11907199770212173;-0.00878399983048439;1.1145919561386108;-3.018749952316284;0.9581249952316284;1.5881249904632568
1550;0.0;0.0;0.0;0.1268799901008606;0.018543999642133713;1.1350879669189453;0.0;0.0;0.0
1552;0.0;0.0;0.0;0.13859200477600098;0.0029279999434947968;1.101904034614563;0.0;0.0;0.0
1554;0.0;0.0;0.0;0.11907199770212173;0.0029279999434947968;1.1272799968719482;0.0;0.0;0.0
1556;0.013419999741017818;0.13419999182224274;0.9972279667854309;0.1268799901008606;-0.004879999905824661;1.1145919561386108;-4.488749980926514;2.9181251525878906;2.778125047683716
1559;0.0;0.0;0.0;0.1268799901008606;-0.024399999529123306;1.1106879711151123;0.0;0.0;0.0
1561;0.0;0.0;0.0;0.12297599762678146;-0.04391999915242195;1.101904034614563;0.0;0.0;0.0
1563;0.0;0.0;0.0;0.12297599762678146;-0.032207999378442764;1.1106879711151123;0.0;0.0;0.0
1565;0.00317199993878603;0.11541199684143066;0.9872239828109741;0.1542080044746399;-0.01659199967980385;1.1184959411621094;-5.538749694824219;5.158124923706055;3.268125057220459
1567;0.0;0.0;0.0;0.13078400492668152;-0.05563199892640114;1.1067839860916138;0.0;0.0;0.0
1569;0.0;0.0;0.0;0.09955199807882309;-0.03611199930310249;1.1106879711151123;0.0;0.0;0.0
1571;0.0;0.0;0.0;0.115167997777462;-0.04391999915242195;1.1067839860916138;0.0;0.0;0.0
1573;-0.0058559998869895935;0.09759999811649323;0.9796599745750427;0.09662400186061859;-0.03611199930310249;1.0901919603347778;-5.328749656677246;5.508125305175781;3.1281251907348633
1576;0.0;0.0;0.0;0.13078400492668152;-0.04782399907708168;1.1145919561386108;0.0;0.0;0.0
1578;0.0;0.0;0.0;0.09955199807882309;-0.04782399907708168;1.0823839902877808;0.0;0.0;0.0
1580;0.0;0.0;0.0;0.10833600163459778;-0.07905599474906921;1.0901919603347778;0.0;0.0;0.0
1582;-0.0058559998869895935;0.08369199931621552;0.9694119691848755;0.09955199807882309;-0.05563199892640114;1.0901919603347778;-3.9987499713897705;3.828125;2.9881250858306885
1584;0.0;0.0;0.0;0.11907199770212173;-0.05563199892640114;1.0901919603347778;0.0;0.0;0.0
1586;0.0;0.0;0.0;0.12297599762678146;-0.07124799489974976;1.0862879753112793;0.0;0.0;0.0
1588;0.0;0.0;0.0;0.12297599762678146;-0.04391999915242195;1.0940959453582764;0.0;0.0;0.0
1590;0.003415999934077263;0.07759200036525726;0.9594079852104187;0.13859200477600098;-0.07515199482440948;1.0823839902877808;-1.8987500667572021;1.168125033378601;3.0581250190734863
1593;0.0;0.0;0.0;0.15811198949813843;-0.05953599885106087;1.0657919645309448;0.0;0.0;0.0
1595;0.0;0.0;0.0;0.13468798995018005;-0.04391999915242195;1.0823839902877808;0.0;0.0;0.0
1597;0.0;0.0;0.0;0.13859200477600098;-0.04782399907708168;1.0823839902877808;0.0;0.0;0.0
1599;0.019276000559329987;0.08003199845552444;0.9506239891052246;0.16201600432395935;-0.020495999604463577;1.0901919603347778;0.9012500047683716;-0.6518750190734863;3.198125123977661
1601;0.0;0.0;0.0;0.1268799901008606;-0.05953599885106087;1.0823839902877808;0.0;0.0;0.0
1603;0.0;0.0;0.0;0.13859200477600098;-0.04391999915242195;1.0823839902877808;0.0;0.0;0.0
1605;0.0;0.0;0.0;0.1424959897994995;-0.024399999529123306;1.0940959453582764;0.0;0.0;0.0
1607;0.025619998574256897;0.09467199444770813;0.9562360048294067;0.16201600432395935;-0.020495999604463577;1.0823839902877808;3.141249895095825;-0.6518750190734863;3.828125
1610;0.0;0.0;0.0;0.1298079937696457;-0.027327999472618103;1.0862879753112793;0.0;0.0;0.0
1612;0.0;0.0;0.0;0.14932799339294434;-0.023423999547958374;1.0901919603347778;0.0;0.0;0.0
1614;0.0;0.0;0.0;0.13761599361896515;-0.03903999924659729;1.0862879753112793;0.0;0.0;0.0
1616;0.022935999557375908;0.11199599504470825;0.9694119691848755;0.13371199369430542;-0.011711999773979187;1.097999930381775;3.351249933242798;0.2581250071525574;4.458125114440918
1618;0.0;0.0;0.0;0.1571359932422638;-0.031231999397277832;1.1067839860916138;0.0;0.0;0.0
1620;0.0;0.0;0.0;0.13761599361896515;-0.04684799909591675;1.097999930381775;0.0;0.0;0.0
1622;0.0;0.0;0.0;0.13761599361896515;-0.027327999472618103;1.0940959453582764;0.0;0.0;0.0
1624;0.019763998687267303;0.1193159967660904;0.9777079820632935;0.11028799414634705;-0.023423999547958374;1.097999930381775;2.4412500858306885;1.5881249904632568;4.878125190734863
1627;0.0;0.0;0.0;0.13078400492668152;0.0029279999434947968;1.101904034614563;0.0;0.0;0.0
1629;0.0;0.0;0.0;0.13078400492668152;-0.01659199967980385;1.0940959453582764;0.0;0.0;0.0
1631;0.0;0.0;0.0;0.13078400492668152;-0.00878399983048439;1.1106879711151123;0.0;0.0;0.0
1633;0.0056119998916983604;0.11858399957418442;0.9777079820632935;0.115167997777462;-0.04001599922776222;1.101904034614563;1.881250023841858;3.0581250190734863;4.388124942779541
1635;0.0;0.0;0.0;0.13859200477600098;-0.028303999453783035;1.1028800010681152;0.0;0.0;0.0
1637;0.0;0.0;0.0;0.11907199770212173;-0.01659199967980385;1.0940959453582764;0.0;0.0;0.0
1639;0.0;0.0;0.0;0.11614400148391724;-0.028303999453783035;1.1106879711151123;0.0;0.0;0.0
1641;0.0004879999905824661;0.12126799672842026;0.9750239849090576;0.12297599762678146;0.014639999717473984;1.1028800010681152;2.231250047683716;4.318125247955322;4.038125038146973
1644;0.0;0.0;0.0;0.1424959897994995;0.0029279999434947968;1.101904034614563;0.0;0.0;0.0
1646;0.0;0.0;0.0;0.10052800178527832;-0.020495999604463577;1.1067839860916138;0.0;0.0;0.0
1648;0.0;0.0;0.0;0.09662400186061859;0.006831999868154526;1.101904034614563;0.0;0.0;0.0
1650;-0.0004879999905824661;0.13053999841213226;0.9740479588508606;0.11224000155925751;0.0029279999434947968;1.097999930381775;2.9312500953674316;4.808125019073486;4.598124980926514
1652;0.0;0.0;0.0;0.12004800140857697;-0.032207999378442764;1.101904034614563;0.0;0.0;0.0
1654;0.0;0.0;0.0;0.10443200170993805;0.006831999868154526;1.1106879711151123;0.0;0.0;0.0
1656;0.0;0.0;0.0;0.1268799901008606;0.014639999717473984;1.073599934577942;0.0;0.0;0.0
1658;0.0058559998869895935;0.14273999631404877;0.9657520055770874;0.115167997777462;0.022447999566793442;1.0862879753112793;4.121250152587891;4.318125247955322;5.578125
1661;0.0;0.0;0.0;0.15030398964881897;0.014639999717473984;1.0823839902877808;0.0;0.0;0.0
1663;0.0;0.0;0.0;0.13078400492668152;0.010735999792814255;1.0940959453582764;0.0;0.0;0.0
1665;0.0;0.0;0.0;0.13859200477600098;0.022447999566793442;1.0823839902877808;0.0;0.0;0.0
1667;0.013175999745726585;0.15323199331760406;0.962336003780365;0.16201600432395935;0.0302559994161129;1.0784800052642822;5.451250076293945;5.088125228881836;6.138124942779541
1669;0.0;0.0;0.0;0.115167997777462;0.0302559994161129;1.0862879753112793;0.0;0.0;0.0
1671;0.0;0.0;0.0;0.13468798995018005;0.03415999934077263;1.0940959453582764;0.0;0.0;0.0
1673;0.0;0.0;0.0;0.1268799901008606;0.0302559994161129;1.0940959453582764;0.0;0.0;0.0
1675;0.018300000578165054;0.16152799129486084;0.9720959663391113;0.12297599762678146;0.04196799919009209;1.122399926185608;5.941250324249268;6.978125095367432;6.768125057220459
1678;0.0;0.0;0.0;0.1542080044746399;0.02635199949145317;1.101904034614563;0.0;0.0;0.0
1680;0.0;0.0;0.0;0.13859200477600098;0.018543999642133713;1.1067839860916138;0.0;0.0;0.0
1682;0.0;0.0;0.0;0.11126399785280228;0.02635199949145317;1.0940959453582764;0.0;0.0;0.0
1684;0.0026839999482035637;0.16299200057983398;0.9772199988365173;0.10735999792814255;0.014639999717473984;1.0940959453582764;5.241250038146973;8.23812484741211;8.168124198913574
1686;0.0;0.0;0.0;0.12004800140857697;0.049775999039411545;1.0901919603347778;0.0;0.0;0.0
1688;0.0;0.0;0.0;0.10443200170993805;0.022447999566793442;1.1272799968719482;0.0;0.0;0.0
1690;0.0;0.0;0.0;0.07710400223731995;0.022447999566793442;1.1272799968719482;0.0;0.0;0.0
1692;-0.019519999623298645;0.1727519929409027;0.9838079810142517;0.09272000193595886;0.0302559994161129;1.1106879711151123;4.611250400543213;7.468125343322754;9.078125
1695;0.0;0.0;0.0;0.07710400223731995;0.04196799919009209;1.1184959411621094;0.0;0.0;0.0
1697;0.0;0.0;0.0;0.09272000193595886;0.03806399926543236;1.101904034614563;0.0;0.0;0.0
1699;0.0;0.0;0.0;0.08881600201129913;0.03806399926543236;1.1106879711151123;0.0;0.0;0.0
1701;-0.029523998498916626;0.17202000319957733;0.9862479567527771;0.10052800178527832;0.049775999039411545;1.097999930381775;4.681250095367432;4.808125019073486;9.358124732971191
1703;0.0;0.0;0.0;0.09662400186061859;0.045871999114751816;1.1272799968719482;0.0;0.0;0.0
1705;0.0;0.0;0.0;0.12297599762678146;0.057583998888731;1.1145919561386108;0.0;0.0;0.0
1707;0.0;0.0;0.0;0.09662400186061859;0.045871999114751816;1.1184959411621094;0.0;0.0;0.0
1709;-0.015371999703347683;0.17323999106884003;0.9847840070724487;0.10735999792814255;0.06539200246334076;1.1145919561386108;5.521250247955322;3.0581250190734863;9.498125076293945
1712;0.0;0.0;0.0;0.09662400186061859;0.022447999566793442;1.1145919561386108;0.0;0.0;0.0
1714;0.0;0.0;0.0;0.13078400492668152;0.045871999114751816;1.1350879669189453;0.0;0.0;0.0
1716;0.0;0.0;0.0;0.09662400186061859;0.06539200246334076;1.126304030418396;0.0;0.0;0.0
1718;-0.014639999717473984;0.18104799091815948;0.9911279678344727;0.115167997777462;0.03806399926543236;1.1145919561386108;6.221250057220459;2.3581252098083496;11.038125038146973
1720;0.0;0.0;0.0;0.13468798995018005;0.04196799919009209;1.122399926185608;0.0;0.0;0.0
1722;0.0;0.0;0.0;0.08100800216197968;0.049775999039411545;1.126304030418396;0.0;0.0;0.0
1724;0.0;0.0;0.0;0.13468798995018005;0.04196799919009209;1.1350879669189453;0.0;0.0;0.0
1726;-0.01634800061583519;0.19105198979377747;1.0033279657363892;0.10735999792814255;0.06539200246334076;1.1516799926757812;5.871250152587891;2.008125066757202;12.858124732971191
1729;0.0;0.0;0.0;0.09955199807882309;0.07320000231266022;1.1272799968719482;0.0;0.0;0.0
1731;0.0;0.0;0.0;0.08100800216197968;0.07320000231266022;1.1516799926757812;0.0;0.0;0.0
1733;0.0;0.0;0.0;0.09662400186061859;0.06148799881339073;1.1350879669189453;0.0;0.0;0.0
1735;-0.023667998611927032;0.19397999346256256;1.00381600856781;0.10735999792814255;0.07320000231266022;1.1389919519424438;3.911249876022339;1.8681249618530273;13.558124542236328
1737;0.0;0.0;0.0;0.10833600163459778;0.06929600238800049;1.1389919519424438;0.0;0.0;0.0
1739;0.0;0.0;0.0;0.10345599800348282;0.08100800216197968;1.1389919519424438;0.0;0.0;0.0
1741;0.0;0.0;0.0;0.08100800216197968;0.03415999934077263;1.1145919561386108;0.0;0.0;0.0
1743;-0.01781199872493744;0.18129199743270874;1.0011320114135742;0.09662400186061859;0.049775999039411545;1.1106879711151123;0.27125000953674316;3.5481250286102295;12.788125038146973
1746;0.0;0.0;0.0;0.11907199770212173;0.04196799919009209;1.126304030418396;0.0;0.0;0.0
1748;0.0;0.0;0.0;0.11907199770212173;0.03415999934077263;1.1175199747085571;0.0;0.0;0.0
1750;0.0;0.0;0.0;0.09564799815416336;0.049775999039411545;1.126304030418396;0.0;0.0;0.0
1752;-0.010735999792814255;0.17641200125217438;0.9945439696311951;0.10735999792814255;0.03806399926543236;1.126304030418396;-2.8787500858306885;7.048125267028809;11.668124198913574
1754;0.0;0.0;0.0;0.11126399785280228;0.049775999039411545;1.150704026222229;0.0;0.0;0.0
1756;0.0;0.0;0.0;0.09662400186061859;0.04196799919009209;1.1175199747085571;0.0;0.0;0.0
1758;0.0;0.0;0.0;0.08881600201129913;0.045871999114751816;1.1175199747085571;0.0;0.0;0.0
1760;-0.020983999595046043;0.17836399376392365;0.9960079789161682;0.09662400186061859;0.018543999642133713;1.10971200466156;-5.258749961853027;8.23812484741211;12.158124923706055
1763;0.0;0.0;0.0;0.0849120020866394;0.0302559994161129;1.097999930381775;0.0;0.0;0.0
1765;0.0;0.0;0.0;0.10443200170993805;0.03415999934077263;1.1106879711151123;0.0;0.0;0.0
1767;0.0;0.0;0.0;0.0878399983048439;0.03415999934077263;1.1106879711151123;0.0;0.0;0.0
1769;-0.03562399744987488;0.17494799196720123;0.9862479567527771;0.0849120020866394;0.057583998888731;1.122399926185608;-7.008749961853027;6.558125019073486;13.278124809265137
1771;0.0;0.0;0.0;0.07710400223731995;0.06148799881339073;1.1145919561386108;0.0;0.0;0.0
1773;0.0;0.0;0.0;0.0849120020866394;0.03806399926543236;1.1106879711151123;0.0;0.0;0.0
1775;0.0;0.0;0.0;0.0849120020866394;0.0302559994161129;1.1106879711151123;0.0;0.0;0.0
1777;-0.044652000069618225;0.17202000319957733;0.9838079810142517;0.09955199807882309;0.03806399926543236;1.1145919561386108;-8.05875015258789;3.6181252002716064;14.468124389648438
1780;0.0;0.0;0.0;0.09272000193595886;0.0302559994161129;1.1145919561386108;0.0;0.0;0.0
1782;0.0;0.0;0.0;0.06929600238800049;0.014639999717473984;1.101904034614563;0.0;0.0;0.0
1784;0.0;0.0;0.0;0.0849120020866394;0.02635199949145317;1.101904034614563;0.0;0.0;0.0
1786;-0.040991999208927155;0.16030800342559814;0.9757559895515442;0.06539200246334076;0.02635199949145317;1.1145919561386108;-8.05875015258789;-1.2818750143051147;15.868124961853027
1788;0.0;0.0;0.0;0.08100800216197968;0.018543999642133713;1.0862879753112793;0.0;0.0;0.0
1790;0.0;0.0;0.0;0.09272000193595886;0.006831999868154526;1.0784800052642822;0.0;0.0;0.0
1792;0.0;0.0;0.0;0.10443200170993805;-0.01268799975514412;1.0657919645309448;0.0;0.0;0.0
1794;-0.021715998649597168;0.14469200372695923;0.957211971282959;0.12297599762678146;-0.01268799975514412;1.0775039196014404;-6.798749923706055;-5.621874809265137;17.688125610351562
1797;0.0;0.0;0.0;0.11224000155925751;-0.0009759999811649323;1.0452959537506104;0.0;0.0;0.0
1799;0.0;0.0;0.0;0.115167997777462;0.018543999642133713;1.0452959537506104;0.0;0.0;0.0
1801;0.0;0.0;0.0;0.12297599762678146;-0.0009759999811649323;1.073599934577942;0.0;0.0;0.0
1803;-0.0012199999764561653;0.130295991897583;0.9420839548110962;0.11907199770212173;-0.01268799975514412;1.073599934577942;-4.488749980926514;-5.481874942779541;18.878124237060547
1805;0.0;0.0;0.0;0.15811198949813843;0.0029279999434947968;1.0784800052642822;0.0;0.0;0.0
1807;0.0;0.0;0.0;0.11907199770212173;-0.028303999453783035;1.0823839902877808;0.0;0.0;0.0
1809;0.0;0.0;0.0;0.13859200477600098;-0.024399999529123306;1.0775039196014404;0.0;0.0;0.0
1811;0.016835998743772507;0.11907199770212173;0.945743978023529;0.15030398964881897;-0.004879999905824661;1.0784800052642822;-2.108750104904175;-2.4018750190734863;19.998125076293945
1814;0.0;0.0;0.0;0.1424959897994995;-0.04001599922776222;1.0823839902877808;0.0;0.0;0.0
1816;0.0;0.0;0.0;0.13859200477600098;-0.032207999378442764;1.0823839902877808;0.0;0.0;0.0
1818;0.0;0.0;0.0;0.13859200477600098;-0.020495999604463577;1.0696959495544434;0.0;0.0;0.0
1820;0.018055999651551247;0.10272400081157684;0.9574559926986694;0.1268799901008606;-0.020495999604463577;1.0823839902877808;-0.7787500619888306;1.7981250286102295;21.11812400817871
1822;0.0;0.0;0.0;0.12297599762678146;-0.04001599922776222;1.0940959453582764;0.0;0.0;0.0
1824;0.0;0.0;0.0;0.115167997777462;-0.028303999453783035;1.1028800010681152;0.0;0.0;0.0
1826;0.0;0.0;0.0;0.10735999792814255;-0.04001599922776222;1.1350879669189453;0.0;0.0;0.0
1828;-0.0007319999858736992;0.09564799815416336;0.9730719923973083;0.10735999792814255;-0.04391999915242195;1.1145919561386108;-0.4987500011920929;5.648125171661377;20.698123931884766
1831;0.0;0.0;0.0;0.1268799901008606;-0.04001599922776222;1.1028800010681152;0.0;0.0;0.0
1833;0.0;0.0;0.0;0.09272000193595886;-0.04391999915242195;1.1311839818954468;0.0;0.0;0.0
1835;0.0;0.0;0.0;0.09955199807882309;-0.04001599922776222;1.1555839776992798;0.0;0.0;0.0
1837;-0.019519999623298645;0.09564799815416336;0.9962520003318787;0.08100800216197968;-0.01268799975514412;1.1145919561386108;-1.5487500429153442;8.168124198913574;20.2081241607666
1839;0.0;0.0;0.0;0.06929600238800049;-0.04391999915242195;1.1184959411621094;0.0;0.0;0.0
1841;0.0;0.0;0.0;0.06929600238800049;-0.024399999529123306;1.1516799926757812;0.0;0.0;0.0
1843;0.0;0.0;0.0;0.07320000231266022;-0.01268799975514412;1.1555839776992798;0.0;0.0;0.0
1845;-0.04660400003194809;0.11126399785280228;1.0230920314788818;0.08100800216197968;-0.028303999453783035;1.1477760076522827;-3.3687500953674316;7.958125114440918;19.788124084472656
1848;0.0;0.0;0.0;0.07710400223731995;-0.04391999915242195;1.150704026222229;0.0;0.0;0.0
1850;0.0;0.0;0.0;0.06539200246334076;-0.01659199967980385;1.1760799884796143;0.0;0.0;0.0
1852;0.0;0.0;0.0;0.06539200246334076;-0.04782399907708168;1.1428959369659424;0.0;0.0;0.0
1854;-0.047335997223854065;0.11614400148391724;1.034071922302246;0.07710400223731995;-0.032207999378442764;1.1712000370025635;-5.958749771118164;3.5481250286102295;19.718124389648438
1856;0.0;0.0;0.0;0.09662400186061859;-0.028303999453783035;1.1516799926757812;0.0;0.0;0.0
1858;0.0;0.0;0.0;0.0849120020866394;-0.028303999453783035;1.150704026222229;0.0;0.0;0.0
1860;0.0;0.0;0.0;0.0849120020866394;-0.03611199930310249;1.1516799926757812;0.0;0.0;0.0
1862;-0.028060000389814377;0.10150399804115295;1.0191879272460938;0.10443200170993805;-0.05563199892640114;1.1594879627227783;-8.05875015258789;-1.70187509059906;19.788124084472656
1865;0.0;0.0;0.0;0.08100800216197968;-0.04782399907708168;1.1106879711151123;0.0;0.0;0.0
1867;0.0;0.0;0.0;0.10735999792814255;-0.06734399497509003;1.101904034614563;0.0;0.0;0.0
1869;0.0;0.0;0.0;0.08881600201129913;-0.04391999915242195;1.122399926185608;0.0;0.0;0.0
1871;-0.007807999849319458;0.0832040011882782;0.9955199956893921;0.11907199770212173;-0.05563199892640114;1.122399926185608;-7.708749771118164;-5.061874866485596;20.138124465942383
1873;0.0;0.0;0.0;0.1424959897994995;-0.06734399497509003;1.097999930381775;0.0;0.0;0.0
1875;0.0;0.0;0.0;0.16201600432395935;-0.08295999467372894;1.122399926185608;0.0;0.0;0.0
1877;0.0;0.0;0.0;0.11224000155925751;-0.07905599474906921;1.0775039196014404;0.0;0.0;0.0
1879;0.012931999750435352;0.06295199692249298;0.9801479578018188;0.1424959897994995;-0.0907679945230484;1.0862879753112793;-5.818749904632568;-6.531875133514404;20.838125228881836
1882;0.0;0.0;0.0;0.14640000462532043;-0.10638399422168732;1.1145919561386108;0.0;0.0;0.0
1884;0.0;0.0;0.0;0.13078400492668152;-0.12199999392032623;1.0862879753112793;0.0;0.0;0.0
1886;0.0;0.0;0.0;0.15030398964881897;-0.16884799301624298;1.0579839944839478;0.0;0.0;0.0
1888;0.013907999731600285;0.031964000314474106;0.9630680084228516;0.10443200170993805;-0.05953599885106087;1.1106879711151123;-3.5087499618530273;-5.131875038146973;20.628124237060547
1890;0.0;0.0;0.0;0.11907199770212173;-0.09857599437236786;1.097999930381775;0.0;0.0;0.0
1892;0.0;0.0;0.0;0.1268799901008606;-0.10247999429702759;1.101904034614563;0.0;0.0;0.0
1894;0.0;0.0;0.0;0.16201600432395935;-0.07905599474906921;1.097999930381775;0.0;0.0;0.0
1896;0.009271999821066856;0.044652000069618225;0.9718520045280457;0.11126399785280228;-0.1180959939956665;1.101904034614563;-2.7387499809265137;-2.2618749141693115;19.788124084472656
1899;0.0;0.0;0.0;0.10345599800348282;-0.08686399459838867;1.0901919603347778;0.0;0.0;0.0
1901;0.0;0.0;0.0;0.13468798995018005;-0.10247999429702759;1.0775039196014404;0.0;0.0;0.0
1903;0.0;0.0;0.0;0.12297599762678146;-0.07905599474906921;1.0823839902877808;0.0;0.0;0.0
1905;-0.0058559998869895935;0.04123599827289581;0.9557479619979858;0.12297599762678146;-0.08295999467372894;1.0784800052642822;-3.4387500286102295;2.708125114440918;17.968124389648438
1907;0.0;0.0;0.0;0.10052800178527832;-0.10247999429702759;1.0901919603347778;0.0;0.0;0.0
1909;0.0;0.0;0.0;0.10345599800348282;-0.08295999467372894;1.0901919603347778;0.0;0.0;0.0
1911;0.0;0.0;0.0;0.1268799901008606;-0.05172799900174141;1.0901919603347778;0.0;0.0;0.0
1914;-0.01268799975514412;0.052947998046875;0.9576999545097351;0.12297599762678146;-0.0907679945230484;1.0940959453582764;-2.458750009536743;5.718125343322754;15.23812484741211
1916;0.0;0.0;0.0;0.10052800178527832;-0.09857599437236786;1.0823839902877808;0.0;0.0;0.0
1918;0.0;0.0;0.0;0.12297599762678146;-0.07515199482440948;1.097999930381775;0.0;0.0;0.0
1920;0.0;0.0;0.0;0.10443200170993805;-0.08295999467372894;1.0901919603347778;0.0;0.0;0.0
1922;-0.01512799970805645;0.049531999975442886;0.9518439769744873;0.06929600238800049;-0.0634399950504303;1.0823839902877808;-1.1987500190734863;5.088125228881836;14.048124313354492
1924;0.0;0.0;0.0;0.10735999792814255;-0.08295999467372894;1.0531039237976074;0.0;0.0;0.0
1926;0.0;0.0;0.0;0.13078400492668152;-0.07515199482440948;1.0940959453582764;0.0;0.0;0.0
1928;0.0;0.0;0.0;0.13468798995018005;-0.07124799489974976;1.0775039196014404;0.0;0.0;0.0
1931;-0.011223999783396721;0.05782799795269966;0.9486719965934753;0.13468798995018005;-0.07905599474906921;1.0657919645309448;0.13124999403953552;2.4281251430511475;13.278124809265137
1933;0.0;0.0;0.0;0.10052800178527832;-0.08686399459838867;1.073599934577942;0.0;0.0;0.0
1935;0.0;0.0;0.0;0.13078400492668152;-0.06734399497509003;1.0814080238342285;0.0;0.0;0.0
1937;0.0;0.0;0.0;0.10345599800348282;-0.06734399497509003;1.0775039196014404;0.0;0.0;0.0
1939;0.00951599981635809;0.05929199978709221;0.9450119733810425;0.16201600432395935;-0.05953599885106087;1.0687199831008911;1.4612499475479126;1.0981249809265137;12.998125076293945
1941;0.0;0.0;0.0;0.1424959897994995;-0.07124799489974976;1.0775039196014404;0.0;0.0;0.0
1943;0.0;0.0;0.0;0.14640000462532043;-0.07905599474906921;1.0531039237976074;0.0;0.0;0.0
1945;0.0;0.0;0.0;0.115167997777462;-0.05953599885106087;1.0726239681243896;0.0;0.0;0.0
1948;0.015615999698638916;0.07075999677181244;0.945743978023529;0.13468798995018005;-0.05563199892640114;1.0931199789047241;3.771250009536743;2.9181251525878906;13.978124618530273
1950;0.0;0.0;0.0;0.10443200170993805;-0.05953599885106087;1.097999930381775;0.0;0.0;0.0
1952;0.0;0.0;0.0;0.115167997777462;-0.05953599885106087;1.1145919561386108;0.0;0.0;0.0
1954;0.0;0.0;0.0;0.1424959897994995;-0.01659199967980385;1.122399926185608;0.0;0.0;0.0
1956;0.0004879999905824661;0.08686399459838867;0.9647759795188904;0.10052800178527832;-0.04001599922776222;1.0862879753112793;6.921250343322754;4.458125114440918;15.658124923706055
1958;0.0;0.0;0.0;0.10833600163459778;-0.03611199930310249;1.1067839860916138;0.0;0.0;0.0
1960;0.0;0.0;0.0;0.11126399785280228;-0.032207999378442764;1.0940959453582764;0.0;0.0;0.0
1962;0.0;0.0;0.0;0.10443200170993805;-0.04782399907708168;1.1184959411621094;0.0;0.0;0.0
1965;-0.018300000578165054;0.09198799729347229;0.9830759763717651;0.11224000155925751;-0.01268799975514412;1.1184959411621094;9.021249771118164;3.5481250286102295;16.91812515258789
1967;0.0;0.0;0.0;0.08881600201129913;-0.05172799900174141;1.1311839818954468;0.0;0.0;0.0
1969;0.0;0.0;0.0;0.0878399983048439;-0.06734399497509003;1.1145919561386108;0.0;0.0;0.0
1971;0.0;0.0;0.0;0.10052800178527832;-0.04782399907708168;1.126304030418396;0.0;0.0;0.0
1973;-0.026108000427484512;0.09149999916553497;0.990884006023407;0.0849120020866394;-0.03611199930310249;1.1272799968719482;9.511249542236328;-0.02187499962747097;17.688125610351562
1975;0.0;0.0;0.0;0.10052800178527832;-0.024399999529123306;1.1350879669189453;0.0;0.0;0.0
1977;0.0;0.0;0.0;0.11126399785280228;-0.03611199930310249;1.1106879711151123;0.0;0.0;0.0
1979;0.0;0.0;0.0;0.11126399785280228;-0.032207999378442764;1.097999930381775;0.0;0.0;0.0
1982;-0.024156000465154648;0.09637999534606934;0.9918599724769592;0.09662400186061859;-0.05172799900174141;1.1272799968719482;8.811249732971191;-5.131875038146973;17.89812469482422
1984;0.0;0.0;0.0;0.11419199407100677;-0.027327999472618103;1.1028800010681152;0.0;0.0;0.0
1986;0.0;0.0;0.0;0.13761599361896515;-0.03903999924659729;1.1106879711151123;0.0;0.0;0.0
1988;0.0;0.0;0.0;0.1298079937696457;-0.054655998945236206;1.0784800052642822;0.0;0.0;0.0
1990;-0.006099999882280827;0.08954799920320511;0.9781959652900696;0.12590399384498596;-0.03903999924659729;1.0901919603347778;6.991250038146973;-8.351875305175781;17.548124313354492
1992;0.0;0.0;0.0;0.1298079937696457;-0.062463998794555664;1.0784800052642822;0.0;0.0;0.0
1994;0.0;0.0;0.0;0.12199999392032623;-0.027327999472618103;1.101904034614563;0.0;0.0;0.0
1996;0.0;0.0;0.0;0.13761599361896515;-0.054655998945236206;1.0775039196014404;0.0;0.0;0.0
1999;0.011467999778687954;0.08369199931621552;0.9630680084228516;0.12199999392032623;-0.062463998794555664;1.073599934577942;4.751250267028809;-7.231874942779541;16.428125381469727
2001;0.0;0.0;0.0;0.13859200477600098;-0.032207999378442764;1.097999930381775;0.0;0.0;0.0
2003;0.0;0.0;0.0;0.1424959897994995;-0.06734399497509003;1.0901919603347778;0.0;0.0;0.0
2005;0.0;0.0;0.0;0.14640000462532043;-0.07515199482440948;1.097999930381775;0.0;0.0;0.0
2007;0.021959999576210976;0.0785679966211319;0.9579439759254456;0.16201600432395935;-0.06734399497509003;1.0784800052642822;1.881250023841858;-2.681874990463257;14.958125114440918
2009;0.0;0.0;0.0;0.13078400492668152;-0.0634399950504303;1.073599934577942;0.0;0.0;0.0
2011;0.0;0.0;0.0;0.1424959897994995;-0.05172799900174141;1.0775039196014404;0.0;0.0;0.0
2013;0.0;0.0;0.0;0.15030398964881897;-0.06734399497509003;1.097999930381775;0.0;0.0;0.0
2016;0.028060000389814377;0.07441999763250351;0.9657520055770874;0.16201600432395935;-0.08295999467372894;1.101904034614563;-1.6887500286102295;2.8481252193450928;13.698124885559082
2018;0.0;0.0;0.0;0.15030398964881897;-0.06734399497509003;1.0775039196014404;0.0;0.0;0.0
2020;0.0;0.0;0.0;0.13468798995018005;-0.0634399950504303;1.1067839860916138;0.0;0.0;0.0
2022;0.0;0.0;0.0;0.15811198949813843;-0.05563199892640114;1.097999930381775;0.0;0.0;0.0
2024;0.026839999482035637;0.06831999868154526;0.9720959663391113;0.14640000462532043;-0.07124799489974976;1.1184959411621094;-4.978749752044678;9.358124732971191;11.598124504089355
2026;0.0;0.0;0.0;0.1542080044746399;-0.04391999915242195;1.101904034614563;0.0;0.0;0.0
2028;0.0;0.0;0.0;0.15030398964881897;-0.05953599885106087;1.1106879711151123;0.0;0.0;0.0
2030;0.0;0.0;0.0;0.16201600432395935;-0.0634399950504303;1.1145919561386108;0.0;0.0;0.0
2033;0.02025200054049492;0.07124799489974976;0.9889319539070129;0.13078400492668152;-0.08295999467372894;1.1350879669189453;-6.93874979019165;16.288124084472656;9.568124771118164
2035;0.0;0.0;0.0;0.15030398964881897;-0.08295999467372894;1.1184959411621094;0.0;0.0;0.0
2037;0.0;0.0;0.0;0.12297599762678146;-0.07124799489974976;1.126304030418396;0.0;0.0;0.0
2039;0.0;0.0;0.0;0.09272000193595886;-0.05953599885106087;1.1516799926757812;0.0;0.0;0.0
2041;0.00024399999529123306;0.06612399965524673;1.0030839443206787;0.11126399785280228;-0.05953599885106087;1.1350879669189453;-7.428750038146973;21.39812469482422;9.218124389648438
2043;0.0;0.0;0.0;0.10443200170993805;-0.05953599885106087;1.1350879669189453;0.0;0.0;0.0
2045;0.0;0.0;0.0;0.09662400186061859;-0.08686399459838867;1.1516799926757812;0.0;0.0;0.0
2047;0.0;0.0;0.0;0.09564799815416336;-0.07515199482440948;1.1594879627227783;0.0;0.0;0.0
2050;-0.027327999472618103;0.0651479959487915;1.0196759700775146;0.0849120020866394;-0.08295999467372894;1.1389919519424438;-6.588749885559082;22.798124313354492;9.288125038146973
2052;0.0;0.0;0.0;0.06929600238800049;-0.04001599922776222;1.1546080112457275;0.0;0.0;0.0
2054;0.0;0.0;0.0;0.057583998888731;-0.0907679945230484;1.1663199663162231;0.0;0.0;0.0
2056;0.0;0.0;0.0;0.045871999114751816;-0.09467199444770813;1.158511996269226;0.0;0.0;0.0
2058;-0.05026400089263916;0.06295199692249298;1.0274839401245117;0.049775999039411545;-0.0634399950504303;1.1702239513397217;-4.978749752044678;21.328125;9.42812442779541
2060;0.0;0.0;0.0;0.06148799881339073;-0.07124799489974976;1.1419199705123901;0.0;0.0;0.0
2062;0.0;0.0;0.0;0.053679998964071274;-0.07124799489974976;1.1624159812927246;0.0;0.0;0.0
2064;0.0;0.0;0.0;0.06148799881339073;-0.08295999467372894;1.1546080112457275;0.0;0.0;0.0
2067;-0.06368400156497955;0.06490399688482285;1.0291919708251953;0.053679998964071274;-0.10638399422168732;1.1712000370025635;-3.088750123977661;18.598125457763672;10.33812427520752
2069;0.0;0.0;0.0;0.05660799890756607;-0.05075199902057648;1.1672959327697754;0.0;0.0;0.0
2071;0.0;0.0;0.0;0.0331839993596077;-0.054655998945236206;1.1516799926757812;0.0;0.0;0.0
2073;0.0;0.0;0.0;0.07222399860620499;-0.03903999924659729;1.146799921989441;0.0;0.0;0.0
2075;-0.06856399774551392;0.06612399965524673;1.0330959558486938;0.05270399898290634;-0.07027199864387512;1.1594879627227783;-1.6887500286102295;15.938124656677246;10.828125
2077;0.0;0.0;0.0;0.0605119988322258;-0.03903999924659729;1.1721760034561157;0.0;0.0;0.0
2079;0.0;0.0;0.0;0.0331839993596077;-0.04684799909591675;1.1428959369659424;0.0;0.0;0.0
2081;0.0;0.0;0.0;0.06831999868154526;-0.062463998794555664;1.1877919435501099;0.0;0.0;0.0
2084;-0.07149200141429901;0.08051999658346176;1.044808030128479;0.05270399898290634;-0.054655998945236206;1.1877919435501099;-2.108750104904175;13.7681245803833;10.478124618530273
2086;0.0;0.0;0.0;0.08100800216197968;-0.06734399497509003;1.1838879585266113;0.0;0.0;0.0
2088;0.0;0.0;0.0;0.02635199949145317;-0.05953599885106087;1.1926720142364502;0.0;0.0;0.0
2090;0.0;0.0;0.0;0.045871999114751816;-0.04391999915242195;1.1799839735031128;0.0;0.0;0.0
2092;-0.07344400137662888;0.08857199549674988;1.0540800094604492;0.07710400223731995;-0.04782399907708168;1.1877919435501099;-5.398749828338623;11.73812484741211;9.42812442779541
2094;0.0;0.0;0.0;0.02635199949145317;-0.028303999453783035;1.150704026222229;0.0;0.0;0.0
2096;0.0;0.0;0.0;0.045871999114751816;-0.04001599922776222;1.1594879627227783;0.0;0.0;0.0
2099;0.0;0.0;0.0;0.06148799881339073;-0.04001599922776222;1.1760799884796143;0.0;0.0;0.0
2101;-0.06783200055360794;0.09052399545907974;1.0540800094604492;0.045871999114751816;-0.03611199930310249;1.1712000370025635;-10.088749885559082;9.218124389648438;7.678124904632568
2103;0.0;0.0;0.0;0.07320000231266022;-0.07124799489974976;1.1916959285736084;0.0;0.0;0.0
2105;0.0;0.0;0.0;0.06539200246334076;-0.04391999915242195;1.1555839776992798;0.0;0.0;0.0
2107;0.0;0.0;0.0;0.08100800216197968;-0.04391999915242195;1.1721760034561157;0.0;0.0;0.0
2109;-0.05831599980592728;0.08466799557209015;1.0455399751663208;0.08100800216197968;-0.028303999453783035;1.1555839776992798;-14.008749961853027;6.628125190734863;6.138124942779541
2111;0.0;0.0;0.0;0.08100800216197968;-0.05172799900174141;1.1516799926757812;0.0;0.0;0.0
2113;0.0;0.0;0.0;0.07710400223731995;-0.06734399497509003;1.1428959369659424;0.0;0.0;0.0
2116;0.0;0.0;0.0;0.06539200246334076;-0.03611199930310249;1.1389919519424438;0.0;0.0;0.0
2118;-0.04147999733686447;0.07978799939155579;1.0348039865493774;0.08100800216197968;-0.07124799489974976;1.1594879627227783;-16.80875015258789;3.6181252002716064;5.508125305175781
2120;0.0;0.0;0.0;0.0849120020866394;-0.05953599885106087;1.1184959411621094;0.0;0.0;0.0
2122;0.0;0.0;0.0;0.10052800178527832;-0.08686399459838867;1.122399926185608;0.0;0.0;0.0
2124;0.0;0.0;0.0;0.09662400186061859;-0.08686399459838867;1.1067839860916138;0.0;0.0;0.0
2126;-0.03147599846124649;0.05782799795269966;1.0050359964370728;0.0849120020866394;-0.07515199482440948;1.1067839860916138;-18.068748474121094;1.5881249904632568;6.138124942779541
2128;0.0;0.0;0.0;0.11126399785280228;-0.11028799414634705;1.126304030418396;0.0;0.0;0.0
2130;0.0;0.0;0.0;0.1424959897994995;-0.07515199482440948;1.1184959411621094;0.0;0.0;0.0
2133;0.0;0.0;0.0;0.09955199807882309;-0.1180959939956665;1.0901919603347778;0.0;0.0;0.0
2135;-0.018300000578165054;0.03757599741220474;0.9830759763717651;0.1268799901008606;-0.10247999429702759;1.0901919603347778;-16.5987491607666;0.6781249642372131;6.69812536239624
2137;0.0;0.0;0.0;0.10052800178527832;-0.11419199407100677;1.101904034614563;0.0;0.0;0.0
2139;0.0;0.0;0.0;0.08100800216197968;-0.10638399422168732;1.0940959453582764;0.0;0.0;0.0
2141;0.0;0.0;0.0;0.11126399785280228;-0.09857599437236786;1.0823839902877808;0.0;0.0;0.0
2143;-0.019276000559329987;0.019519999623298645;0.9630680084228516;0.10052800178527832;-0.11419199407100677;1.0784800052642822;-13.658750534057617;-0.5118750333786011;7.398125171661377
2145;0.0;0.0;0.0;0.10735999792814255;-0.1180959939956665;1.0657919645309448;0.0;0.0;0.0
2147;0.0;0.0;0.0;0.0849120020866394;-0.1298079937696457;1.0823839902877808;0.0;0.0;0.0
2150;0.0;0.0;0.0;0.12297599762678146;-0.1298079937696457;1.0696959495544434;0.0;0.0;0.0
2152;-0.01756799966096878;0.007563999854028225;0.9476959705352783;0.12297599762678146;-0.12199999392032623;1.0823839902877808;-10.788750648498535;-2.3318748474121094;7.468125343322754
2154;0.0;0.0;0.0;0.1268799901008606;-0.11028799414634705;1.0657919645309448;0.0;0.0;0.0
2156;0.0;0.0;0.0;0.13859200477600098;-0.1180959939956665;1.0862879753112793;0.0;0.0;0.0
2158;0.0;0.0;0.0;0.10345599800348282;-0.11419199407100677;1.073599934577942;0.0;0.0;0.0
2160;-0.0017079999670386314;0.008295999839901924;0.9476959705352783;0.13078400492668152;-0.13761599361896515;1.0901919603347778;-8.478750228881836;-3.3818750381469727;7.468125343322754
2162;0.0;0.0;0.0;0.13468798995018005;-0.14151999354362488;1.0775039196014404;0.0;0.0;0.0
2164;0.0;0.0;0.0;0.13859200477600098;-0.1180959939956665;1.0696959495544434;0.0;0.0;0.0
2167;0.0;0.0;0.0;0.10735999792814255;-0.1298079937696457;1.0862879753112793;0.0;0.0;0.0
2169;0.005367999896407127;0.010247999802231789;0.958187997341156;0.12297599762678146;-0.13371199369430542;1.0862879753112793;-7.21875;-3.241874933242798;6.978125095367432
2171;0.0;0.0;0.0;0.12297599762678146;-0.10247999429702759;1.0940959453582764;0.0;0.0;0.0
2173;0.0;0.0;0.0;0.1424959897994995;-0.1298079937696457;1.0696959495544434;0.0;0.0;0.0
2175;0.0;0.0;0.0;0.1268799901008606;-0.13761599361896515;1.097999930381775;0.0;0.0;0.0
2177;0.00634399987757206;0.013907999731600285;0.965507984161377;0.10443200170993805;-0.11028799414634705;1.0901919603347778;-7.078749656677246;-2.1218748092651367;5.928124904632568
2179;0.0;0.0;0.0;0.1424959897994995;-0.12199999392032623;1.101904034614563;0.0;0.0;0.0
2181;0.0;0.0;0.0;0.13078400492668152;-0.12590399384498596;1.101904034614563;0.0;0.0;0.0
2184;0.0;0.0;0.0;0.1542080044746399;-0.11419199407100677;1.0775039196014404;0.0;0.0;0.0
2186;0.009027999825775623;0.024643998593091965;0.9679479598999023;0.13078400492668152;-0.12590399384498596;1.0862879753112793;-8.688750267028809;-0.02187499962747097;4.598124980926514
2188;0.0;0.0;0.0;0.13078400492668152;-0.09857599437236786;1.097999930381775;0.0;0.0;0.0
2190;0.0;0.0;0.0;0.13078400492668152;-0.0907679945230484;1.097999930381775;0.0;0.0;0.0
2192;0.0;0.0;0.0;0.13468798995018005;-0.08295999467372894;1.0823839902877808;0.0;0.0;0.0
2194;0.014151999726891518;0.04172400012612343;0.9674599766731262;0.13078400492668152;-0.0907679945230484;1.0940959453582764;-11.2787504196167;5.438125133514404;2.9181251525878906
2196;0.0;0.0;0.0;0.08100800216197968;-0.08295999467372894;1.0823839902877808;0.0;0.0;0.0
2198;0.0;0.0;0.0;0.11224000155925751;-0.08686399459838867;1.0862879753112793;0.0;0.0;0.0
2201;0.0;0.0;0.0;0.10052800178527832;-0.07515199482440948;1.1106879711151123;0.0;0.0;0.0
2203;-0.00951599981635809;0.04879999905824661;0.9635559916496277;0.09564799815416336;-0.0907679945230484;1.0657919645309448;-13.378750801086426;12.368124961853027;1.5881249904632568
2205;0.0;0.0;0.0;0.08100800216197968;-0.09467199444770813;1.1106879711151123;0.0;0.0;0.0
2207;0.0;0.0;0.0;0.057583998888731;-0.05953599885106087;1.0901919603347778;0.0;0.0;0.0
2209;0.0;0.0;0.0;0.06929600238800049;-0.06734399497509003;1.101904034614563;0.0;0.0;0.0
2211;-0.04318799823522568;0.050995998084545135;0.9735599756240845;0.04196799919009209;-0.06734399497509003;1.0940959453582764;-13.658750534057617;16.00812530517578;0.7481249570846558
2213;0.0;0.0;0.0;0.045871999114751816;-0.08686399459838867;1.101904034614563;0.0;0.0;0.0
2215;0.0;0.0;0.0;0.049775999039411545;-0.08295999467372894;1.1302080154418945;0.0;0.0;0.0
2218;0.0;0.0;0.0;0.02635199949145317;-0.09467199444770813;1.1184959411621094;0.0;0.0;0.0
2220;-0.07051599770784378;0.048555999994277954;0.9903959631919861;0.0302559994161129;-0.09857599437236786;1.097999930381775;-13.658750534057617;14.188124656677246;0.11812499910593033
2222;0.0;0.0;0.0;0.02635199949145317;-0.09857599437236786;1.1272799968719482;0.0;0.0;0.0
2224;0.0;0.0;0.0;0.045871999114751816;-0.1180959939956665;1.1184959411621094;0.0;0.0;0.0
2226;0.0;0.0;0.0;0.049775999039411545;-0.09467199444770813;1.1145919561386108;0.0;0.0;0.0
2228;-0.08173999935388565;0.037087999284267426;0.9894199967384338;0.06929600238800049;-0.08686399459838867;1.1311839818954468;-12.748750686645508;8.23812484741211;-1.3518750667572021
2230;0.0;0.0;0.0;0.049775999039411545;-0.13761599361896515;1.1106879711151123;0.0;0.0;0.0
2232;0.0;0.0;0.0;0.06148799881339073;-0.11028799414634705;1.1106879711151123;0.0;0.0;0.0
2235;0.0;0.0;0.0;0.06539200246334076;-0.10638399422168732;1.1067839860916138;0.0;0.0;0.0
2237;-0.05953599885106087;0.02757199853658676;0.9874680042266846;0.07320000231266022;-0.09467199444770813;1.1145919561386108;-10.438750267028809;3.828125;-1.9118750095367432
2239;0.0;0.0;0.0;0.057583998888731;-0.0907679945230484;1.1145919561386108;0.0;0.0;0.0
2241;0.0;0.0;0.0;0.07710400223731995;-0.09857599437236786;1.1184959411621094;0.0;0.0;0.0
2243;0.0;0.0;0.0;0.0849120020866394;-0.1180959939956665;1.1350879669189453;0.0;0.0;0.0
2245;-0.047335997223854065;0.031964000314474106;0.994055986404419;0.06148799881339073;-0.09467199444770813;1.1184959411621094;-7.84874963760376;2.3581252098083496;-1.5618749856948853
2247;0.0;0.0;0.0;0.07710400223731995;-0.07905599474906921;1.122399926185608;0.0;0.0;0.0
2249;0.0;0.0;0.0;0.06148799881339073;-0.09467199444770813;1.1721760034561157;0.0;0.0;0.0
2252;0.0;0.0;0.0;0.057583998888731;-0.07905599474906921;1.1672959327697754;0.0;0.0;0.0
2254;-0.053679998964071274;0.04758000001311302;1.018455982208252;0.04196799919009209;-0.07515199482440948;1.146799921989441;-6.588749885559082;0.7481249570846558;-1.421875
2256;0.0;0.0;0.0;0.04196799919009209;-0.0634399950504303;1.1760799884796143;0.0;0.0;0.0
2258;0.0;0.0;0.0;0.053679998964071274;-0.0634399950504303;1.1389919519424438;0.0;0.0;0.0
2260;0.0;0.0;0.0;0.04196799919009209;-0.07124799489974976;1.1799839735031128;0.0;0.0;0.0
2262;-0.0710039958357811;0.06490399688482285;1.0372439622879028;0.04196799919009209;-0.07515199482440948;1.1877919435501099;-7.358749866485596;-3.101874828338623;-1.70187509059906
2264;0.0;0.0;0.0;0.049775999039411545;-0.07515199482440948;1.1799839735031128;0.0;0.0;0.0
2266;0.0;0.0;0.0;0.0302559994161129;-0.05563199892640114;1.1555839776992798;0.0;0.0;0.0
2269;0.0;0.0;0.0;0.04196799919009209;-0.06734399497509003;1.1672959327697754;0.0;0.0;0.0
2271;-0.0697840005159378;0.06392800062894821;1.0396839380264282;0.045871999114751816;-0.0907679945230484;1.1721760034561157;-8.478750228881836;-11.151875495910645;-1.8418750762939453
2273;0.0;0.0;0.0;0.07710400223731995;-0.08686399459838867;1.1516799926757812;0.0;0.0;0.0
2275;0.0;0.0;0.0;0.115167997777462;-0.08686399459838867;1.146799921989441;0.0;0.0;0.0
2277;0.0;0.0;0.0;0.10443200170993805;-0.07905599474906921;1.1428959369659424;0.0;0.0;0.0
2279;-0.034648001194000244;0.04660400003194809;1.0082080364227295;0.09955199807882309;-0.09857599437236786;1.1106879711151123;-8.898750305175781;-19.06187629699707;-0.5118750333786011
2282;0.0;0.0;0.0;0.115167997777462;-0.10638399422168732;1.0775039196014404;0.0;0.0;0.0
2283;0.0;0.0;0.0;0.11907199770212173;-0.11028799414634705;1.0696959495544434;0.0;0.0;0.0
2286;0.0;0.0;0.0;0.10735999792814255;-0.11419199407100677;1.0823839902877808;0.0;0.0;0.0
2288;0.0;0.0348920002579689;0.9691680073738098;0.13859200477600098;-0.10638399422168732;1.0784800052642822;-7.638749599456787;-20.74187469482422;1.3081250190734863
2290;0.0;0.0;0.0;0.12297599762678146;-0.10247999429702759;1.0862879753112793;0.0;0.0;0.0
2292;0.0;0.0;0.0;0.1698240041732788;-0.10638399422168732;1.0618879795074463;0.0;0.0;0.0
2294;0.0;0.0;0.0;0.1698240041732788;-0.12590399384498596;1.0696959495544434;0.0;0.0;0.0
2296;0.03513599932193756;0.024887999519705772;0.9557479619979858;0.15030398964881897;-0.1180959939956665;1.073599934577942;-5.398749828338623;-17.031875610351562;2.708125114440918
2298;0.0;0.0;0.0;0.1815359890460968;-0.0907679945230484;1.0862879753112793;0.0;0.0;0.0
2300;0.0;0.0;0.0;0.16201600432395935;-0.10638399422168732;1.101904034614563;0.0;0.0;0.0
2303;0.0;0.0;0.0;0.16591998934745789;-0.09467199444770813;1.0940959453582764;0.0;0.0;0.0
2305;0.04513999819755554;0.02147199958562851;0.958187997341156;0.17372798919677734;-0.10638399422168732;1.0901919603347778;-2.8087501525878906;-11.291875839233398;4.738125324249268
2307;0.0;0.0;0.0;0.16201600432395935;-0.11028799414634705;1.0931199789047241;0.0;0.0;0.0
2309;0.0;0.0;0.0;0.15811198949813843;-0.11419199407100677;1.097999930381775;0.0;0.0;0.0
2311;0.0;0.0;0.0;0.13468798995018005;-0.10638399422168732;1.1136159896850586;0.0;0.0;0.0
2313;0.03367199748754501;0.021959999576210976;0.973315954208374;0.11907199770212173;-0.10638399422168732;1.1175199747085571;0.27125000953674316;-6.461874961853027;7.188125133514404
2316;0.0;0.0;0.0;0.1698240041732788;-0.09467199444770813;1.126304030418396;0.0;0.0;0.0
2317;0.0;0.0;0.0;0.13078400492668152;-0.12590399384498596;1.0931199789047241;0.0;0.0;0.0
2320;0.0;0.0;0.0;0.1424959897994995;-0.09857599437236786;1.1302080154418945;0.0;0.0;0.0
2322;0.012931999750435352;0.021959999576210976;0.9913719892501831;0.14640000462532043;-0.12199999392032623;1.122399926185608;3.0012500286102295;-4.921875;9.498125076293945
2324;0.0;0.0;0.0;0.1268799901008606;-0.1180959939956665;1.122399926185608;0.0;0.0;0.0
2326;0.0;0.0;0.0;0.11907199770212173;-0.10247999429702759;1.1302080154418945;0.0;0.0;0.0
2328;0.0;0.0;0.0;0.11126399785280228;-0.13371199369430542;1.146799921989441;0.0;0.0;0.0
2330;-0.0009759999811649323;0.023180000483989716;1.0067440271377563;0.10345599800348282;-0.10247999429702759;1.1380159854888916;4.40125036239624;-5.271874904632568;11.248125076293945
2333;0.0;0.0;0.0;0.12004800140857697;-0.11028799414634705;1.146799921989441;0.0;0.0;0.0
2335;0.0;0.0;0.0;0.10735999792814255;-0.1180959939956665;1.1380159854888916;0.0;0.0;0.0
2337;0.0;0.0;0.0;0.10052800178527832;-0.11028799414634705;1.1175199747085571;0.0;0.0;0.0
2339;-0.022935999557375908;0.022204000502824783;1.0108920335769653;0.08881600201129913;-0.0907679945230484;1.134112000465393;4.051249980926514;-7.021874904632568;12.298124313354492
2341;0.0;0.0;0.0;0.0849120020866394;-0.1180959939956665;1.1428959369659424;0.0;0.0;0.0
2343;0.0;0.0;0.0;0.045871999114751816;-0.08295999467372894;1.1389919519424438;0.0;0.0;0.0
2345;0.0;0.0;0.0;0.08100800216197968;-0.11419199407100677;1.1350879669189453;0.0;0.0;0.0
2347;-0.03562399744987488;0.02147199958562851;1.007964015007019;0.053679998964071274;-0.09467199444770813;1.122399926185608;2.721250057220459;-8.841875076293945;12.08812427520752
2350;0.0;0.0;0.0;0.10052800178527832;-0.10638399422168732;1.1516799926757812;0.0;0.0;0.0
2352;0.0;0.0;0.0;0.0849120020866394;-0.09857599437236786;1.1350879669189453;0.0;0.0;0.0
2354;0.0;0.0;0.0;0.09955199807882309;-0.10638399422168732;1.1233760118484497;0.0;0.0;0.0
2356;-0.032207999378442764;0.020739998668432236;1.0013760328292847;0.11126399785280228;-0.11419199407100677;1.1272799968719482;0.6912499666213989;-8.701875686645508;10.128124237060547
2358;0.0;0.0;0.0;0.0849120020866394;-0.11028799414634705;1.1145919561386108;0.0;0.0;0.0
2360;0.0;0.0;0.0;0.10443200170993805;-0.1180959939956665;1.101904034614563;0.0;0.0;0.0
2362;0.0;0.0;0.0;0.09662400186061859;-0.10638399422168732;1.1184959411621094;0.0;0.0;0.0
2364;-0.021959999576210976;0.016103999689221382;0.9901520013809204;0.11907199770212173;-0.12199999392032623;1.101904034614563;-1.408750057220459;-6.181874752044678;7.328125
2367;0.0;0.0;0.0;0.1268799901008606;-0.13371199369430542;1.1145919561386108;0.0;0.0;0.0
2369;0.0;0.0;0.0;0.09662400186061859;-0.12199999392032623;1.1184959411621094;0.0;0.0;0.0
