Timestamp(ms);LG-Accel x(g);LG-Accel y(g);LG-Accel z(g);HG-Accel x(g);HG-Accel y(g);HG-Accel z(g);Gyro x(dps);Gyro y(dps);Gyro z(dps)
84;0.0;0.0;0.0;0.10150399804115295;-0.10443200170993805;1.0921440124511719;0.0;0.0;0.0
86;0.0;0.0;0.0;0.10833600163459778;-0.12785600125789642;1.1038559675216675;0.0;0.0;0.0
88;0.0;0.0;0.0;0.1239520013332367;-0.11224000155925751;1.0882400274276733;0.0;0.0;0.0
90;0.0;0.0;0.0;0.12004800140857697;-0.10443200170993805;1.0794559717178345;0.0;0.0;0.0
92;0.0;0.0;0.0;0.12785600125789642;-0.1395680010318756;1.1165440082550049;0.0;0.0;0.0
94;0.0;0.0;0.0;0.11907199770212173;-0.12590399384498596;1.0696959495544434;0.0;0.0;0.0
96;0.0;0.0;0.0;0.11907199770212173;-0.10247999429702759;1.0901919603347778;0.0;0.0;0.0
99;0.0;0.0;0.0;0.1268799901008606;-0.08295999467372894;1.0940959453582764;0.0;0.0;0.0
101;-0.0017079999670386314;0.03147599846124649;0.9667279720306396;0.11126399785280228;-0.07515199482440948;1.097999930381775;0.0;0.0;0.0
103;0.0;0.0;0.0;0.12297599762678146;-0.09467199444770813;1.097999930381775;0.0;0.0;0.0
105;0.0;0.0;0.0;0.13468798995018005;-0.09467199444770813;1.0940959453582764;0.0;0.0;0.0
107;0.0;0.0;0.0;0.13078400492668152;-0.08295999467372894;1.1067839860916138;0.0;0.0;0.0
109;0.0058559998869895935;0.05245999991893768;0.9781959652900696;0.13859200477600098;-0.10247999429702759;1.1145919561386108;0.0;0.0;0.0
111;0.0;0.0;0.0;0.1298079937696457;-0.08198399841785431;1.1067839860916138;0.0;0.0;0.0
113;0.0;0.0;0.0;0.12590399384498596;-0.054655998945236206;1.1106879711151123;0.0;0.0;0.0
116;0.0;0.0;0.0;0.14151999354362488;-0.062463998794555664;1.097999930381775;0.0;0.0;0.0
118;0.012199999764561653;0.0710039958357811;0.9901520013809204;0.16103999316692352;-0.07417599856853485;1.1428959369659424;0.0;0.0;0.0
120;0.0;0.0;0.0;0.12199999392032623;-0.04684799909591675;1.1145919561386108;0.0;0.0;0.0
122;0.0;0.0;0.0;0.12199999392032623;-0.03513599932193756;1.1028800010681152;0.0;0.0;0.0
124;0.0;0.0;0.0;0.12199999392032623;-0.027327999472618103;1.1184959411621094;0.0;0.0;0.0
126;0.003903999924659729;0.08954799920320511;0.9913719892501831;0.1180959939956665;-0.015615999698638916;1.1145919561386108;0.0;0.0;0.0
128;0.0;0.0;0.0;0.1268799901008606;-0.04782399907708168;1.1145919561386108;0.0;0.0;0.0
130;0.0;0.0;0.0;0.12297599762678146;-0.024399999529123306;1.1272799968719482;0.0;0.0;0.0
133;0.0;0.0;0.0;0.1424959897994995;-0.032207999378442764;1.1106879711151123;0.0;0.0;0.0
135;0.006587999872863293;0.1000399962067604;0.9860039949417114;0.13468798995018005;-0.024399999529123306;1.1106879711151123;0.0;0.0;0.0
137;0.0;0.0;0.0;0.13859200477600098;-0.03611199930310249;1.1184959411621094;0.0;0.0;0.0
139;0.0;0.0;0.0;0.15811198949813843;-0.05563199892640114;1.1145919561386108;0.0;0.0;0.0
141;0.0;0.0;0.0;0.16201600432395935;-0.024399999529123306;1.0862879753112793;0.0;0.0;0.0
143;0.039772000163793564;0.09686800092458725;0.9786840081214905;0.16201600432395935;-0.04001599922776222;1.0784800052642822;-2.3712501525878906;1.7456250190734863;1.81125009059906
145;0.0;0.0;0.0;0.1571359932422638;-0.011711999773979187;1.101904034614563;0.0;0.0;0.0
147;0.0;0.0;0.0;0.18836799263954163;-0.03903999924659729;1.1067839860916138;0.0;0.0;0.0
150;0.0;0.0;0.0;0.17665599286556244;-0.054655998945236206;1.073599934577942;0.0;0.0;0.0
152;0.059779997915029526;0.08661999553442001;0.9647759795188904;0.1844639927148819;-0.054655998945236206;1.0862879753112793;-3.5612499713897705;4.195624828338623;2.161250114440918
154;0.0;0.0;0.0;0.21569599211215973;-0.058559998869895935;1.0862879753112793;0.0;0.0;0.0
156;0.0;0.0;0.0;0.18055999279022217;-0.062463998794555664;1.0823839902877808;0.0;0.0;0.0
158;0.0;0.0;0.0;0.18836799263954163;-0.058559998869895935;1.0901919603347778;0.0;0.0;0.0
160;0.06319599598646164;0.07124799489974976;0.9618479609489441;0.1571359932422638;-0.0663679987192154;1.0862879753112793;-3.28125;7.625625133514404;2.651250123977661
162;0.0;0.0;0.0;0.17665599286556244;-0.03513599932193756;1.1145919561386108;0.0;0.0;0.0
164;0.0;0.0;0.0;0.18055999279022217;-0.10150399804115295;1.097999930381775;0.0;0.0;0.0
167;0.0;0.0;0.0;0.16494399309158325;-0.03903999924659729;1.0862879753112793;0.0;0.0;0.0
169;0.05050799995660782;0.06661199778318405;0.9679479598999023;0.16103999316692352;-0.062463998794555664;1.0940959453582764;-1.6012500524520874;10.285624504089355;3.0012500286102295
171;0.0;0.0;0.0;0.14151999354362488;-0.07807999849319458;1.0940959453582764;0.0;0.0;0.0
173;0.0;0.0;0.0;0.15323199331760406;-0.0663679987192154;1.097999930381775;0.0;0.0;0.0
175;0.0;0.0;0.0;0.15323199331760406;-0.08198399841785431;1.1106879711151123;0.0;0.0;0.0
177;0.027084000408649445;0.06368400156497955;0.9750239849090576;0.1180959939956665;-0.08979199826717377;1.1311839818954468;1.3387500047683716;11.195624351501465;2.861250162124634
179;0.0;0.0;0.0;0.12590399384498596;-0.0663679987192154;1.1184959411621094;0.0;0.0;0.0
181;0.0;0.0;0.0;0.14151999354362488;-0.07807999849319458;1.122399926185608;0.0;0.0;0.0
184;0.0;0.0;0.0;0.10247999429702759;-0.07807999849319458;1.1184959411621094;0.0;0.0;0.0
186;-0.0004879999905824661;0.05538799986243248;0.9864919781684875;0.10345599800348282;-0.10150399804115295;1.1106879711151123;4.348750114440918;9.86562442779541;2.161250114440918
188;0.0;0.0;0.0;0.12590399384498596;-0.062463998794555664;1.101904034614563;0.0;0.0;0.0
190;0.0;0.0;0.0;0.11907199770212173;-0.07027199864387512;1.1028800010681152;0.0;0.0;0.0
192;0.0;0.0;0.0;0.10638399422168732;-0.0663679987192154;1.101904034614563;0.0;0.0;0.0
194;-0.009759999811649323;0.06880799680948257;0.981611967086792;0.09174399822950363;-0.04294399917125702;1.1184959411621094;6.798749923706055;7.695624828338623;1.0412499904632568
196;0.0;0.0;0.0;0.1180959939956665;-0.05075199902057648;1.0862879753112793;0.0;0.0;0.0
198;0.0;0.0;0.0;0.08393599838018417;-0.03903999924659729;1.0862879753112793;0.0;0.0;0.0
201;0.0;0.0;0.0;0.11028799414634705;-0.03513599932193756;1.1106879711151123;0.0;0.0;0.0
203;-0.019276000559329987;0.0983319953083992;0.9667279720306396;0.09174399822950363;-0.015615999698638916;1.1028800010681152;8.12874984741211;6.435625076293945;0.9712499976158142
205;0.0;0.0;0.0;0.10735999792814255;-0.015615999698638916;1.0940959453582764;0.0;0.0;0.0
207;0.0;0.0;0.0;0.09564799815416336;-0.015615999698638916;1.097999930381775;0.0;0.0;0.0
209;0.0;0.0;0.0;0.0878399983048439;-0.015615999698638916;1.1145919561386108;0.0;0.0;0.0
211;-0.030743999406695366;0.1210239976644516;0.9728279709815979;0.07612799853086472;0.0;1.1145919561386108;9.80875015258789;5.385624885559082;1.9512500762939453
213;0.0;0.0;0.0;0.0605119988322258;0.019519999623298645;1.1184959411621094;0.0;0.0;0.0
215;0.0;0.0;0.0;0.05270399898290634;0.023423999547958374;1.1145919561386108;0.0;0.0;0.0
218;0.0;0.0;0.0;0.11419199407100677;0.019519999623298645;1.097999930381775;0.0;0.0;0.0
220;-0.03660000115633011;0.15103599429130554;0.9911279678344727;0.10735999792814255;0.031231999397277832;1.1184959411621094;10.71875;4.265625;2.861250162124634
222;0.0;0.0;0.0;0.11126399785280228;0.027327999472618103;1.1311839818954468;0.0;0.0;0.0
224;0.0;0.0;0.0;0.09564799815416336;0.04684799909591675;1.1145919561386108;0.0;0.0;0.0
226;0.0;0.0;0.0;0.09564799815416336;0.023423999547958374;1.1106879711151123;0.0;0.0;0.0
228;-0.029523998498916626;0.16835999488830566;0.9962520003318787;0.06831999868154526;0.04294399917125702;1.1145919561386108;9.598750114440918;3.9856250286102295;3.7012500762939453
230;0.0;0.0;0.0;0.10638399422168732;0.023423999547958374;1.146799921989441;0.0;0.0;0.0
232;0.0;0.0;0.0;0.09564799815416336;0.03903999924659729;1.1311839818954468;0.0;0.0;0.0
235;0.0;0.0;0.0;0.12590399384498596;0.007807999849319458;1.1389919519424438;0.0;0.0;0.0
237;-0.018300000578165054;0.16372399032115936;1.0130879878997803;0.11028799414634705;0.03513599932193756;1.1633919477462769;6.448750019073486;4.615624904632568;4.401249885559082
239;0.0;0.0;0.0;0.11419199407100677;0.015615999698638916;1.1712000370025635;0.0;0.0;0.0
241;0.0;0.0;0.0;0.12590399384498596;-0.003903999924659729;1.1555839776992798;0.0;0.0;0.0
243;0.0;0.0;0.0;0.12590399384498596;0.03513599932193756;1.1672959327697754;0.0;0.0;0.0
245;0.0012199999764561653;0.14591199159622192;1.0243120193481445;0.12199999392032623;0.015615999698638916;1.1633919477462769;2.3187499046325684;4.895625114440918;5.03125
248;0.0;0.0;0.0;0.13371199369430542;0.023423999547958374;1.1633919477462769;0.0;0.0;0.0
249;0.0;0.0;0.0;0.13761599361896515;-0.007807999849319458;1.1721760034561157;0.0;0.0;0.0
252;0.0;0.0;0.0;0.11126399785280228;-0.023423999547958374;1.1594879627227783;0.0;0.0;0.0
254;0.015371999703347683;0.11955999583005905;1.0291919708251953;0.13761599361896515;-0.054655998945236206;1.146799921989441;-0.831250011920929;5.735625267028809;5.171249866485596
256;0.0;0.0;0.0;0.14932799339294434;-0.015615999698638916;1.1633919477462769;0.0;0.0;0.0
258;0.0;0.0;0.0;0.15323199331760406;-0.08588799834251404;1.1311839818954468;0.0;0.0;0.0
260;0.0;0.0;0.0;0.12590399384498596;-0.019519999623298645;1.1594879627227783;0.0;0.0;0.0
262;0.02147199958562851;0.08808399736881256;1.0228480100631714;0.14151999354362488;-0.062463998794555664;1.1516799926757812;-1.9512500762939453;6.785624980926514;4.541250228881836
264;0.0;0.0;0.0;0.13761599361896515;-0.0663679987192154;1.1712000370025635;0.0;0.0;0.0
266;0.0;0.0;0.0;0.13761599361896515;-0.07807999849319458;1.1389919519424438;0.0;0.0;0.0
269;0.0;0.0;0.0;0.14932799339294434;-0.08979199826717377;1.1184959411621094;0.0;0.0;0.0
271;0.015371999703347683;0.05831599980592728;1.009671926498413;0.11028799414634705;-0.08198399841785431;1.126304030418396;-2.3712501525878906;7.975625038146973;3.211250066757202
273;0.0;0.0;0.0;0.11419199407100677;-0.08979199826717377;1.122399926185608;0.0;0.0;0.0
275;0.0;0.0;0.0;0.11419199407100677;-0.08588799834251404;1.1184959411621094;0.0;0.0;0.0
277;0.0;0.0;0.0;0.09467199444770813;-0.062463998794555664;1.1184959411621094;0.0;0.0;0.0
279;0.0056119998916983604;0.04904399812221527;0.9906399846076965;0.11028799414634705;-0.08588799834251404;1.097999930381775;-2.861250162124634;8.885624885559082;1.6712501049041748
282;0.0;0.0;0.0;0.13371199369430542;-0.08198399841785431;1.1028800010681152;0.0;0.0;0.0
284;0.0;0.0;0.0;0.10638399422168732;-0.08588799834251404;1.0940959453582764;0.0;0.0;0.0
286;0.0;0.0;0.0;0.09955199807882309;-0.08198399841785431;1.0901919603347778;0.0;0.0;0.0
288;-0.008295999839901924;0.053435999900102615;0.9677039980888367;0.09174399822950363;-0.0663679987192154;1.1067839860916138;-2.3712501525878906;9.935624122619629;0.13124999403953552
290;0.0;0.0;0.0;0.10735999792814255;-0.0663679987192154;1.0901919603347778;0.0;0.0;0.0
292;0.0;0.0;0.0;0.06441599875688553;-0.07027199864387512;1.0784800052642822;0.0;0.0;0.0
294;0.0;0.0;0.0;0.11419199407100677;-0.0663679987192154;1.0784800052642822;0.0;0.0;0.0
296;-0.017079999670386314;0.0605119988322258;0.9567239880561829;0.10735999792814255;-0.04684799909591675;1.0940959453582764;0.5687500238418579;10.005624771118164;-0.6387500166893005
299;0.0;0.0;0.0;0.09955199807882309;-0.05953599885106087;1.0775039196014404;0.0;0.0;0.0
300;0.0;0.0;0.0;0.10833600163459778;-0.0634399950504303;1.101904034614563;0.0;0.0;0.0
303;0.0;0.0;0.0;0.10443200170993805;-0.06734399497509003;1.0901919603347778;0.0;0.0;0.0
305;-0.022935999557375908;0.0773480013012886;0.9608719944953918;0.115167997777462;-0.03611199930310249;1.0862879753112793;4.908750057220459;8.045624732971191;-0.2887499928474426
307;0.0;0.0;0.0;0.09662400186061859;-0.04782399907708168;1.0901919603347778;0.0;0.0;0.0
309;0.0;0.0;0.0;0.08100800216197968;-0.04391999915242195;1.1067839860916138;0.0;0.0;0.0
311;0.0;0.0;0.0;0.09955199807882309;-0.04391999915242195;1.1350879669189453;0.0;0.0;0.0
313;-0.024887999519705772;0.08808399736881256;0.9830759763717651;0.10345599800348282;-0.032207999378442764;1.1272799968719482;8.548749923706055;5.245625019073486;0.48125001788139343
316;0.0;0.0;0.0;0.11126399785280228;-0.07027199864387512;1.126304030418396;0.0;0.0;0.0
318;0.0;0.0;0.0;0.0878399983048439;-0.023423999547958374;1.1311839818954468;0.0;0.0;0.0
320;0.0;0.0;0.0;0.12590399384498596;-0.03513599932193756;1.1311839818954468;0.0;0.0;0.0
322;-0.019276000559329987;0.09149999916553497;0.9962520003318787;0.11028799414634705;-0.031231999397277832;1.122399926185608;9.458749771118164;3.005625009536743;0.6212499737739563
324;0.0;0.0;0.0;0.11028799414634705;-0.04294399917125702;1.1028800010681152;0.0;0.0;0.0
326;0.0;0.0;0.0;0.08003199845552444;-0.054655998945236206;1.1389919519424438;0.0;0.0;0.0
328;0.0;0.0;0.0;0.1454239934682846;-0.04294399917125702;1.1106879711151123;0.0;0.0;0.0
330;-0.007075999863445759;0.09467199444770813;0.9835639595985413;0.1298079937696457;-0.03513599932193756;1.0901919603347778;8.338749885559082;2.515625;0.13124999403953552
333;0.0;0.0;0.0;0.09174399822950363;-0.04684799909591675;1.0823839902877808;0.0;0.0;0.0
335;0.0;0.0;0.0;0.1180959939956665;-0.03903999924659729;1.0940959453582764;0.0;0.0;0.0
337;0.0;0.0;0.0;0.12199999392032623;-0.027327999472618103;1.0775039196014404;0.0;0.0;0.0
339;0.0012199999764561653;0.10491999983787537;0.9677039980888367;0.12199999392032623;-0.011711999773979187;1.0823839902877808;6.448750019073486;3.005625009536743;0.27125000953674316
341;0.0;0.0;0.0;0.11419199407100677;-0.007807999849319458;1.1106879711151123;0.0;0.0;0.0
343;0.0;0.0;0.0;0.09857599437236786;-0.04294399917125702;1.0901919603347778;0.0;0.0;0.0
345;0.0;0.0;0.0;0.11028799414634705;-0.019519999623298645;1.0823839902877808;0.0;0.0;0.0
347;0.013907999731600285;0.10589599609375;0.9706319570541382;0.1298079937696457;-0.03513599932193756;1.1184959411621094;5.118750095367432;3.075624942779541;1.1112500429153442
350;0.0;0.0;0.0;0.12590399384498596;-0.03903999924659729;1.1145919561386108;0.0;0.0;0.0
352;0.0;0.0;0.0;0.15323199331760406;-0.04684799909591675;1.1184959411621094;0.0;0.0;0.0
354;0.0;0.0;0.0;0.13371199369430542;-0.03513599932193756;1.1145919561386108;0.0;0.0;0.0
356;0.019763998687267303;0.09735599905252457;0.9930799603462219;0.15323199331760406;-0.058559998869895935;1.1311839818954468;4.348750114440918;3.9856250286102295;1.9512500762939453
358;0.0;0.0;0.0;0.15323199331760406;-0.05075199902057648;1.1428959369659424;0.0;0.0;0.0
360;0.0;0.0;0.0;0.14932799339294434;-0.058559998869895935;1.1311839818954468;0.0;0.0;0.0
362;0.0;0.0;0.0;0.16494399309158325;-0.058559998869895935;1.1555839776992798;0.0;0.0;0.0
364;0.024399999529123306;0.08735200017690659;1.013819932937622;0.14932799339294434;-0.05075199902057648;1.126304030418396;3.018749952316284;5.665625095367432;2.581249952316284
367;0.0;0.0;0.0;0.14932799339294434;-0.04294399917125702;1.126304030418396;0.0;0.0;0.0
369;0.0;0.0;0.0;0.1298079937696457;-0.062463998794555664;1.1428959369659424;0.0;0.0;0.0
371;0.0;0.0;0.0;0.1571359932422638;-0.054655998945236206;1.1633919477462769;0.0;0.0;0.0
373;0.02391199953854084;0.0710039958357811;1.02211594581604;0.1180959939956665;-0.07807999849319458;1.1516799926757812;0.7787500023841858;8.045624732971191;2.651250123977661
375;0.0;0.0;0.0;0.1298079937696457;-0.08979199826717377;1.1311839818954468;0.0;0.0;0.0
377;0.0;0.0;0.0;0.13371199369430542;-0.0936959981918335;1.1350879669189453;0.0;0.0;0.0
379;0.0;0.0;0.0;0.12590399384498596;-0.07417599856853485;1.1516799926757812;0.0;0.0;0.0
381;0.0017079999670386314;0.05245999991893768;1.0169919729232788;0.08003199845552444;-0.08588799834251404;1.1272799968719482;-1.1112500429153442;10.985624313354492;1.53125
384;0.0;0.0;0.0;0.09857599437236786;-0.07417599856853485;1.1106879711151123;0.0;0.0;0.0
386;0.0;0.0;0.0;0.09174399822950363;-0.10540799796581268;1.1311839818954468;0.0;0.0;0.0
388;0.0;0.0;0.0;0.06831999868154526;-0.0936959981918335;1.1438720226287842;0.0;0.0;0.0
390;-0.027084000408649445;0.042211998254060745;1.00381600856781;0.08393599838018417;-0.08588799834251404;1.126304030418396;-1.1112500429153442;11.545624732971191;-0.14875000715255737
392;0.0;0.0;0.0;0.08393599838018417;-0.07807999849319458;1.1311839818954468;0.0;0.0;0.0
394;0.0;0.0;0.0;0.07612799853086472;-0.10540799796581268;1.097999930381775;0.0;0.0;0.0
396;0.0;0.0;0.0;0.09857599437236786;-0.08979199826717377;1.1184959411621094;0.0;0.0;0.0
398;-0.04660400003194809;0.045871999114751816;0.9884439706802368;0.044895999133586884;-0.08979199826717377;1.1067839860916138;0.35874998569488525;8.465624809265137;-1.7587499618530273
400;0.0;0.0;0.0;0.0878399983048439;-0.10150399804115295;1.1058080196380615;0.0;0.0;0.0
403;0.0;0.0;0.0;0.09564799815416336;-0.07807999849319458;1.122399926185608;0.0;0.0;0.0
405;0.0;0.0;0.0;0.0878399983048439;-0.0663679987192154;1.1106879711151123;0.0;0.0;0.0
407;-0.03952799737453461;0.05563199892640114;0.97843998670578;0.08003199845552444;-0.08588799834251404;1.0901919603347778;2.3187499046325684;4.195624828338623;-3.2987499237060547
409;0.0;0.0;0.0;0.09467199444770813;-0.054655998945236206;1.1145919561386108;0.0;0.0;0.0
411;0.0;0.0;0.0;0.08686399459838867;-0.0936959981918335;1.1106879711151123;0.0;0.0;0.0
413;0.0;0.0;0.0;0.11126399785280228;-0.08588799834251404;1.097999930381775;0.0;0.0;0.0
415;-0.01634800061583519;0.06270799785852432;0.9764879941940308;0.13371199369430542;-0.058559998869895935;1.1106879711151123;4.278749942779541;1.605625033378601;-4.278749942779541
418;0.0;0.0;0.0;0.13761599361896515;-0.07807999849319458;1.1350879669189453;0.0;0.0;0.0
420;0.0;0.0;0.0;0.14151999354362488;-0.07027199864387512;1.0901919603347778;0.0;0.0;0.0
422;0.0;0.0;0.0;0.11028799414634705;-0.07807999849319458;1.0940959453582764;0.0;0.0;0.0
424;0.005367999896407127;0.06685599684715271;0.9789279699325562;0.14151999354362488;-0.08588799834251404;1.0901919603347778;5.818749904632568;1.0456249713897705;-4.278749942779541
426;0.0;0.0;0.0;0.14932799339294434;-0.062463998794555664;1.1184959411621094;0.0;0.0;0.0
428;0.0;0.0;0.0;0.10638399422168732;-0.05075199902057648;1.1067839860916138;0.0;0.0;0.0
430;0.0;0.0;0.0;0.16494399309158325;-0.05075199902057648;1.1067839860916138;0.0;0.0;0.0
432;0.01903199963271618;0.08271599560976028;0.9803919792175293;0.13371199369430542;-0.023423999547958374;1.1028800010681152;6.448750019073486;1.4656250476837158;-3.578749895095825
435;0.0;0.0;0.0;0.14151999354362488;-0.023423999547958374;1.1067839860916138;0.0;0.0;0.0
437;0.0;0.0;0.0;0.15323199331760406;-0.011711999773979187;1.1067839860916138;0.0;0.0;0.0
439;0.0;0.0;0.0;0.16103999316692352;-0.04294399917125702;1.1184959411621094;0.0;0.0;0.0
441;0.022447999566793442;0.09686800092458725;0.9833199977874756;0.16103999316692352;-0.054655998945236206;1.0940959453582764;6.308750152587891;2.7956249713897705;-2.458750009536743
443;0.0;0.0;0.0;0.13371199369430542;-0.023423999547958374;1.1184959411621094;0.0;0.0;0.0
445;0.0;0.0;0.0;0.1298079937696457;-0.04684799909591675;1.1145919561386108;0.0;0.0;0.0
447;0.0;0.0;0.0;0.13761599361896515;-0.04684799909591675;1.0901919603347778;0.0;0.0;0.0
449;0.022204000502824783;0.09101200103759766;0.9828319549560547;0.1454239934682846;-0.03513599932193756;1.1184959411621094;5.888750076293945;5.035624980926514;-1.7587499618530273
452;0.0;0.0;0.0;0.1180959939956665;-0.058559998869895935;1.122399926185608;0.0;0.0;0.0
454;0.0;0.0;0.0;0.16494399309158325;-0.04684799909591675;1.0940959453582764;0.0;0.0;0.0
456;0.0;0.0;0.0;0.14932799339294434;-0.058559998869895935;1.1067839860916138;0.0;0.0;0.0
458;0.019519999623298645;0.08222799748182297;0.981611967086792;0.11028799414634705;-0.0663679987192154;1.1145919561386108;5.888750076293945;7.625625133514404;-1.618749976158142
460;0.0;0.0;0.0;0.13371199369430542;-0.04684799909591675;1.122399926185608;0.0;0.0;0.0
462;0.0;0.0;0.0;0.12199999392032623;-0.058559998869895935;1.1067839860916138;0.0;0.0;0.0
464;0.0;0.0;0.0;0.13761599361896515;-0.03513599932193756;1.1106879711151123;0.0;0.0;0.0
466;0.006831999868154526;0.08222799748182297;0.9813680052757263;0.11419199407100677;-0.058559998869895935;1.1106879711151123;5.678750038146973;9.305624961853027;-1.618749976158142
469;0.0;0.0;0.0;0.11028799414634705;-0.058559998869895935;1.0940959453582764;0.0;0.0;0.0
471;0.0;0.0;0.0;0.10638399422168732;-0.04684799909591675;1.0823839902877808;0.0;0.0;0.0
473;0.0;0.0;0.0;0.12199999392032623;-0.011711999773979187;1.1145919561386108;0.0;0.0;0.0
475;-0.0019519999623298645;0.09320800006389618;0.974291980266571;0.10638399422168732;-0.03903999924659729;1.0901919603347778;5.258749961853027;8.815624237060547;-1.1987500190734863
477;0.0;0.0;0.0;0.13761599361896515;-0.04294399917125702;1.0784800052642822;0.0;0.0;0.0
479;0.0;0.0;0.0;0.09955199807882309;-0.03513599932193756;1.097999930381775;0.0;0.0;0.0
481;0.0;0.0;0.0;0.09564799815416336;-0.015615999698638916;1.1058080196380615;0.0;0.0;0.0
483;-0.011223999783396721;0.1041879951953888;0.9779520034790039;0.10247999429702759;-0.019519999623298645;1.1106879711151123;4.418749809265137;9.02562427520752;-0.8487500548362732
486;0.0;0.0;0.0;0.09955199807882309;-0.011711999773979187;1.1145919561386108;0.0;0.0;0.0
488;0.0;0.0;0.0;0.0878399983048439;0.003903999924659729;1.1184959411621094;0.0;0.0;0.0
490;0.0;0.0;0.0;0.1180959939956665;0.023423999547958374;1.0862879753112793;0.0;0.0;0.0
492;-0.02537599951028824;0.12224400043487549;0.9877119660377502;0.08003199845552444;-0.019519999623298645;1.1184959411621094;3.788749933242798;9.02562427520752;-0.008750000037252903
494;0.0;0.0;0.0;0.06441599875688553;-0.003903999924659729;1.097999930381775;0.0;0.0;0.0
496;0.0;0.0;0.0;0.0605119988322258;0.003903999924659729;1.1145919561386108;0.0;0.0;0.0
498;0.0;0.0;0.0;0.06441599875688553;0.0;1.126304030418396;0.0;0.0;0.0
500;-0.04513999819755554;0.13590799272060394;0.9952759742736816;0.0605119988322258;-0.019519999623298645;1.1350879669189453;4.068749904632568;8.885624885559082;1.321250081062317
503;0.0;0.0;0.0;0.044895999133586884;0.015615999698638916;1.1184959411621094;0.0;0.0;0.0
505;0.0;0.0;0.0;0.0331839993596077;0.011711999773979187;1.1389919519424438;0.0;0.0;0.0
507;0.0;0.0;0.0;0.05660799890756607;0.0;1.1145919561386108;0.0;0.0;0.0
509;-0.06588000059127808;0.13468798995018005;1.0040600299835205;0.044895999133586884;0.011711999773979187;1.1555839776992798;4.628749847412109;7.485625267028809;2.3012499809265137
511;0.0;0.0;0.0;0.05270399898290634;-0.007807999849319458;1.146799921989441;0.0;0.0;0.0
513;0.0;0.0;0.0;0.0605119988322258;-0.023423999547958374;1.1555839776992798;0.0;0.0;0.0
515;0.0;0.0;0.0;0.037087999284267426;-0.019519999623298645;1.1389919519424438;0.0;0.0;0.0
517;-0.07222399860620499;0.12541599571704865;1.016503930091858;0.06441599875688553;-0.007807999849319458;1.1389919519424438;3.8587498664855957;3.4256250858306885;2.581249952316284
520;0.0;0.0;0.0;0.0605119988322258;-0.023423999547958374;1.1555839776992798;0.0;0.0;0.0
522;0.0;0.0;0.0;0.07222399860620499;-0.007807999849319458;1.1672959327697754;0.0;0.0;0.0
524;0.0;0.0;0.0;0.09174399822950363;-0.04294399917125702;1.1633919477462769;0.0;0.0;0.0
526;-0.049531999975442886;0.10931199789047241;1.0260199308395386;0.09955199807882309;-0.04684799909591675;1.1516799926757812;1.96875;-1.4743750095367432;1.7412500381469727
528;0.0;0.0;0.0;0.10345599800348282;-0.03903999924659729;1.1721760034561157;0.0;0.0;0.0
530;0.0;0.0;0.0;0.11126399785280228;-0.0663679987192154;1.1712000370025635;0.0;0.0;0.0
532;0.0;0.0;0.0;0.12590399384498596;-0.03903999924659729;1.1428959369659424;0.0;0.0;0.0
534;-0.010247999802231789;0.09125600010156631;1.0223599672317505;0.15323199331760406;-0.03903999924659729;1.1350879669189453;-0.3412500023841858;-2.874375104904175;0.20125000178813934
537;0.0;0.0;0.0;0.12199999392032623;-0.04294399917125702;1.1389919519424438;0.0;0.0;0.0
539;0.0;0.0;0.0;0.12199999392032623;-0.054655998945236206;1.1311839818954468;0.0;0.0;0.0
541;0.0;0.0;0.0;0.13761599361896515;-0.04294399917125702;1.122399926185608;0.0;0.0;0.0
543;0.012199999764561653;0.09027999639511108;1.00381600856781;0.14932799339294434;-0.031231999397277832;1.1350879669189453;-3.211250066757202;-0.5643749833106995;-0.8487500548362732
545;0.0;0.0;0.0;0.13761599361896515;-0.04294399917125702;1.1028800010681152;0.0;0.0;0.0
547;0.0;0.0;0.0;0.13761599361896515;-0.05075199902057648;1.122399926185608;0.0;0.0;0.0
549;0.0;0.0;0.0;0.13761599361896515;-0.062463998794555664;1.101904034614563;0.0;0.0;0.0
551;0.013907999731600285;0.09101200103759766;0.9823439717292786;0.1298079937696457;-0.04684799909591675;1.0940959453582764;-5.871250152587891;3.4256250858306885;-1.7587499618530273
554;0.0;0.0;0.0;0.13371199369430542;-0.062463998794555664;1.0901919603347778;0.0;0.0;0.0
556;0.0;0.0;0.0;0.14932799339294434;-0.05075199902057648;1.0940959453582764;0.0;0.0;0.0
558;0.0;0.0;0.0;0.1454239934682846;-0.015615999698638916;1.1067839860916138;0.0;0.0;0.0
560;0.011223999783396721;0.09125600010156631;0.9625799655914307;0.12590399384498596;-0.04684799909591675;1.0657919645309448;-7.06125020980835;7.835625171661377;-2.2487499713897705
562;0.0;0.0;0.0;0.12199999392032623;-0.058559998869895935;1.073599934577942;0.0;0.0;0.0
564;0.0;0.0;0.0;0.13371199369430542;-0.04294399917125702;1.0823839902877808;0.0;0.0;0.0
566;0.0;0.0;0.0;0.10247999429702759;-0.05075199902057648;1.073599934577942;0.0;0.0;0.0
568;-0.0056119998916983604;0.08906000107526779;0.961359977722168;0.09174399822950363;-0.023423999547958374;1.0775039196014404;-5.871250152587891;11.755624771118164;-2.1087498664855957
571;0.0;0.0;0.0;0.11028799414634705;-0.027327999472618103;1.0784800052642822;0.0;0.0;0.0
573;0.0;0.0;0.0;0.09955199807882309;-0.05075199902057648;1.0901919603347778;0.0;0.0;0.0
575;0.0;0.0;0.0;0.07222399860620499;-0.062463998794555664;1.0823839902877808;0.0;0.0;0.0
577;-0.023667998611927032;0.07612799853086472;0.9579439759254456;0.08393599838018417;-0.058559998869895935;1.0940959453582764;-2.721250057220459;13.225625038146973;-1.7587499618530273
579;0.0;0.0;0.0;0.07222399860620499;-0.0663679987192154;1.0940959453582764;0.0;0.0;0.0
581;0.0;0.0;0.0;0.09564799815416336;-0.0663679987192154;1.0784800052642822;0.0;0.0;0.0
583;0.0;0.0;0.0;0.040991999208927155;-0.07807999849319458;1.073599934577942;0.0;0.0;0.0
585;-0.0348920002579689;0.05709599703550339;0.9535520076751709;0.09467199444770813;-0.10150399804115295;1.0696959495544434;0.9887500405311584;12.665624618530273;-1.4787499904632568
588;0.0;0.0;0.0;0.06441599875688553;-0.08198399841785431;1.0823839902877808;0.0;0.0;0.0
590;0.0;0.0;0.0;0.06831999868154526;-0.10150399804115295;1.0940959453582764;0.0;0.0;0.0
592;0.0;0.0;0.0;0.0605119988322258;-0.1210239976644516;1.0657919645309448;0.0;0.0;0.0
594;-0.04806799814105034;0.050995998084545135;0.9584319591522217;0.040991999208927155;-0.07027199864387512;1.1028800010681152;4.278749942779541;11.125624656677246;-1.2687499523162842
596;0.0;0.0;0.0;0.07222399860620499;-0.07417599856853485;1.0814080238342285;0.0;0.0;0.0
598;0.0;0.0;0.0;0.0605119988322258;-0.10150399804115295;1.0940959453582764;0.0;0.0;0.0
600;0.0;0.0;0.0;0.06441599875688553;-0.0663679987192154;1.1028800010681152;0.0;0.0;0.0
602;-0.062463998794555664;0.06026799976825714;0.961359977722168;0.040991999208927155;-0.062463998794555664;1.1145919561386108;7.49875020980835;8.67562484741211;-1.2687499523162842
605;0.0;0.0;0.0;0.05660799890756607;-0.05075199902057648;1.0901919603347778;0.0;0.0;0.0
607;0.0;0.0;0.0;0.044895999133586884;-0.0663679987192154;1.0823839902877808;0.0;0.0;0.0
609;0.0;0.0;0.0;0.05270399898290634;-0.054655998945236206;1.097999930381775;0.0;0.0;0.0
611;-0.0773480013012886;0.07783599942922592;0.9625799655914307;0.04879999905824661;-0.05075199902057648;1.0940959453582764;10.088749885559082;5.385624885559082;-1.96875
613;0.0;0.0;0.0;0.037087999284267426;-0.023423999547958374;1.0901919603347778;0.0;0.0;0.0
615;0.0;0.0;0.0;0.01756799966096878;-0.03903999924659729;1.0901919603347778;0.0;0.0;0.0
617;0.0;0.0;0.0;0.029279999434947968;-0.007807999849319458;1.1184959411621094;0.0;0.0;0.0
619;-0.08832799643278122;0.11248400062322617;0.9730719923973083;0.01756799966096878;-0.003903999924659729;1.101904034614563;9.598750114440918;1.3956249952316284;-3.648750066757202
622;0.0;0.0;0.0;0.044895999133586884;0.0;1.1028800010681152;0.0;0.0;0.0
624;0.0;0.0;0.0;0.013663999736309052;0.007807999849319458;1.126304030418396;0.0;0.0;0.0
626;0.0;0.0;0.0;0.07612799853086472;0.007807999849319458;1.1184959411621094;0.0;0.0;0.0
628;-0.07539600133895874;0.13663999736309052;0.9896639585494995;0.037087999284267426;0.019519999623298645;1.122399926185608;7.21875;-1.4043749570846558;-5.46875
630;0.0;0.0;0.0;0.07222399860620499;0.023423999547958374;1.1145919561386108;0.0;0.0;0.0
632;0.0;0.0;0.0;0.07612799853086472;-0.003903999924659729;1.1145919561386108;0.0;0.0;0.0
634;0.0;0.0;0.0;0.08003199845552444;-0.015615999698638916;1.1428959369659424;0.0;0.0;0.0
636;-0.04904399812221527;0.14176400005817413;1.0035719871520996;0.09174399822950363;-0.003903999924659729;1.1389919519424438;4.838749885559082;-1.7543749809265137;-7.21875
639;0.0;0.0;0.0;0.09564799815416336;0.027327999472618103;1.1302080154418945;0.0;0.0;0.0
641;0.0;0.0;0.0;0.09174399822950363;-0.03903999924659729;1.1311839818954468;0.0;0.0;0.0
643;0.0;0.0;0.0;0.10345599800348282;-0.011711999773979187;1.1389919519424438;0.0;0.0;0.0
645;-0.01756799966096878;0.13005200028419495;1.0084519386291504;0.09174399822950363;-0.015615999698638916;1.1428959369659424;1.5487499237060547;-0.6343749761581421;-7.638750076293945
647;0.0;0.0;0.0;0.1298079937696457;-0.031231999397277832;1.1389919519424438;0.0;0.0;0.0
649;0.0;0.0;0.0;0.11028799414634705;-0.011711999773979187;1.1311839818954468;0.0;0.0;0.0
651;0.0;0.0;0.0;0.09857599437236786;-0.04684799909591675;1.1028800010681152;0.0;0.0;0.0
653;-0.011467999778687954;0.11224000155925751;0.9979599714279175;0.1298079937696457;-0.03513599932193756;1.1350879669189453;-2.091249942779541;1.8156250715255737;-7.49875020980835
656;0.0;0.0;0.0;0.10345599800348282;-0.03513599932193756;1.122399926185608;0.0;0.0;0.0
658;0.0;0.0;0.0;0.10735999792814255;-0.04684799909591675;1.101904034614563;0.0;0.0;0.0
660;0.0;0.0;0.0;0.09174399822950363;-0.023423999547958374;1.1145919561386108;0.0;0.0;0.0
662;-0.024399999529123306;0.09589199721813202;0.985759973526001;0.08003199845552444;-0.04294399917125702;1.1028800010681152;-4.331250190734863;5.595624923706055;-8.198749542236328
664;0.0;0.0;0.0;0.11028799414634705;-0.03513599932193756;1.097999930381775;0.0;0.0;0.0
666;0.0;0.0;0.0;0.0878399983048439;-0.058559998869895935;1.1106879711151123;0.0;0.0;0.0
668;0.0;0.0;0.0;0.09174399822950363;-0.04294399917125702;1.073599934577942;0.0;0.0;0.0
670;-0.04440800100564957;0.09125600010156631;0.9681919813156128;0.07612799853086472;-0.054655998945236206;1.097999930381775;-5.03125;8.67562484741211;-8.828749656677246
673;0.0;0.0;0.0;0.08003199845552444;-0.07027199864387512;1.1106879711151123;0.0;0.0;0.0
675;0.0;0.0;0.0;0.0605119988322258;-0.03903999924659729;1.0823839902877808;0.0;0.0;0.0
677;0.0;0.0;0.0;0.06831999868154526;-0.031231999397277832;1.073599934577942;0.0;0.0;0.0
679;-0.06441599875688553;0.08808399736881256;0.9598959684371948;0.06441599875688553;-0.07417599856853485;1.0862879753112793;-3.911250114440918;9.655624389648438;-9.458749771118164
681;0.0;0.0;0.0;0.04879999905824661;-0.08588799834251404;1.0862879753112793;0.0;0.0;0.0
683;0.0;0.0;0.0;0.009759999811649323;-0.05075199902057648;1.0901919603347778;0.0;0.0;0.0
685;0.0;0.0;0.0;0.0331839993596077;-0.062463998794555664;1.1145919561386108;0.0;0.0;0.0
688;-0.07685999572277069;0.0802759975194931;0.9618479609489441;0.040991999208927155;-0.07027199864387512;1.0940959453582764;-1.6012500524520874;7.485625267028809;-10.018750190734863
690;0.0;0.0;0.0;0.04879999905824661;-0.062463998794555664;1.0901919603347778;0.0;0.0;0.0
692;0.0;0.0;0.0;0.040991999208927155;-0.04684799909591675;1.0940959453582764;0.0;0.0;0.0
694;0.0;0.0;0.0;0.0605119988322258;-0.08979199826717377;1.0901919603347778;0.0;0.0;0.0
696;-0.06905199587345123;0.07637199759483337;0.962336003780365;0.04879999905824661;-0.062463998794555664;1.0862879753112793;0.5687500238418579;3.9156250953674316;-10.648750305175781
698;0.0;0.0;0.0;0.04879999905824661;-0.07417599856853485;1.0940959453582764;0.0;0.0;0.0
700;0.0;0.0;0.0;0.06831999868154526;-0.08588799834251404;1.1067839860916138;0.0;0.0;0.0
702;0.0;0.0;0.0;0.07222399860620499;-0.04294399917125702;1.097999930381775;0.0;0.0;0.0
705;-0.05441199988126755;0.07954400032758713;0.9652639627456665;0.06831999868154526;-0.04684799909591675;1.0901919603347778;1.8287500143051147;2.445625066757202;-11.838749885559082
707;0.0;0.0;0.0;0.0605119988322258;-0.04294399917125702;1.101904034614563;0.0;0.0;0.0
709;0.0;0.0;0.0;0.06831999868154526;-0.03903999924659729;1.101904034614563;0.0;0.0;0.0
711;0.0;0.0;0.0;0.09955199807882309;-0.027327999472618103;1.1106879711151123;0.0;0.0;0.0
713;-0.04147999733686447;0.08661999553442001;0.9674599766731262;0.07222399860620499;-0.03513599932193756;1.0940959453582764;1.96875;3.215625047683716;-13.238750457763672
715;0.0;0.0;0.0;0.09857599437236786;-0.04294399917125702;1.1145919561386108;0.0;0.0;0.0
717;0.0;0.0;0.0;0.0878399983048439;-0.03903999924659729;1.097999930381775;0.0;0.0;0.0
719;0.0;0.0;0.0;0.07612799853086472;-0.04294399917125702;1.1067839860916138;0.0;0.0;0.0
722;-0.040748000144958496;0.10272400081157684;0.9694119691848755;0.07612799853086472;0.0;1.0823839902877808;1.128749966621399;4.755625247955322;-14.078749656677246
724;0.0;0.0;0.0;0.09174399822950363;0.003903999924659729;1.0784800052642822;0.0;0.0;0.0
726;0.0;0.0;0.0;0.07222399860620499;-0.023423999547958374;1.1106879711151123;0.0;0.0;0.0
728;0.0;0.0;0.0;0.07222399860620499;-0.023423999547958374;1.0823839902877808;0.0;0.0;0.0
730;-0.04196799919009209;0.12224400043487549;0.9701439738273621;0.07612799853086472;0.007807999849319458;1.1145919561386108;-0.3412500023841858;5.175624847412109;-13.868749618530273
732;0.0;0.0;0.0;0.06441599875688553;-0.023423999547958374;1.0862879753112793;0.0;0.0;0.0
734;0.0;0.0;0.0;0.08393599838018417;-0.003903999924659729;1.1145919561386108;0.0;0.0;0.0
736;0.0;0.0;0.0;0.07612799853086472;-0.011711999773979187;1.1106879711151123;0.0;0.0;0.0
739;-0.038307998329401016;0.1256600022315979;0.9701439738273621;0.0605119988322258;-0.007807999849319458;1.1067839860916138;-0.831250011920929;5.315625190734863;-12.958749771118164
741;0.0;0.0;0.0;0.08393599838018417;-0.003903999924659729;1.1106879711151123;0.0;0.0;0.0
743;0.0;0.0;0.0;0.07612799853086472;-0.023423999547958374;1.0940959453582764;0.0;0.0;0.0
745;0.0;0.0;0.0;0.10247999429702759;-0.003903999924659729;1.0862879753112793;0.0;0.0;0.0
747;-0.03537999838590622;0.11687599867582321;0.9750239849090576;0.08393599838018417;-0.003903999924659729;1.101904034614563;0.35874998569488525;5.665625095367432;-11.138750076293945
749;0.0;0.0;0.0;0.07612799853086472;-0.031231999397277832;1.1106879711151123;0.0;0.0;0.0
751;0.0;0.0;0.0;0.06831999868154526;-0.007807999849319458;1.122399926185608;0.0;0.0;0.0
753;0.0;0.0;0.0;0.0605119988322258;-0.011711999773979187;1.1272799968719482;0.0;0.0;0.0
756;-0.04440800100564957;0.1076039969921112;0.9891759753227234;0.05660799890756607;-0.019519999623298645;1.1350879669189453;1.618749976158142;6.785624980926514;-9.318750381469727
758;0.0;0.0;0.0;0.0605119988322258;-0.04294399917125702;1.1184959411621094;0.0;0.0;0.0
760;0.0;0.0;0.0;0.06831999868154526;-0.04684799909591675;1.1428959369659424;0.0;0.0;0.0
762;0.0;0.0;0.0;0.040991999208927155;-0.04294399917125702;1.1311839818954468;0.0;0.0;0.0
764;-0.057583998888731;0.09955199807882309;1.006500005722046;0.040991999208927155;-0.03513599932193756;1.146799921989441;2.3887500762939453;7.205625057220459;-9.318750381469727
766;0.0;0.0;0.0;0.040991999208927155;-0.05075199902057648;1.1389919519424438;0.0;0.0;0.0
768;0.0;0.0;0.0;0.06441599875688553;-0.023423999547958374;1.1389919519424438;0.0;0.0;0.0
770;0.0;0.0;0.0;0.05660799890756607;-0.062463998794555664;1.1311839818954468;0.0;0.0;0.0
773;-0.05685199797153473;0.08198399841785431;1.007964015007019;0.07222399860620499;-0.03513599932193756;1.1350879669189453;3.018749952316284;6.925624847412109;-10.438750267028809
775;0.0;0.0;0.0;0.06441599875688553;-0.0663679987192154;1.122399926185608;0.0;0.0;0.0
777;0.0;0.0;0.0;0.06831999868154526;-0.07027199864387512;1.1389919519424438;0.0;0.0;0.0
779;0.0;0.0;0.0;0.06831999868154526;-0.04294399917125702;1.126304030418396;0.0;0.0;0.0
781;-0.05441199988126755;0.07124799489974976;1.0016199350357056;0.04879999905824661;-0.054655998945236206;1.1389919519424438;3.71875;6.785624980926514;-12.258749961853027
783;0.0;0.0;0.0;0.08003199845552444;-0.062463998794555664;1.101904034614563;0.0;0.0;0.0
785;0.0;0.0;0.0;0.09174399822950363;-0.0663679987192154;1.1350879669189453;0.0;0.0;0.0
787;0.0;0.0;0.0;0.05660799890756607;-0.05075199902057648;1.1106879711151123;0.0;0.0;0.0
790;-0.05172799900174141;0.07759200036525726;0.9872239828109741;0.0605119988322258;-0.05075199902057648;1.1067839860916138;4.348750114440918;7.065625190734863;-14.498749732971191
792;0.0;0.0;0.0;0.040991999208927155;-0.023423999547958374;1.1067839860916138;0.0;0.0;0.0
794;0.0;0.0;0.0;0.0605119988322258;-0.03903999924659729;1.101904034614563;0.0;0.0;0.0
796;0.0;0.0;0.0;0.06441599875688553;-0.011711999773979187;1.1145919561386108;0.0;0.0;0.0
798;-0.0558759979903698;0.09686800092458725;0.9791719913482666;0.07222399860620499;-0.031231999397277832;1.1067839860916138;4.628749847412109;7.135624885559082;-15.898750305175781
800;0.0;0.0;0.0;0.06831999868154526;-0.027327999472618103;1.1028800010681152;0.0;0.0;0.0
802;0.0;0.0;0.0;0.040991999208927155;-0.011711999773979187;1.1067839860916138;0.0;0.0;0.0
804;0.0;0.0;0.0;0.04879999905824661;-0.007807999849319458;1.122399926185608;0.0;0.0;0.0
807;-0.06368400156497955;0.12346399575471878;0.9791719913482666;0.037087999284267426;0.019519999623298645;1.1145919561386108;5.398749828338623;6.225625038146973;-16.318750381469727
809;0.0;0.0;0.0;0.07222399860620499;0.007807999849319458;1.1145919561386108;0.0;0.0;0.0
811;0.0;0.0;0.0;0.06441599875688553;-0.019519999623298645;1.1184959411621094;0.0;0.0;0.0
813;0.0;0.0;0.0;0.06441599875688553;0.007807999849319458;1.122399926185608;0.0;0.0;0.0
815;-0.06588000059127808;0.14127600193023682;0.9884439706802368;0.037087999284267426;0.007807999849319458;1.1106879711151123;6.448750019073486;4.895625114440918;-16.03875160217285
817;0.0;0.0;0.0;0.044895999133586884;0.011711999773979187;1.0940959453582764;0.0;0.0;0.0
819;0.0;0.0;0.0;0.02537599951028824;0.0;1.1389919519424438;0.0;0.0;0.0
821;0.0;0.0;0.0;0.037087999284267426;0.0;1.1145919561386108;0.0;0.0;0.0
824;-0.07051599770784378;0.1420079916715622;0.9952759742736816;0.029279999434947968;0.007807999849319458;1.1272799968719482;6.798749923706055;4.195624828338623;-15.12874984741211
826;0.0;0.0;0.0;0.04879999905824661;0.03513599932193756;1.1311839818954468;0.0;0.0;0.0
828;0.0;0.0;0.0;0.05660799890756607;0.023423999547958374;1.1145919561386108;0.0;0.0;0.0
830;0.0;0.0;0.0;0.05660799890756607;0.023423999547958374;1.1184959411621094;0.0;0.0;0.0
832;-0.0802759975194931;0.152988001704216;0.9935680031776428;0.04879999905824661;0.023423999547958374;1.122399926185608;5.818749904632568;4.055624961853027;-13.938750267028809
834;0.0;0.0;0.0;0.0331839993596077;0.031231999397277832;1.1145919561386108;0.0;0.0;0.0
836;0.0;0.0;0.0;0.02147199958562851;0.054655998945236206;1.1184959411621094;0.0;0.0;0.0
838;0.0;0.0;0.0;0.040991999208927155;0.054655998945236206;1.122399926185608;0.0;0.0;0.0
841;-0.0861319974064827;0.1739719957113266;0.9862479567527771;0.044895999133586884;0.054655998945236206;1.1028800010681152;4.418749809265137;3.4956250190734863;-12.818750381469727
843;0.0;0.0;0.0;0.040991999208927155;0.03903999924659729;1.097999930381775;0.0;0.0;0.0
845;0.0;0.0;0.0;0.0331839993596077;0.062463998794555664;1.1067839860916138;0.0;0.0;0.0
847;0.0;0.0;0.0;0.029279999434947968;0.08198399841785431;1.1106879711151123;0.0;0.0;0.0
849;-0.08222799748182297;0.18885599076747894;0.9823439717292786;0.02147199958562851;0.0663679987192154;1.1067839860916138;3.228749990463257;2.585624933242798;-11.698749542236328
851;0.0;0.0;0.0;0.0331839993596077;0.03903999924659729;1.0901919603347778;0.0;0.0;0.0
853;0.0;0.0;0.0;0.044895999133586884;0.054655998945236206;1.122399926185608;0.0;0.0;0.0
855;0.0;0.0;0.0;0.05270399898290634;0.058559998869895935;1.122399926185608;0.0;0.0;0.0
858;-0.07075999677181244;0.18641600012779236;0.9811239838600159;0.037087999284267426;0.03903999924659729;1.1106879711151123;2.038749933242798;0.9756250381469727;-10.088749885559082
860;0.0;0.0;0.0;0.05660799890756607;0.04294399917125702;1.0823839902877808;0.0;0.0;0.0
862;0.0;0.0;0.0;0.040991999208927155;-0.003903999924659729;1.1184959411621094;0.0;0.0;0.0
864;0.0;0.0;0.0;0.06441599875688553;0.015615999698638916;1.1184959411621094;0.0;0.0;0.0
866;-0.06612399965524673;0.16030800342559814;0.9882000088691711;0.029279999434947968;0.023423999547958374;1.1428959369659424;0.7787500023841858;1.2556250095367432;-8.688750267028809
868;0.0;0.0;0.0;0.04879999905824661;0.015615999698638916;1.1311839818954468;0.0;0.0;0.0
870;0.0;0.0;0.0;0.07222399860620499;0.011711999773979187;1.1106879711151123;0.0;0.0;0.0
872;0.0;0.0;0.0;0.040991999208927155;0.023423999547958374;1.1184959411621094;0.0;0.0;0.0
875;-0.06783200055360794;0.14298400282859802;1.001863956451416;0.0605119988322258;0.023423999547958374;1.126304030418396;-0.27125000953674316;1.605625033378601;-7.288750171661377
877;0.0;0.0;0.0;0.044895999133586884;0.03903999924659729;1.1106879711151123;0.0;0.0;0.0
879;0.0;0.0;0.0;0.05660799890756607;-0.011711999773979187;1.1184959411621094;0.0;0.0;0.0
881;0.0;0.0;0.0;0.06831999868154526;-0.007807999849319458;1.1350879669189453;0.0;0.0;0.0
883;-0.07515199482440948;0.13468798995018005;1.0045479536056519;0.044895999133586884;0.007807999849319458;1.1184959411621094;-1.53125;1.5356249809265137;-6.448750019073486
885;0.0;0.0;0.0;0.044895999133586884;0.007807999849319458;1.1145919561386108;0.0;0.0;0.0
887;0.0;0.0;0.0;0.037087999284267426;-0.023423999547958374;1.150704026222229;0.0;0.0;0.0
890;0.0;0.0;0.0;0.0605119988322258;0.019519999623298645;1.1350879669189453;0.0;0.0;0.0
892;-0.07783599942922592;0.13541999459266663;1.0084519386291504;0.029279999434947968;0.003903999924659729;1.1428959369659424;-3.7012500762939453;1.3256250619888306;-6.728750228881836
894;0.0;0.0;0.0;0.02147199958562851;-0.015615999698638916;1.146799921989441;0.0;0.0;0.0
896;0.0;0.0;0.0;0.02147199958562851;0.003903999924659729;1.1516799926757812;0.0;0.0;0.0
898;0.0;0.0;0.0;0.02537599951028824;0.003903999924659729;1.122399926185608;0.0;0.0;0.0
900;-0.08564399927854538;0.13541999459266663;1.0194319486618042;0.02147199958562851;-0.007807999849319458;1.1389919519424438;-7.201250076293945;-0.5643749833106995;-7.358749866485596
902;0.0;0.0;0.0;0.037087999284267426;0.011711999773979187;1.1350879669189453;0.0;0.0;0.0
904;0.0;0.0;0.0;0.0058559998869895935;-0.011711999773979187;1.1555839776992798;0.0;0.0;0.0
907;0.0;0.0;0.0;0.0331839993596077;0.007807999849319458;1.1594879627227783;0.0;0.0;0.0
909;-0.07832399755716324;0.13541999459266663;1.0228480100631714;0.06831999868154526;0.015615999698638916;1.1633919477462769;-11.961250305175781;-2.9443750381469727;-8.12874984741211
911;0.0;0.0;0.0;0.05270399898290634;0.011711999773979187;1.1672959327697754;0.0;0.0;0.0
913;0.0;0.0;0.0;0.06441599875688553;-0.003903999924659729;1.1594879627227783;0.0;0.0;0.0
915;0.0;0.0;0.0;0.06441599875688553;-0.003903999924659729;1.1594879627227783;0.0;0.0;0.0
917;-0.05904799699783325;0.1361519992351532;1.0362679958343506;0.06831999868154526;0.011711999773979187;1.1916959285736084;-17.98124885559082;-3.994374990463257;-7.638750076293945
919;0.0;0.0;0.0;0.0605119988322258;0.007807999849319458;1.1799839735031128;0.0;0.0;0.0
921;0.0;0.0;0.0;0.08003199845552444;0.007807999849319458;1.1877919435501099;0.0;0.0;0.0
924;0.0;0.0;0.0;0.0605119988322258;0.023423999547958374;1.2043839693069458;0.0;0.0;0.0
926;-0.06709999591112137;0.13981199264526367;1.0638400316238403;0.05660799890756607;0.011711999773979187;1.2082879543304443;-24.14124870300293;-4.554375171661377;-6.518750190734863
928;0.0;0.0;0.0;0.06441599875688553;0.0;1.1965759992599487;0.0;0.0;0.0
930;0.0;0.0;0.0;0.040991999208927155;-0.003903999924659729;1.2248799800872803;0.0;0.0;0.0
932;0.0;0.0;0.0;0.037087999284267426;0.003903999924659729;1.1956000328063965;0.0;0.0;0.0
934;-0.08442399650812149;0.13176000118255615;1.0787240266799927;0.029279999434947968;0.0;1.2248799800872803;-29.881248474121094;-5.254374980926514;-6.448750019073486
936;0.0;0.0;0.0;0.037087999284267426;-0.003903999924659729;1.2082879543304443;0.0;0.0;0.0
938;0.0;0.0;0.0;-0.0058559998869895935;-0.027327999472618103;1.2082879543304443;0.0;0.0;0.0
941;0.0;0.0;0.0;0.009759999811649323;-0.015615999698638916;1.1838879585266113;0.0;0.0;0.0
943;-0.10028399527072906;0.11785199493169785;1.0726239681243896;0.02537599951028824;-0.007807999849319458;1.1916959285736084;-35.76124954223633;-6.51437520980835;-7.638750076293945
945;0.0;0.0;0.0;0.013663999736309052;-0.019519999623298645;1.1799839735031128;0.0;0.0;0.0
947;0.0;0.0;0.0;0.04879999905824661;0.0;1.1799839735031128;0.0;0.0;0.0
949;0.0;0.0;0.0;0.040991999208927155;-0.019519999623298645;1.1389919519424438;0.0;0.0;0.0
951;-0.08003199845552444;0.11321599781513214;1.036512017250061;0.06831999868154526;-0.054655998945236206;1.1311839818954468;-40.59124755859375;-9.664375305175781;-8.758749961853027
953;0.0;0.0;0.0;0.07222399860620499;-0.015615999698638916;1.1028800010681152;0.0;0.0;0.0
955;0.0;0.0;0.0;0.09174399822950363;-0.019519999623298645;1.097999930381775;0.0;0.0;0.0
958;0.0;0.0;0.0;0.10345599800348282;-0.015615999698638916;1.1067839860916138;0.0;0.0;0.0
960;-0.03855200111865997;0.10858000069856644;0.9811239838600159;0.06831999868154526;-0.05075199902057648;1.073599934577942;-42.411251068115234;-10.22437572479248;-8.05875015258789
962;0.0;0.0;0.0;0.11419199407100677;-0.09759999811649323;1.0657919645309448;0.0;0.0;0.0
964;0.0;0.0;0.0;0.04879999905824661;0.019519999623298645;1.097999930381775;0.0;0.0;0.0
966;0.0;0.0;0.0;0.09174399822950363;-0.07027199864387512;1.0657919645309448;0.0;0.0;0.0
968;-0.0302559994161129;0.07441999763250351;0.9569680094718933;0.06441599875688553;-0.0663679987192154;1.073599934577942;-41.08124923706055;-6.724375247955322;-6.868750095367432
970;0.0;0.0;0.0;0.10345599800348282;-0.019519999623298645;1.1184959411621094;0.0;0.0;0.0
972;0.0;0.0;0.0;0.09174399822950363;-0.054655998945236206;1.073599934577942;0.0;0.0;0.0
975;0.0;0.0;0.0;0.09564799815416336;-0.11321599781513214;1.0413919687271118;0.0;0.0;0.0
977;-0.02147199958562851;0.07466399669647217;0.9596520066261292;0.11419199407100677;-0.07807999849319458;1.0784800052642822;-40.311248779296875;-3.7143750190734863;-5.74875020980835
979;0.0;0.0;0.0;0.10638399422168732;-0.05075199902057648;1.0696959495544434;0.0;0.0;0.0
981;0.0;0.0;0.0;0.09467199444770813;-0.08588799834251404;1.0452959537506104;0.0;0.0;0.0
983;0.0;0.0;0.0;0.10638399422168732;-0.08198399841785431;1.0540800094604492;0.0;0.0;0.0
985;-0.01659199967980385;0.07124799489974976;0.9289079904556274;0.08003199845552444;-0.08198399841785431;1.0579839944839478;-38.98125076293945;-1.894374966621399;-3.3687500953674316
987;0.0;0.0;0.0;0.09955199807882309;-0.08588799834251404;1.0374879837036133;0.0;0.0;0.0
989;0.0;0.0;0.0;0.08393599838018417;-0.08198399841785431;1.0335839986801147;0.0;0.0;0.0
992;0.0;0.0;0.0;0.07222399860620499;-0.10931199789047241;1.0247999429702759;0.0;0.0;0.0
994;-0.03928399831056595;0.03415999934077263;0.9101200103759766;0.0878399983048439;-0.12883199751377106;1.0374879837036133;-33.661251068115234;-2.874375104904175;1.1112500429153442
996;0.0;0.0;0.0;0.07612799853086472;-0.13663999736309052;1.0491999387741089;0.0;0.0;0.0
998;0.0;0.0;0.0;0.07612799853086472;-0.15615999698638916;1.0374879837036133;0.0;0.0;0.0
1000;0.0;0.0;0.0;0.04879999905824661;-0.13663999736309052;1.0296800136566162;0.0;0.0;0.0
1002;-0.0500199981033802;0.0019519999623298645;0.908411979675293;0.04879999905824661;-0.1483519971370697;1.0374879837036133;-26.171249389648438;-6.234375;5.101250171661377
1004;0.0;0.0;0.0;0.09955199807882309;-0.14054399728775024;1.0540800094604492;0.0;0.0;0.0
1006;0.0;0.0;0.0;0.06441599875688553;-0.14444799721240997;1.0247999429702759;0.0;0.0;0.0
1009;0.0;0.0;0.0;0.05660799890756607;-0.1600639969110489;1.0540800094604492;0.0;0.0;0.0
1011;-0.05782799795269966;-0.008051999844610691;0.9162200093269348;0.0605119988322258;-0.14444799721240997;1.0531039237976074;-17.21124839782715;-10.784375190734863;8.391249656677246
1013;0.0;0.0;0.0;0.07222399860620499;-0.14054399728775024;1.0775039196014404;0.0;0.0;0.0
1015;0.0;0.0;0.0;0.044895999133586884;-0.14444799721240997;1.0901919603347778;0.0;0.0;0.0
1017;0.0;0.0;0.0;0.0605119988322258;-0.10540799796581268;1.0823839902877808;0.0;0.0;0.0
1019;-0.06856399774551392;-0.010003999806940556;0.9484279751777649;0.04879999905824661;-0.1483519971370697;1.0862879753112793;-10.631250381469727;-17.504375457763672;10.001250267028809
1021;0.0;0.0;0.0;0.06831999868154526;-0.1600639969110489;1.073599934577942;0.0;0.0;0.0
1023;0.0;0.0;0.0;0.08393599838018417;-0.17177599668502808;1.1311839818954468;0.0;0.0;0.0
1026;0.0;0.0;0.0;0.11028799414634705;-0.19129599630832672;1.1272799968719482;0.0;0.0;0.0
1028;-0.039772000163793564;-0.03855200111865997;0.9886879920959473;0.11028799414634705;-0.1756799966096878;1.1350879669189453;-8.811249732971191;-21.91437530517578;8.111249923706055
1030;0.0;0.0;0.0;0.10735999792814255;-0.19910399615764618;1.1389919519424438;0.0;0.0;0.0
1032;0.0;0.0;0.0;0.13761599361896515;-0.19129599630832672;1.150704026222229;0.0;0.0;0.0
1034;0.0;0.0;0.0;0.13371199369430542;-0.20691199600696564;1.1672959327697754;0.0;0.0;0.0
1036;0.0026839999482035637;-0.06539200246334076;1.02211594581604;0.12590399384498596;-0.2147199958562851;1.1721760034561157;-10.911250114440918;-17.8543758392334;3.1412501335144043
1038;0.0;0.0;0.0;0.16884799301624298;-0.28889599442481995;1.150704026222229;0.0;0.0;0.0
1040;0.0;0.0;0.0;0.10345599800348282;-0.19519999623298645;1.1838879585266113;0.0;0.0;0.0
1043;0.0;0.0;0.0;0.11419199407100677;-0.20691199600696564;1.1760799884796143;0.0;0.0;0.0
1045;0.014151999726891518;-0.08686399459838867;1.0360239744186401;0.1571359932422638;-0.21862399578094482;1.1555839776992798;-14.62125015258789;-7.984375;-2.2487499713897705
1047;0.0;0.0;0.0;0.13371199369430542;-0.2147199958562851;1.175104022026062;0.0;0.0;0.0
1049;0.0;0.0;0.0;0.0878399983048439;-0.23423999547958374;1.1672959327697754;0.0;0.0;0.0
1051;0.0;0.0;0.0;0.10247999429702759;-0.23814399540424347;1.1516799926757812;0.0;0.0;0.0
1053;-0.021715998649597168;-0.08466799557209015;1.0294359922409058;0.09564799815416336;-0.21081599593162537;1.1389919519424438;-17.14124870300293;1.115625023841858;-7.078750133514404
1055;0.0;0.0;0.0;0.037087999284267426;-0.230335995554924;1.122399926185608;0.0;0.0;0.0
1057;0.0;0.0;0.0;0.05270399898290634;-0.230335995554924;1.1516799926757812;0.0;0.0;0.0
1060;0.0;0.0;0.0;0.0605119988322258;-0.2030079960823059;1.126304030418396;0.0;0.0;0.0
1062;-0.06856399774551392;-0.0785679966211319;1.0128439664840698;0.0331839993596077;-0.21081599593162537;1.122399926185608;-17.631248474121094;7.205625057220459;-12.538749694824219
1064;0.0;0.0;0.0;0.05270399898290634;-0.19519999623298645;1.1350879669189453;0.0;0.0;0.0
1066;0.0;0.0;0.0;0.044895999133586884;-0.1600639969110489;1.1184959411621094;0.0;0.0;0.0
1068;0.0;0.0;0.0;0.01756799966096878;-0.18348799645900726;1.1184959411621094;0.0;0.0;0.0
1070;-0.08344800025224686;-0.04318799823522568;0.9889319539070129;0.0331839993596077;-0.16396799683570862;1.0901919603347778;-14.69124984741211;6.29562520980835;-15.338749885559082
1072;0.0;0.0;0.0;0.05270399898290634;-0.14444799721240997;1.0901919603347778;0.0;0.0;0.0
1074;0.0;0.0;0.0;0.044895999133586884;-0.14054399728775024;1.0862879753112793;0.0;0.0;0.0
1077;0.0;0.0;0.0;0.037087999284267426;-0.1327359974384308;1.0940959453582764;0.0;0.0;0.0
1079;-0.08003199845552444;-0.01195599976927042;0.9681919813156128;0.04879999905824661;-0.17177599668502808;1.0862879753112793;-9.0912504196167;1.4656250476837158;-16.17875099182129
1081;0.0;0.0;0.0;0.0605119988322258;-0.1327359974384308;1.0862879753112793;0.0;0.0;0.0
1083;0.0;0.0;0.0;0.040991999208927155;-0.10540799796581268;1.0940959453582764;0.0;0.0;0.0
1085;0.0;0.0;0.0;0.04879999905824661;-0.14054399728775024;1.0862879753112793;0.0;0.0;0.0
1087;-0.058803997933864594;0.00024399999529123306;0.9625799655914307;0.0878399983048439;-0.1210239976644516;1.1184959411621094;-3.28125;-3.1543750762939453;-16.388750076293945
1090;0.0;0.0;0.0;0.09174399822950363;-0.13663999736309052;1.1106879711151123;0.0;0.0;0.0
1092;0.0;0.0;0.0;0.08003199845552444;-0.11321599781513214;1.0901919603347778;0.0;0.0;0.0
1094;0.0;0.0;0.0;0.10638399422168732;-0.11321599781513214;1.097999930381775;0.0;0.0;0.0
1096;-0.02659599855542183;0.0056119998916983604;0.9633119702339172;0.09857599437236786;-0.15615999698638916;1.0862879753112793;0.9187500476837158;-5.324375152587891;-16.10875129699707
1098;0.0;0.0;0.0;0.11419199407100677;-0.11711999773979187;1.1106879711151123;0.0;0.0;0.0
1100;0.0;0.0;0.0;0.14151999354362488;-0.12883199751377106;1.101904034614563;0.0;0.0;0.0
1102;0.0;0.0;0.0;0.10638399422168732;-0.12883199751377106;1.1106879711151123;0.0;0.0;0.0
1104;-0.009759999811649323;0.0019519999623298645;0.9691680073738098;0.10345599800348282;-0.11321599781513214;1.1106879711151123;3.158750057220459;-3.434375047683716;-16.03875160217285
1107;0.0;0.0;0.0;0.09467199444770813;-0.12883199751377106;1.1145919561386108;0.0;0.0;0.0
1108;0.0;0.0;0.0;0.07222399860620499;-0.11711999773979187;1.1106879711151123;0.0;0.0;0.0
1111;0.0;0.0;0.0;0.10638399422168732;-0.13663999736309052;1.097999930381775;0.0;0.0;0.0
1113;-0.018300000578165054;0.007075999863445759;0.9838079810142517;0.10638399422168732;-0.08979199826717377;1.1350879669189453;4.488749980926514;-0.5643749833106995;-16.388750076293945
1115;0.0;0.0;0.0;0.09174399822950363;-0.14054399728775024;1.1311839818954468;0.0;0.0;0.0
1117;0.0;0.0;0.0;0.0878399983048439;-0.08979199826717377;1.1145919561386108;0.0;0.0;0.0
1119;0.0;0.0;0.0;0.09564799815416336;-0.09759999811649323;1.122399926185608;0.0;0.0;0.0
1121;-0.02781599946320057;0.034648001194000244;0.9772199988365173;0.07612799853086472;-0.09759999811649323;1.0862879753112793;5.608749866485596;-0.28437501192092896;-15.618749618530273
1124;0.0;0.0;0.0;0.10247999429702759;-0.08588799834251404;1.1067839860916138;0.0;0.0;0.0
1126;0.0;0.0;0.0;0.09174399822950363;-0.0936959981918335;1.1067839860916138;0.0;0.0;0.0
1128;0.0;0.0;0.0;0.0878399983048439;-0.08198399841785431;1.073599934577942;0.0;0.0;0.0
1130;-0.03879600018262863;0.06197600066661835;0.9679479598999023;0.044895999133586884;-0.07027199864387512;1.101904034614563;6.518750190734863;0.90562504529953;-15.618749618530273
1132;0.0;0.0;0.0;0.05660799890756607;-0.08588799834251404;1.1184959411621094;0.0;0.0;0.0
1134;0.0;0.0;0.0;0.05270399898290634;-0.062463998794555664;1.122399926185608;0.0;0.0;0.0
1136;0.0;0.0;0.0;0.0605119988322258;-0.054655998945236206;1.1350879669189453;0.0;0.0;0.0
1138;-0.052216000854969025;0.0710039958357811;0.9835639595985413;0.040991999208927155;-0.05075199902057648;1.097999930381775;5.818749904632568;2.025624990463257;-16.878751754760742
1140;0.0;0.0;0.0;0.08393599838018417;-0.03513599932193756;1.1145919561386108;0.0;0.0;0.0
1143;0.0;0.0;0.0;0.08003199845552444;-0.054655998945236206;1.122399926185608;0.0;0.0;0.0
1145;0.0;0.0;0.0;0.07612799853086472;-0.054655998945236206;1.1233760118484497;0.0;0.0;0.0
1147;-0.05270399898290634;0.0849120020866394;0.9989359974861145;0.09174399822950363;-0.05075199902057648;1.1184959411621094;3.9287500381469727;1.7456250190734863;-18.348751068115234
1149;0.0;0.0;0.0;0.08393599838018417;-0.05075199902057648;1.1350879669189453;0.0;0.0;0.0
1151;0.0;0.0;0.0;0.06441599875688553;-0.04684799909591675;1.1389919519424438;0.0;0.0;0.0
1153;0.0;0.0;0.0;0.0605119988322258;-0.03513599932193756;1.1516799926757812;0.0;0.0;0.0
1155;-0.053435999900102615;0.09345199912786484;1.0089399814605713;0.06441599875688553;-0.011711999773979187;1.1389919519424438;1.5487499237060547;2.9356250762939453;-19.818750381469727
1158;0.0;0.0;0.0;0.05270399898290634;-0.007807999849319458;1.1594879627227783;0.0;0.0;0.0
1160;0.0;0.0;0.0;0.0331839993596077;-0.015615999698638916;1.1555839776992798;0.0;0.0;0.0
1162;0.0;0.0;0.0;0.05270399898290634;-0.019519999623298645;1.1721760034561157;0.0;0.0;0.0
1164;-0.07515199482440948;0.10540799796581268;1.0279719829559326;0.01756799966096878;-0.031231999397277832;1.1594879627227783;-0.6212499737739563;3.215625047683716;-20.51875114440918
1166;0.0;0.0;0.0;0.02147199958562851;0.003903999924659729;1.1721760034561157;0.0;0.0;0.0
1168;0.0;0.0;0.0;0.0058559998869895935;0.0;1.1799839735031128;0.0;0.0;0.0
1170;0.0;0.0;0.0;-0.0019519999623298645;0.015615999698638916;1.1799839735031128;0.0;0.0;0.0
1172;-0.10931199789047241;0.13176000118255615;1.0433440208435059;0.02537599951028824;0.019519999623298645;1.1838879585266113;-3.0712499618530273;1.115625023841858;-21.42875099182129
1175;0.0;0.0;0.0;0.029279999434947968;0.019519999623298645;1.1555839776992798;0.0;0.0;0.0
1177;0.0;0.0;0.0;-0.0019519999623298645;0.03513599932193756;1.1594879627227783;0.0;0.0;0.0
1179;0.0;0.0;0.0;0.02147199958562851;0.03513599932193756;1.1672959327697754;0.0;0.0;0.0
1181;-0.11321599781513214;0.15347599983215332;1.046515941619873;0.013663999736309052;0.031231999397277832;1.1712000370025635;-5.661250114440918;-1.824375033378601;-22.758750915527344
1183;0.0;0.0;0.0;0.013663999736309052;0.023423999547958374;1.1633919477462769;0.0;0.0;0.0
1185;0.0;0.0;0.0;0.037087999284267426;0.054655998945236206;1.1760799884796143;0.0;0.0;0.0
1187;0.0;0.0;0.0;0.009759999811649323;0.03513599932193756;1.1760799884796143;0.0;0.0;0.0
1189;-0.11785199493169785;0.16128399968147278;1.0467599630355835;0.009759999811649323;0.027327999472618103;1.1838879585266113;-8.041250228881836;-2.3143749237060547;-23.318750381469727
1192;0.0;0.0;0.0;0.0019519999623298645;0.03513599932193756;1.1965759992599487;0.0;0.0;0.0
1194;0.0;0.0;0.0;-0.009759999811649323;0.019519999623298645;1.1721760034561157;0.0;0.0;0.0
1196;0.0;0.0;0.0;-0.013663999736309052;0.031231999397277832;1.1555839776992798;0.0;0.0;0.0
1198;-0.13298000395298004;0.16738399863243103;1.0474920272827148;0.0019519999623298645;0.027327999472618103;1.1721760034561157;-10.351249694824219;-2.804374933242798;-23.03875160217285
1200;0.0;0.0;0.0;-0.037087999284267426;0.027327999472618103;1.1633919477462769;0.0;0.0;0.0
1202;0.0;0.0;0.0;-0.0058559998869895935;0.03903999924659729;1.1555839776992798;0.0;0.0;0.0
1204;0.0;0.0;0.0;-0.02147199958562851;0.03903999924659729;1.1721760034561157;0.0;0.0;0.0
1206;-0.14420399069786072;0.16494399309158325;1.030900001525879;-0.0331839993596077;0.04294399917125702;1.1555839776992798;-11.751250267028809;-3.0143749713897705;-22.3387508392334
1209;0.0;0.0;0.0;-0.044895999133586884;0.04294399917125702;1.1516799926757812;0.0;0.0;0.0
1211;0.0;0.0;0.0;-0.009759999811649323;0.031231999397277832;1.1546080112457275;0.0;0.0;0.0
1213;0.0;0.0;0.0;-0.02537599951028824;0.023423999547958374;1.1350879669189453;0.0;0.0;0.0
1215;-0.14322799444198608;0.16909199953079224;1.0062559843063354;-0.0019519999623298645;0.031231999397277832;1.1145919561386108;-12.101249694824219;-4.484375;-21.35875129699707
1217;0.0;0.0;0.0;0.0058559998869895935;0.023423999547958374;1.0823839902877808;0.0;0.0;0.0
1219;0.0;0.0;0.0;-0.0331839993596077;0.04294399917125702;1.0901919603347778;0.0;0.0;0.0
1221;0.0;0.0;0.0;0.02147199958562851;0.04684799909591675;1.0823839902877808;0.0;0.0;0.0
1223;-0.11858399957418442;0.16787199676036835;0.9633119702339172;0.037087999284267426;0.04294399917125702;1.0657919645309448;-11.611249923706055;-6.304375171661377;-20.098751068115234
1226;0.0;0.0;0.0;0.01756799966096878;0.03513599932193756;1.0618879795074463;0.0;0.0;0.0
1228;0.0;0.0;0.0;0.0605119988322258;0.019519999623298645;1.0531039237976074;0.0;0.0;0.0
1230;0.0;0.0;0.0;0.05270399898290634;0.015615999698638916;1.0413919687271118;0.0;0.0;0.0
1232;-0.08125200122594833;0.15835599601268768;0.9276880025863647;0.0878399983048439;0.023423999547958374;1.0531039237976074;-10.8412504196167;-7.844375133514404;-18.488750457763672
1234;0.0;0.0;0.0;0.09174399822950363;0.04294399917125702;1.0618879795074463;0.0;0.0;0.0
1236;0.0;0.0;0.0;0.07612799853086472;0.015615999698638916;1.0579839944839478;0.0;0.0;0.0
1238;0.0;0.0;0.0;0.08003199845552444;0.023423999547958374;1.0618879795074463;0.0;0.0;0.0
1240;-0.03684400022029877;0.1500599980354309;0.9235399961471558;0.12199999392032623;-0.007807999849319458;1.0657919645309448;-10.001250267028809;-8.5443754196167;-16.598751068115234
1243;0.0;0.0;0.0;0.11126399785280228;0.007807999849319458;1.0784800052642822;0.0;0.0;0.0
1245;0.0;0.0;0.0;0.1180959939956665;-0.03903999924659729;1.0618879795074463;0.0;0.0;0.0
1247;0.0;0.0;0.0;0.1298079937696457;-0.03513599932193756;1.0657919645309448;0.0;0.0;0.0
1249;-0.004391999915242195;0.11760799586772919;0.9311040043830872;0.10638399422168732;-0.027327999472618103;1.0579839944839478;-9.231249809265137;-6.164374828338623;-14.428750038146973
1251;0.0;0.0;0.0;0.09564799815416336;-0.054655998945236206;1.0823839902877808;0.0;0.0;0.0
1253;0.0;0.0;0.0;0.11419199407100677;-0.04294399917125702;1.0657919645309448;0.0;0.0;0.0
1255;0.0;0.0;0.0;0.09467199444770813;-0.03513599932193756;1.0657919645309448;0.0;0.0;0.0
1257;-0.015371999703347683;0.08661999553442001;0.9398880004882812;0.09955199807882309;-0.07027199864387512;1.097999930381775;-8.461250305175781;-1.894374966621399;-12.328749656677246
1260;0.0;0.0;0.0;0.0878399983048439;-0.062463998794555664;1.0657919645309448;0.0;0.0;0.0
1262;0.0;0.0;0.0;0.05660799890756607;-0.07027199864387512;1.0901919603347778;0.0;0.0;0.0
1264;0.0;0.0;0.0;0.0605119988322258;-0.0936959981918335;1.0862879753112793;0.0;0.0;0.0
1266;-0.046115998178720474;0.06612399965524673;0.9479399919509888;0.05270399898290634;-0.04684799909591675;1.0862879753112793;-7.481250286102295;0.4856249988079071;-10.928750038146973
1268;0.0;0.0;0.0;0.044895999133586884;-0.0663679987192154;1.0823839902877808;0.0;0.0;0.0
1270;0.0;0.0;0.0;0.02537599951028824;-0.07027199864387512;1.0823839902877808;0.0;0.0;0.0
1272;0.0;0.0;0.0;0.02537599951028824;-0.0663679987192154;1.0618879795074463;0.0;0.0;0.0
1274;-0.0832040011882782;0.06319599598646164;0.9535520076751709;0.02147199958562851;-0.08198399841785431;1.0823839902877808;-6.361249923706055;0.90562504529953;-11.068750381469727
1277;0.0;0.0;0.0;0.02537599951028824;-0.0663679987192154;1.0823839902877808;0.0;0.0;0.0
1279;0.0;0.0;0.0;0.040991999208927155;-0.08198399841785431;1.0823839902877808;0.0;0.0;0.0
1281;0.0;0.0;0.0;0.040991999208927155;-0.054655998945236206;1.0775039196014404;0.0;0.0;0.0
1283;-0.10077200084924698;0.07588399946689606;0.9533079862594604;0.040991999208927155;-0.03513599932193756;1.0657919645309448;-5.521250247955322;-0.8443750143051147;-12.188750267028809
1285;0.0;0.0;0.0;0.0058559998869895935;-0.07027199864387512;1.073599934577942;0.0;0.0;0.0
1287;0.0;0.0;0.0;0.01756799966096878;-0.03513599932193756;1.0775039196014404;0.0;0.0;0.0
1289;0.0;0.0;0.0;0.02147199958562851;-0.015615999698638916;1.073599934577942;0.0;0.0;0.0
1291;-0.10321199893951416;0.09906399995088577;0.944767951965332;0.037087999284267426;-0.019519999623298645;1.0862879753112793;-5.241250038146973;-2.804374933242798;-11.978750228881836
1294;0.0;0.0;0.0;0.02147199958562851;-0.023423999547958374;1.0775039196014404;0.0;0.0;0.0
1296;0.0;0.0;0.0;0.04879999905824661;0.015615999698638916;1.0862879753112793;0.0;0.0;0.0
1298;0.0;0.0;0.0;0.040991999208927155;0.031231999397277832;1.0940959453582764;0.0;0.0;0.0
1300;-0.09223199635744095;0.1315159946680069;0.9616039991378784;0.040991999208927155;0.027327999472618103;1.1028800010681152;-4.541250228881836;-5.114375114440918;-9.87874984741211
1302;0.0;0.0;0.0;0.040991999208927155;0.023423999547958374;1.1106879711151123;0.0;0.0;0.0
1304;0.0;0.0;0.0;0.06831999868154526;0.015615999698638916;1.1145919561386108;0.0;0.0;0.0
1306;0.0;0.0;0.0;0.05660799890756607;0.019519999623298645;1.122399926185608;0.0;0.0;0.0
1308;-0.06417199969291687;0.14932799339294434;0.9840520024299622;0.06441599875688553;0.011711999773979187;1.122399926185608;-3.5612499713897705;-8.054375648498535;-6.238749980926514
1311;0.0;0.0;0.0;0.06831999868154526;0.027327999472618103;1.1145919561386108;0.0;0.0;0.0
1313;0.0;0.0;0.0;0.09174399822950363;-0.023423999547958374;1.122399926185608;0.0;0.0;0.0
1315;0.0;0.0;0.0;0.06831999868154526;0.0;1.1106879711151123;0.0;0.0;0.0
1317;-0.031231999397277832;0.13834799826145172;0.9918599724769592;0.09955199807882309;0.0;1.101904034614563;-3.421250104904175;-9.174375534057617;-2.8787500858306885
1319;0.0;0.0;0.0;0.11419199407100677;-0.031231999397277832;1.0940959453582764;0.0;0.0;0.0
1321;0.0;0.0;0.0;0.1180959939956665;-0.04684799909591675;1.0862879753112793;0.0;0.0;0.0
1323;0.0;0.0;0.0;0.10638399422168732;-0.031231999397277832;1.097999930381775;0.0;0.0;0.0
1325;-0.004879999905824661;0.09467199444770813;0.9830759763717651;0.14151999354362488;-0.04294399917125702;1.1184959411621094;-4.471250057220459;-7.144374847412109;-0.5687500238418579
1328;0.0;0.0;0.0;0.12590399384498596;-0.0663679987192154;1.122399926185608;0.0;0.0;0.0
1330;0.0;0.0;0.0;0.11028799414634705;-0.08588799834251404;1.1184959411621094;0.0;0.0;0.0
1332;0.0;0.0;0.0;0.09955199807882309;-0.0936959981918335;1.0901919603347778;0.0;0.0;0.0
1334;-0.004147999919950962;0.043431997299194336;0.9796599745750427;0.10735999792814255;-0.10540799796581268;1.097999930381775;-6.011250019073486;-2.3843750953674316;0.27125000953674316
1336;0.0;0.0;0.0;0.1180959939956665;-0.11321599781513214;1.101904034614563;0.0;0.0;0.0
1338;0.0;0.0;0.0;0.08003199845552444;-0.13663999736309052;1.1106879711151123;0.0;0.0;0.0
1340;0.0;0.0;0.0;0.07222399860620499;-0.11711999773979187;1.1145919561386108;0.0;0.0;0.0
1342;-0.0302559994161129;0.013907999731600285;0.9779520034790039;0.08393599838018417;-0.10931199789047241;1.1028800010681152;-7.341249942779541;0.6956250071525574;0.3412500023841858
1345;0.0;0.0;0.0;0.05660799890756607;-0.12492799758911133;1.1145919561386108;0.0;0.0;0.0
1347;0.0;0.0;0.0;0.06441599875688553;-0.13663999736309052;1.1067839860916138;0.0;0.0;0.0
1349;0.0;0.0;0.0;0.08003199845552444;-0.11321599781513214;1.1067839860916138;0.0;0.0;0.0
1351;-0.052947998046875;0.010979999788105488;0.9762439727783203;0.08393599838018417;-0.10150399804115295;1.0823839902877808;-7.901249885559082;-0.1443749964237213;-0.2887499928474426
1353;0.0;0.0;0.0;0.07222399860620499;-0.12492799758911133;1.0940959453582764;0.0;0.0;0.0
1355;0.0;0.0;0.0;0.07612799853086472;-0.11321599781513214;1.0901919603347778;0.0;0.0;0.0
1357;0.0;0.0;0.0;0.09955199807882309;-0.12492799758911133;1.1106879711151123;0.0;0.0;0.0
1359;-0.043431997299194336;0.014151999726891518;0.9738039970397949;0.07612799853086472;-0.10931199789047241;1.101904034614563;-7.201250076293945;-0.7043749690055847;-1.1987500190734863
1362;0.0;0.0;0.0;0.07612799853086472;-0.12492799758911133;1.097999930381775;0.0;0.0;0.0
1364;0.0;0.0;0.0;0.10735999792814255;-0.12883199751377106;1.122399926185608;0.0;0.0;0.0
1366;0.0;0.0;0.0;0.09174399822950363;-0.10931199789047241;1.1272799968719482;0.0;0.0;0.0
1368;-0.030743999406695366;0.014883999712765217;0.990884006023407;0.08393599838018417;-0.11321599781513214;1.1350879669189453;-5.731250286102295;-0.3543750047683716;-0.4987500011920929
1370;0.0;0.0;0.0;0.11028799414634705;-0.11711999773979187;1.122399926185608;0.0;0.0;0.0
1372;0.0;0.0;0.0;0.09564799815416336;-0.10931199789047241;1.1350879669189453;0.0;0.0;0.0
1374;0.0;0.0;0.0;0.10247999429702759;-0.15225599706172943;1.1028800010681152;0.0;0.0;0.0
1376;-0.027084000408649445;0.011223999783396721;0.9979599714279175;0.09564799815416336;-0.12492799758911133;1.1028800010681152;-3.771250009536743;0.5556250214576721;0.9712499976158142
1379;0.0;0.0;0.0;0.07222399860620499;-0.15225599706172943;1.1350879669189453;0.0;0.0;0.0
1381;0.0;0.0;0.0;0.09564799815416336;-0.12883199751377106;1.1233760118484497;0.0;0.0;0.0
1383;0.0;0.0;0.0;0.08393599838018417;-0.1483519971370697;1.101904034614563;0.0;0.0;0.0
1385;-0.0378200002014637;-0.0012199999764561653;0.9906399846076965;0.07612799853086472;-0.14444799721240997;1.1311839818954468;-1.4612500667572021;2.7256250381469727;1.2512500286102295
1387;0.0;0.0;0.0;0.05270399898290634;-0.1210239976644516;1.126304030418396;0.0;0.0;0.0
1389;0.0;0.0;0.0;0.0605119988322258;-0.1327359974384308;1.1311839818954468;0.0;0.0;0.0
1391;0.0;0.0;0.0;0.04879999905824661;-0.12492799758911133;1.1311839818954468;0.0;0.0;0.0
1393;-0.057339999824762344;-0.004147999919950962;0.9979599714279175;0.06441599875688553;-0.1327359974384308;1.1428959369659424;0.14875000715255737;2.2356250286102295;1.1112500429153442
1396;0.0;0.0;0.0;0.08393599838018417;-0.1327359974384308;1.122399926185608;0.0;0.0;0.0
1398;0.0;0.0;0.0;0.10247999429702759;-0.12883199751377106;1.1389919519424438;0.0;0.0;0.0
1400;0.0;0.0;0.0;0.06441599875688553;-0.12883199751377106;1.1311839818954468;0.0;0.0;0.0
1402;-0.05807200074195862;-0.00317199993878603;1.00381600856781;0.0605119988322258;-0.11711999773979187;1.1350879669189453;1.8987499475479126;-1.1243749856948853;1.0412499904632568
1404;0.0;0.0;0.0;0.06831999868154526;-0.14054399728775024;1.1428959369659424;0.0;0.0;0.0
1406;0.0;0.0;0.0;0.06441599875688553;-0.10540799796581268;1.1555839776992798;0.0;0.0;0.0
1408;0.0;0.0;0.0;0.07222399860620499;-0.10931199789047241;1.1594879627227783;0.0;0.0;0.0
1410;-0.06563600152730942;0.015371999703347683;1.0208959579467773;0.02147199958562851;-0.0936959981918335;1.1516799926757812;3.71875;-3.1543750762939453;1.1112500429153442
1413;0.0;0.0;0.0;0.044895999133586884;-0.10931199789047241;1.1633919477462769;0.0;0.0;0.0
1415;0.0;0.0;0.0;0.02537599951028824;-0.0936959981918335;1.1672959327697754;0.0;0.0;0.0
1417;0.0;0.0;0.0;0.02537599951028824;-0.08198399841785431;1.1712000370025635;0.0;0.0;0.0
1419;-0.0861319974064827;0.04123599827289581;1.047003984451294;0.013663999736309052;-0.10150399804115295;1.1916959285736084;3.578749895095825;-5.254374980926514;0.48125001788139343
1421;0.0;0.0;0.0;0.029279999434947968;-0.07807999849319458;1.1760799884796143;0.0;0.0;0.0
1423;0.0;0.0;0.0;0.02537599951028824;-0.0663679987192154;1.1916959285736084;0.0;0.0;0.0
1425;0.0;0.0;0.0;0.040991999208927155;-0.07417599856853485;1.1799839735031128;0.0;0.0;0.0
1427;-0.08198399841785431;0.056120000779628754;1.0623760223388672;0.05660799890756607;-0.0663679987192154;1.1838879585266113;0.2187500149011612;-8.264375686645508;-1.2687499523162842
1430;0.0;0.0;0.0;0.11419199407100677;-0.08198399841785431;1.1916959285736084;0.0;0.0;0.0
1432;0.0;0.0;0.0;0.05270399898290634;-0.08979199826717377;1.1594879627227783;0.0;0.0;0.0
1434;0.0;0.0;0.0;0.09564799815416336;-0.07027199864387512;1.1712000370025635;0.0;0.0;0.0
1436;-0.0453839972615242;0.05685199797153473;1.0482239723205566;0.0878399983048439;-0.0663679987192154;1.1516799926757812;-4.051249980926514;-8.614375114440918;-3.228749990463257
1438;0.0;0.0;0.0;0.07612799853086472;-0.0663679987192154;1.1516799926757812;0.0;0.0;0.0
1440;0.0;0.0;0.0;0.12590399384498596;-0.07417599856853485;1.1311839818954468;0.0;0.0;0.0
1442;0.0;0.0;0.0;0.11419199407100677;-0.08979199826717377;1.1516799926757812;0.0;0.0;0.0
1444;-0.013175999745726585;0.05782799795269966;1.0238239765167236;0.1180959939956665;-0.0663679987192154;1.1389919519424438;-6.851250171661377;-6.024374961853027;-4.138750076293945
1447;0.0;0.0;0.0;0.12199999392032623;-0.062463998794555664;1.122399926185608;0.0;0.0;0.0
1449;0.0;0.0;0.0;0.1298079937696457;-0.0663679987192154;1.0901919603347778;0.0;0.0;0.0
1451;0.0;0.0;0.0;0.13761599361896515;-0.058559998869895935;1.1106879711151123;0.0;0.0;0.0
1453;0.014883999712765217;0.06026799976825714;0.9894199967384338;0.16884799301624298;-0.07027199864387512;1.097999930381775;-7.691249847412109;-2.3143749237060547;-3.5087499618530273
1455;0.0;0.0;0.0;0.15323199331760406;-0.07807999849319458;1.0618879795074463;0.0;0.0;0.0
1457;0.0;0.0;0.0;0.14151999354362488;-0.0663679987192154;1.0823839902877808;0.0;0.0;0.0
1459;0.0;0.0;0.0;0.1571359932422638;-0.054655998945236206;1.0823839902877808;0.0;0.0;0.0
1461;0.030499998480081558;0.06295199692249298;0.9542839527130127;0.1571359932422638;-0.07807999849319458;1.0901919603347778;-6.641250133514404;2.3056249618530273;-0.8487500548362732
1464;0.0;0.0;0.0;0.13761599361896515;-0.0663679987192154;1.0618879795074463;0.0;0.0;0.0
1466;0.0;0.0;0.0;0.12590399384498596;-0.0663679987192154;1.0862879753112793;0.0;0.0;0.0
1468;0.0;0.0;0.0;0.09467199444770813;-0.08588799834251404;1.0784800052642822;0.0;0.0;0.0
1470;0.0056119998916983604;0.06734399497509003;0.9476959705352783;0.0878399983048439;-0.07417599856853485;1.0579839944839478;-4.541250228881836;5.455625057220459;3.28125
1472;0.0;0.0;0.0;0.0878399983048439;-0.04684799909591675;1.0618879795074463;0.0;0.0;0.0
1474;0.0;0.0;0.0;0.0878399983048439;-0.08979199826717377;1.0696959495544434;0.0;0.0;0.0
1476;0.0;0.0;0.0;0.08003199845552444;-0.09759999811649323;1.0862879753112793;0.0;0.0;0.0
1479;-0.038307998329401016;0.06563600152730942;0.9525759816169739;0.06831999868154526;-0.0936959981918335;1.0823839902877808;-1.881250023841858;4.965624809265137;6.291250228881836
1481;0.0;0.0;0.0;0.05270399898290634;-0.10150399804115295;1.0862879753112793;0.0;0.0;0.0
1483;0.0;0.0;0.0;0.029279999434947968;-0.0936959981918335;1.122399926185608;0.0;0.0;0.0
1485;0.0;0.0;0.0;0.05660799890756607;-0.09759999811649323;1.126304030418396;0.0;0.0;0.0
1487;-0.07246799767017365;0.048312000930309296;0.9738039970397949;0.04879999905824661;-0.11321599781513214;1.1106879711151123;1.2687499523162842;2.3056249618530273;7.411250114440918
1489;0.0;0.0;0.0;0.02147199958562851;-0.10150399804115295;1.1184959411621094;0.0;0.0;0.0
1491;0.0;0.0;0.0;0.02537599951028824;-0.0936959981918335;1.1184959411621094;0.0;0.0;0.0
1493;0.0;0.0;0.0;-0.0019519999623298645;-0.11321599781513214;1.126304030418396;0.0;0.0;0.0
1496;-0.08247199654579163;0.03660000115633011;0.9962520003318787;0.05270399898290634;-0.08588799834251404;1.1428959369659424;3.578749895095825;-2.5243749618530273;7.551249980926514
1498;0.0;0.0;0.0;0.040991999208927155;-0.07417599856853485;1.126304030418396;0.0;0.0;0.0
1500;0.0;0.0;0.0;0.06831999868154526;-0.08198399841785431;1.1350879669189453;0.0;0.0;0.0
1502;0.0;0.0;0.0;0.0605119988322258;-0.08588799834251404;1.1350879669189453;0.0;0.0;0.0
1504;-0.0634399950504303;0.03513599932193756;1.0057679414749146;0.07222399860620499;-0.10150399804115295;1.1350879669189453;4.208749771118164;-6.164374828338623;6.501250267028809
1506;0.0;0.0;0.0;0.06441599875688553;-0.08588799834251404;1.1516799926757812;0.0;0.0;0.0
1508;0.0;0.0;0.0;0.10638399422168732;-0.0936959981918335;1.1350879669189453;0.0;0.0;0.0
1510;0.0;0.0;0.0;0.1180959939956665;-0.10931199789047241;1.1311839818954468;0.0;0.0;0.0
1512;-0.028547998517751694;0.04660400003194809;1.0086959600448608;0.10735999792814255;-0.07417599856853485;1.1555839776992798;3.088749885559082;-6.024374961853027;5.451250076293945
1515;0.0;0.0;0.0;0.09174399822950363;-0.08979199826717377;1.1428959369659424;0.0;0.0;0.0
1517;0.0;0.0;0.0;0.09955199807882309;-0.08979199826717377;1.1272799968719482;0.0;0.0;0.0
1519;0.0;0.0;0.0;0.09564799815416336;-0.058559998869895935;1.1106879711151123;0.0;0.0;0.0
1521;-0.008295999839901924;0.06124399974942207;1.0045479536056519;0.12199999392032623;-0.08198399841785431;1.122399926185608;1.6887500286102295;-1.9643750190734863;5.03125
1523;0.0;0.0;0.0;0.1298079937696457;-0.07417599856853485;1.1350879669189453;0.0;0.0;0.0
1525;0.0;0.0;0.0;0.10345599800348282;-0.058559998869895935;1.1145919561386108;0.0;0.0;0.0
1527;0.0;0.0;0.0;0.11907199770212173;-0.058559998869895935;1.1350879669189453;0.0;0.0;0.0
1530;-0.01781199872493744;0.0680759996175766;1.0016199350357056;0.10345599800348282;-0.0663679987192154;1.122399926185608;1.2687499523162842;2.3056249618530273;5.731250286102295
1532;0.0;0.0;0.0;0.11419199407100677;-0.03903999924659729;1.1272799968719482;0.0;0.0;0.0
1534;0.0;0.0;0.0;0.08393599838018417;-0.0663679987192154;1.1145919561386108;0.0;0.0;0.0
1536;0.0;0.0;0.0;0.09174399822950363;-0.0663679987192154;1.1028800010681152;0.0;0.0;0.0
1538;-0.04660400003194809;0.06612399965524673;0.9947879910469055;0.05270399898290634;-0.10540799796581268;1.1106879711151123;1.4787499904632568;3.565624952316284;7.06125020980835
1540;0.0;0.0;0.0;0.07222399860620499;-0.0663679987192154;1.0940959453582764;0.0;0.0;0.0
1542;0.0;0.0;0.0;0.06831999868154526;-0.0663679987192154;1.1067839860916138;0.0;0.0;0.0
1544;0.0;0.0;0.0;0.0331839993596077;-0.05075199902057648;1.1145919561386108;0.0;0.0;0.0
1547;-0.07222399860620499;0.06831999868154526;0.9884439706802368;0.040991999208927155;-0.054655998945236206;1.0940959453582764;1.618749976158142;1.7456250190734863;7.691249847412109
1549;0.0;0.0;0.0;0.0605119988322258;-0.062463998794555664;1.1106879711151123;0.0;0.0;0.0
1551;0.0;0.0;0.0;0.04879999905824661;-0.07027199864387512;1.0901919603347778;0.0;0.0;0.0
1553;0.0;0.0;0.0;0.044895999133586884;-0.054655998945236206;1.1067839860916138;0.0;0.0;0.0
1555;-0.07490799576044083;0.06295199692249298;0.9818559885025024;0.05270399898290634;-0.07027199864387512;1.0901919603347778;1.4787499904632568;-1.2643749713897705;7.131249904632568
1557;0.0;0.0;0.0;0.05270399898290634;-0.07417599856853485;1.1184959411621094;0.0;0.0;0.0
1559;0.0;0.0;0.0;0.06441599875688553;-0.07417599856853485;1.1145919561386108;0.0;0.0;0.0
1561;0.0;0.0;0.0;0.0605119988322258;-0.08588799834251404;1.1184959411621094;0.0;0.0;0.0
1564;-0.056120000779628754;0.05904799699783325;0.97843998670578;0.07612799853086472;-0.07417599856853485;1.1106879711151123;1.0587499141693115;-2.9443750381469727;6.011250019073486
1566;0.0;0.0;0.0;0.06441599875688553;-0.058559998869895935;1.0940959453582764;0.0;0.0;0.0
1568;0.0;0.0;0.0;0.10247999429702759;-0.07417599856853485;1.0940959453582764;0.0;0.0;0.0
1570;0.0;0.0;0.0;0.10345599800348282;-0.08979199826717377;1.1184959411621094;0.0;0.0;0.0
1572;-0.03513599932193756;0.06002400070428848;0.9850279688835144;0.10247999429702759;-0.08198399841785431;1.122399926185608;0.8487500548362732;-2.664375066757202;5.241250038146973
1574;0.0;0.0;0.0;0.10345599800348282;-0.08198399841785431;1.1067839860916138;0.0;0.0;0.0
1576;0.0;0.0;0.0;0.11419199407100677;-0.058559998869895935;1.1184959411621094;0.0;0.0;0.0
1578;0.0;0.0;0.0;0.10345599800348282;-0.062463998794555664;1.1184959411621094;0.0;0.0;0.0
1581;-0.018543999642133713;0.06685599684715271;0.9901520013809204;0.11419199407100677;-0.0663679987192154;1.1106879711151123;1.4087499380111694;-1.334375023841858;5.661250114440918
1583;0.0;0.0;0.0;0.09174399822950363;-0.054655998945236206;1.1184959411621094;0.0;0.0;0.0
1585;0.0;0.0;0.0;0.09955199807882309;-0.04294399917125702;1.1106879711151123;0.0;0.0;0.0
1587;0.0;0.0;0.0;0.0907679945230484;-0.058559998869895935;1.1350879669189453;0.0;0.0;0.0
1589;-0.024399999529123306;0.07759200036525726;0.9911279678344727;0.09174399822950363;-0.05075199902057648;1.1145919561386108;2.3187499046325684;0.765625;7.341249942779541
1591;0.0;0.0;0.0;0.0878399983048439;-0.062463998794555664;1.1145919561386108;0.0;0.0;0.0
1593;0.0;0.0;0.0;0.07612799853086472;-0.04294399917125702;1.1311839818954468;0.0;0.0;0.0
1595;0.0;0.0;0.0;0.06441599875688553;-0.04684799909591675;1.126304030418396;0.0;0.0;0.0
1598;-0.04782399907708168;0.08881600201129913;0.9945439696311951;0.06831999868154526;-0.03903999924659729;1.1350879669189453;2.9487500190734863;2.7956249713897705;9.581250190734863
1600;0.0;0.0;0.0;0.04879999905824661;-0.05075199902057648;1.150704026222229;0.0;0.0;0.0
1602;0.0;0.0;0.0;0.040991999208927155;-0.031231999397277832;1.1350879669189453;0.0;0.0;0.0
1604;0.0;0.0;0.0;0.040991999208927155;-0.03903999924659729;1.1428959369659424;0.0;0.0;0.0
1606;-0.0773480013012886;0.09613599628210068;1.0030839443206787;0.02537599951028824;-0.054655998945236206;1.1272799968719482;3.71875;3.565624952316284;11.19124984741211
1608;0.0;0.0;0.0;0.029279999434947968;-0.031231999397277832;1.1106879711151123;0.0;0.0;0.0
1610;0.0;0.0;0.0;0.037087999284267426;-0.031231999397277832;1.1555839776992798;0.0;0.0;0.0
1612;0.0;0.0;0.0;0.044895999133586884;-0.027327999472618103;1.1389919519424438;0.0;0.0;0.0
1615;-0.09686800092458725;0.09955199807882309;1.0099159479141235;0.009759999811649323;-0.05075199902057648;1.126304030418396;4.418749809265137;1.7456250190734863;12.171250343322754
1617;0.0;0.0;0.0;0.02147199958562851;-0.03903999924659729;1.122399926185608;0.0;0.0;0.0
1619;0.0;0.0;0.0;0.02537599951028824;-0.05075199902057648;1.1311839818954468;0.0;0.0;0.0
1621;0.0;0.0;0.0;0.06441599875688553;-0.05075199902057648;1.1145919561386108;0.0;0.0;0.0
1623;-0.09198799729347229;0.08881600201129913;0.9984479546546936;0.0331839993596077;-0.0663679987192154;1.1184959411621094;4.068749904632568;-1.894374966621399;12.311249732971191
1625;0.0;0.0;0.0;0.05660799890756607;-0.031231999397277832;1.1272799968719482;0.0;0.0;0.0
1627;0.0;0.0;0.0;0.06831999868154526;-0.054655998945236206;1.0940959453582764;0.0;0.0;0.0
1629;0.0;0.0;0.0;0.037087999284267426;-0.07807999849319458;1.1028800010681152;0.0;0.0;0.0
1632;-0.0727119967341423;0.0727119967341423;0.9794159531593323;0.06831999868154526;-0.08588799834251404;1.1067839860916138;3.228749990463257;-4.134375095367432;11.611249923706055
1634;0.0;0.0;0.0;0.06831999868154526;-0.0663679987192154;1.0823839902877808;0.0;0.0;0.0
1636;0.0;0.0;0.0;0.07222399860620499;-0.08198399841785431;1.097999930381775;0.0;0.0;0.0
1638;0.0;0.0;0.0;0.044895999133586884;-0.062463998794555664;1.073599934577942;0.0;0.0;0.0
1640;-0.05441199988126755;0.05929199978709221;0.9630680084228516;0.06441599875688553;-0.07027199864387512;1.0901919603347778;1.3387500047683716;-4.974374771118164;10.701250076293945
1642;0.0;0.0;0.0;0.09857599437236786;-0.08198399841785431;1.0696959495544434;0.0;0.0;0.0
1644;0.0;0.0;0.0;0.08393599838018417;-0.07417599856853485;1.073599934577942;0.0;0.0;0.0
1646;0.0;0.0;0.0;0.07612799853086472;-0.07417599856853485;1.0784800052642822;0.0;0.0;0.0
1649;-0.04147999733686447;0.0558759979903698;0.948915958404541;0.07222399860620499;-0.07807999849319458;1.0657919645309448;-0.831250011920929;-4.694375038146973;9.861249923706055
1651;0.0;0.0;0.0;0.09564799815416336;-0.08979199826717377;1.073599934577942;0.0;0.0;0.0
1653;0.0;0.0;0.0;0.09174399822950363;-0.08198399841785431;1.0540800094604492;0.0;0.0;0.0
1655;0.0;0.0;0.0;0.09174399822950363;-0.07807999849319458;1.0862879753112793;0.0;0.0;0.0
1657;-0.032207999378442764;0.05392399802803993;0.9376919865608215;0.0878399983048439;-0.0663679987192154;1.073599934577942;-3.211250066757202;-3.854374885559082;9.0912504196167
1659;0.0;0.0;0.0;0.0878399983048439;-0.08198399841785431;1.0579839944839478;0.0;0.0;0.0
1661;0.0;0.0;0.0;0.0605119988322258;-0.08588799834251404;1.0696959495544434;0.0;0.0;0.0
1663;0.0;0.0;0.0;0.08393599838018417;-0.0663679987192154;1.0823839902877808;0.0;0.0;0.0
1666;-0.030988000333309174;0.057339999824762344;0.945743978023529;0.08393599838018417;-0.08198399841785431;1.0618879795074463;-5.171249866485596;-3.6443750858306885;9.021249771118164
1668;0.0;0.0;0.0;0.09174399822950363;-0.08979199826717377;1.073599934577942;0.0;0.0;0.0
1670;0.0;0.0;0.0;0.11028799414634705;-0.0936959981918335;1.0901919603347778;0.0;0.0;0.0
1672;0.0;0.0;0.0;0.08393599838018417;-0.10150399804115295;1.097999930381775;0.0;0.0;0.0
1674;-0.02513200044631958;0.05075199902057648;0.9547719955444336;0.0878399983048439;-0.062463998794555664;1.0784800052642822;-5.941249847412109;-4.064374923706055;9.581250190734863
1676;0.0;0.0;0.0;0.09564799815416336;-0.08198399841785431;1.0784800052642822;0.0;0.0;0.0
1678;0.0;0.0;0.0;0.09174399822950363;-0.11321599781513214;1.1106879711151123;0.0;0.0;0.0
1680;0.0;0.0;0.0;0.10345599800348282;-0.12492799758911133;1.073599934577942;0.0;0.0;0.0
1683;-0.022935999557375908;0.033427998423576355;0.9633119702339172;0.0878399983048439;-0.1210239976644516;1.0862879753112793;-5.731250286102295;-3.0843749046325684;10.071249961853027
1685;0.0;0.0;0.0;0.10247999429702759;-0.09759999811649323;1.1028800010681152;0.0;0.0;0.0
1687;0.0;0.0;0.0;0.1180959939956665;-0.1327359974384308;1.101904034614563;0.0;0.0;0.0
1689;0.0;0.0;0.0;0.09174399822950363;-0.11711999773979187;1.0901919603347778;0.0;0.0;0.0
1691;-0.014883999712765217;0.01634800061583519;0.9635559916496277;0.10638399422168732;-0.12883199751377106;1.0901919603347778;-5.03125;-1.334375023841858;10.8412504196167
1693;0.0;0.0;0.0;0.10735999792814255;-0.12883199751377106;1.097999930381775;0.0;0.0;0.0
1695;0.0;0.0;0.0;0.12199999392032623;-0.15225599706172943;1.097999930381775;0.0;0.0;0.0
1697;0.0;0.0;0.0;0.0878399983048439;-0.14444799721240997;1.0823839902877808;0.0;0.0;0.0
1700;-0.014151999726891518;-0.003415999934077263;0.9628239870071411;0.12199999392032623;-0.14444799721240997;1.0862879753112793;-3.4912500381469727;0.8356250524520874;11.331250190734863
1702;0.0;0.0;0.0;0.10638399422168732;-0.16787199676036835;1.0823839902877808;0.0;0.0;0.0
1704;0.0;0.0;0.0;0.08393599838018417;-0.1756799966096878;1.101904034614563;0.0;0.0;0.0
1706;0.0;0.0;0.0;0.1180959939956665;-0.17177599668502808;1.0775039196014404;0.0;0.0;0.0
1708;-0.02122800052165985;-0.016103999689221382;0.9684360027313232;0.09955199807882309;-0.1327359974384308;1.0901919603347778;-1.321250081062317;1.8156250715255737;11.681249618530273
1710;0.0;0.0;0.0;0.0605119988322258;-0.15225599706172943;1.073599934577942;0.0;0.0;0.0
1712;0.0;0.0;0.0;0.11126399785280228;-0.13663999736309052;1.0862879753112793;0.0;0.0;0.0
1715;0.0;0.0;0.0;0.09174399822950363;-0.14054399728775024;1.097999930381775;0.0;0.0;0.0
1717;-0.03415999934077263;-0.009759999811649323;0.9669719934463501;0.0878399983048439;-0.14444799721240997;1.0940959453582764;1.0587499141693115;0.13562500476837158;12.101249694824219
1719;0.0;0.0;0.0;0.09857599437236786;-0.13663999736309052;1.1028800010681152;0.0;0.0;0.0
1721;0.0;0.0;0.0;0.08393599838018417;-0.1327359974384308;1.0862879753112793;0.0;0.0;0.0
1723;0.0;0.0;0.0;0.08003199845552444;-0.12883199751377106;1.1184959411621094;0.0;0.0;0.0
1725;-0.04440800100564957;0.003659999929368496;0.9752680063247681;0.05660799890756607;-0.10931199789047241;1.1145919561386108;2.598749876022339;-3.0843749046325684;11.891249656677246
1727;0.0;0.0;0.0;0.07222399860620499;-0.12492799758911133;1.1106879711151123;0.0;0.0;0.0
1729;0.0;0.0;0.0;0.06831999868154526;-0.1210239976644516;1.097999930381775;0.0;0.0;0.0
1732;0.0;0.0;0.0;0.09174399822950363;-0.12492799758911133;1.1184959411621094;0.0;0.0;0.0
1734;-0.04025999829173088;0.010247999802231789;0.9808799624443054;0.10345599800348282;-0.14054399728775024;1.1145919561386108;2.8787500858306885;-6.234375;11.401249885559082
1736;0.0;0.0;0.0;0.09174399822950363;-0.11321599781513214;1.0940959453582764;0.0;0.0;0.0
1738;0.0;0.0;0.0;0.11419199407100677;-0.12883199751377106;1.1067839860916138;0.0;0.0;0.0
1740;0.0;0.0;0.0;0.09564799815416336;-0.13663999736309052;1.101904034614563;0.0;0.0;0.0
1742;-0.015371999703347683;0.010735999792814255;0.9755119681358337;0.11126399785280228;-0.1327359974384308;1.0940959453582764;2.2487499713897705;-8.334375381469727;11.261250495910645
1744;0.0;0.0;0.0;0.09857599437236786;-0.1210239976644516;1.1028800010681152;0.0;0.0;0.0
1746;0.0;0.0;0.0;0.10638399422168732;-0.11711999773979187;1.1067839860916138;0.0;0.0;0.0
1749;0.0;0.0;0.0;0.1454239934682846;-0.10931199789047241;1.0940959453582764;0.0;0.0;0.0
1751;0.005367999896407127;0.009759999811649323;0.9752680063247681;0.14932799339294434;-0.13663999736309052;1.1067839860916138;1.6887500286102295;-6.794374942779541;10.911250114440918
1753;0.0;0.0;0.0;0.16103999316692352;-0.14444799721240997;1.1106879711151123;0.0;0.0;0.0
1755;0.0;0.0;0.0;0.1571359932422638;-0.1327359974384308;1.097999930381775;0.0;0.0;0.0
1757;0.0;0.0;0.0;0.14151999354362488;-0.1600639969110489;1.1272799968719482;0.0;0.0;0.0
1759;0.027327999472618103;-0.0012199999764561653;0.9811239838600159;0.1571359932422638;-0.14444799721240997;1.1272799968719482;1.0587499141693115;-3.1543750762939453;10.561249732971191
1761;0.0;0.0;0.0;0.13761599361896515;-0.15615999698638916;1.1145919561386108;0.0;0.0;0.0
1763;0.0;0.0;0.0;0.14932799339294434;-0.17177599668502808;1.0940959453582764;0.0;0.0;0.0
1766;0.0;0.0;0.0;0.1298079937696457;-0.14054399728775024;1.122399926185608;0.0;0.0;0.0
1768;0.025619998574256897;-0.023423999547958374;0.9879559874534607;0.1298079937696457;-0.1483519971370697;1.1145919561386108;0.42875000834465027;1.6756250858306885;10.071249961853027
1770;0.0;0.0;0.0;0.11419199407100677;-0.16396799683570862;1.1106879711151123;0.0;0.0;0.0
1772;0.0;0.0;0.0;0.1298079937696457;-0.1327359974384308;1.1028800010681152;0.0;0.0;0.0
1774;0.0;0.0;0.0;0.1298079937696457;-0.1600639969110489;1.126304030418396;0.0;0.0;0.0
1776;0.01439599972218275;-0.025863999500870705;0.9896639585494995;0.13371199369430542;-0.18348799645900726;1.0940959453582764;-0.061250001192092896;5.035624980926514;9.651249885559082
1778;0.0;0.0;0.0;0.11028799414634705;-0.1483519971370697;1.122399926185608;0.0;0.0;0.0
1780;0.0;0.0;0.0;0.1180959939956665;-0.17177599668502808;1.1145919561386108;0.0;0.0;0.0
1783;0.0;0.0;0.0;0.10638399422168732;-0.15225599706172943;1.1145919561386108;0.0;0.0;0.0
1785;-0.0014639999717473984;-0.021715998649597168;0.9852719902992249;0.11028799414634705;-0.1600639969110489;1.1145919561386108;0.2187500149011612;6.505625247955322;9.581250190734863
1787;0.0;0.0;0.0;0.09467199444770813;-0.15615999698638916;1.126304030418396;0.0;0.0;0.0
1789;0.0;0.0;0.0;0.10638399422168732;-0.16396799683570862;1.1145919561386108;0.0;0.0;0.0
1791;0.0;0.0;0.0;0.1180959939956665;-0.15225599706172943;1.1350879669189453;0.0;0.0;0.0
1793;-0.027327999472618103;-0.015371999703347683;0.9933239817619324;0.07612799853086472;-0.15225599706172943;1.1311839818954468;0.8487500548362732;6.155624866485596;9.651249885559082
1795;0.0;0.0;0.0;0.08393599838018417;-0.13663999736309052;1.1428959369659424;0.0;0.0;0.0
1797;0.0;0.0;0.0;0.08393599838018417;-0.16396799683570862;1.1350879669189453;0.0;0.0;0.0
1800;0.0;0.0;0.0;0.07222399860620499;-0.1210239976644516;1.1428959369659424;0.0;0.0;0.0
1802;-0.04928799718618393;0.0024399999529123306;1.0104039907455444;0.06441599875688553;-0.08588799834251404;1.1712000370025635;2.038749933242798;3.075624942779541;10.911250114440918
1804;0.0;0.0;0.0;0.05660799890756607;-0.11711999773979187;1.146799921989441;0.0;0.0;0.0
1806;0.0;0.0;0.0;0.04879999905824661;-0.10540799796581268;1.1350879669189453;0.0;0.0;0.0
1808;0.0;0.0;0.0;0.037087999284267426;-0.10931199789047241;1.150704026222229;0.0;0.0;0.0
1810;-0.07051599770784378;0.018300000578165054;1.0238239765167236;0.05660799890756607;-0.10540799796581268;1.1594879627227783;3.228749990463257;-1.2643749713897705;12.241250038146973
1812;0.0;0.0;0.0;0.040991999208927155;-0.10540799796581268;1.1672959327697754;0.0;0.0;0.0
1814;0.0;0.0;0.0;0.044895999133586884;-0.0936959981918335;1.1555839776992798;0.0;0.0;0.0
1817;0.0;0.0;0.0;0.07222399860620499;-0.10540799796581268;1.1516799926757812;0.0;0.0;0.0
1819;-0.07466399669647217;0.02513200044631958;1.0274839401245117;0.04879999905824661;-0.1327359974384308;1.1594879627227783;3.3687500953674316;-5.744375228881836;12.451250076293945
1821;0.0;0.0;0.0;0.05660799890756607;-0.10931199789047241;1.1594879627227783;0.0;0.0;0.0
1823;0.0;0.0;0.0;0.08003199845552444;-0.08198399841785431;1.150704026222229;0.0;0.0;0.0
1825;0.0;0.0;0.0;0.07612799853086472;-0.12883199751377106;1.1389919519424438;0.0;0.0;0.0
1827;-0.05172799900174141;0.018300000578165054;1.017967939376831;0.10735999792814255;-0.1327359974384308;1.1350879669189453;1.2687499523162842;-10.154375076293945;11.681249618530273
1829;0.0;0.0;0.0;0.07612799853086472;-0.12492799758911133;1.1477760076522827;0.0;0.0;0.0
1831;0.0;0.0;0.0;0.0878399983048439;-0.14054399728775024;1.1106879711151123;0.0;0.0;0.0
1834;0.0;0.0;0.0;0.12199999392032623;-0.1327359974384308;1.1145919561386108;0.0;0.0;0.0
1836;-0.02147199958562851;0.005123999901115894;1.0035719871520996;0.11028799414634705;-0.1600639969110489;1.1145919561386108;-1.7412500381469727;-11.554375648498535;10.141249656677246
1838;0.0;0.0;0.0;0.1180959939956665;-0.13663999736309052;1.1184959411621094;0.0;0.0;0.0
1840;0.0;0.0;0.0;0.12199999392032623;-0.1483519971370697;1.1106879711151123;0.0;0.0;0.0
1842;0.0;0.0;0.0;0.1454239934682846;-0.15225599706172943;1.1067839860916138;0.0;0.0;0.0
1844;0.013175999745726585;-0.007563999854028225;0.9850279688835144;0.13761599361896515;-0.12883199751377106;1.097999930381775;-4.331250190734863;-9.664375305175781;8.321249961853027
1846;0.0;0.0;0.0;0.1454239934682846;-0.15615999698638916;1.073599934577942;0.0;0.0;0.0
1848;0.0;0.0;0.0;0.1727519929409027;-0.15615999698638916;1.097999930381775;0.0;0.0;0.0
1851;0.0;0.0;0.0;0.1727519929409027;-0.17177599668502808;1.097999930381775;0.0;0.0;0.0
1853;0.04391999915242195;-0.02000799961388111;0.9650200009346008;0.15323199331760406;-0.16396799683570862;1.0940959453582764;-5.801249980926514;-4.414374828338623;7.341249942779541
1855;0.0;0.0;0.0;0.1571359932422638;-0.16787199676036835;1.0823839902877808;0.0;0.0;0.0
1857;0.0;0.0;0.0;0.1571359932422638;-0.16396799683570862;1.0862879753112793;0.0;0.0;0.0
1859;0.0;0.0;0.0;0.18836799263954163;-0.13663999736309052;1.0823839902877808;0.0;0.0;0.0
1861;0.04904399812221527;-0.018543999642133713;0.9586759805679321;0.15323199331760406;-0.16787199676036835;1.073599934577942;-5.871250152587891;1.3256250619888306;7.761250019073486
1864;0.0;0.0;0.0;0.1727519929409027;-0.14054399728775024;1.073599934577942;0.0;0.0;0.0
1865;0.0;0.0;0.0;0.1454239934682846;-0.13663999736309052;1.0657919645309448;0.0;0.0;0.0
1868;0.0;0.0;0.0;0.15323199331760406;-0.13663999736309052;1.0823839902877808;0.0;0.0;0.0
1870;0.03171999752521515;-0.008051999844610691;0.9533079862594604;0.12199999392032623;-0.11711999773979187;1.0618879795074463;-4.541250228881836;4.825624942779541;9.511250495910645
1872;0.0;0.0;0.0;0.13371199369430542;-0.1327359974384308;1.073599934577942;0.0;0.0;0.0
1874;0.0;0.0;0.0;0.1454239934682846;-0.1483519971370697;1.0784800052642822;0.0;0.0;0.0
1876;0.0;0.0;0.0;0.13371199369430542;-0.14054399728775024;1.0696959495544434;0.0;0.0;0.0
1878;0.015859998762607574;-0.00317199993878603;0.9506239891052246;0.13371199369430542;-0.15225599706172943;1.0862879753112793;-2.231250047683716;5.945624828338623;11.19124984741211
1880;0.0;0.0;0.0;0.1298079937696457;-0.12492799758911133;1.0862879753112793;0.0;0.0;0.0
1882;0.0;0.0;0.0;0.1180959939956665;-0.14444799721240997;1.097999930381775;0.0;0.0;0.0
1885;0.0;0.0;0.0;0.1298079937696457;-0.13663999736309052;1.0775039196014404;0.0;0.0;0.0
1887;0.00878399983048439;-0.0024399999529123306;0.9513559937477112;0.1298079937696457;-0.15225599706172943;1.0940959453582764;1.0587499141693115;6.365624904632568;12.87125015258789
1889;0.0;0.0;0.0;0.1180959939956665;-0.1210239976644516;1.0901919603347778;0.0;0.0;0.0
1891;0.0;0.0;0.0;0.12590399384498596;-0.1327359974384308;1.0901919603347778;0.0;0.0;0.0
1893;0.0;0.0;0.0;0.0878399983048439;-0.10150399804115295;1.0901919603347778;0.0;0.0;0.0
1895;-0.01439599972218275;-0.0029279999434947968;0.9640439748764038;0.09857599437236786;-0.14444799721240997;1.0940959453582764;4.278749942779541;5.875625133514404;14.131250381469727
1897;0.0;0.0;0.0;0.07222399860620499;-0.1327359974384308;1.1145919561386108;0.0;0.0;0.0
1900;0.0;0.0;0.0;0.08003199845552444;-0.1600639969110489;1.1067839860916138;0.0;0.0;0.0
1902;0.0;0.0;0.0;0.09955199807882309;-0.1483519971370697;1.097999930381775;0.0;0.0;0.0
1904;-0.037087999284267426;-0.009271999821066856;0.9789279699325562;0.08393599838018417;-0.12492799758911133;1.1067839860916138;6.378749847412109;3.565624952316284;14.201250076293945
1906;0.0;0.0;0.0;0.0878399983048439;-0.12883199751377106;1.1272799968719482;0.0;0.0;0.0
1908;0.0;0.0;0.0;0.07222399860620499;-0.15615999698638916;1.126304030418396;0.0;0.0;0.0
1910;0.0;0.0;0.0;0.09174399822950363;-0.12492799758911133;1.1145919561386108;0.0;0.0;0.0
1912;-0.04318799823522568;-0.010491999797523022;0.9882000088691711;0.08393599838018417;-0.14054399728775024;1.1428959369659424;7.148749828338623;0.27562499046325684;13.501250267028809
1914;0.0;0.0;0.0;0.08003199845552444;-0.14054399728775024;1.0940959453582764;0.0;0.0;0.0
1917;0.0;0.0;0.0;0.07222399860620499;-0.14054399728775024;1.1272799968719482;0.0;0.0;0.0
1919;0.0;0.0;0.0;0.07612799853086472;-0.13663999736309052;1.122399926185608;0.0;0.0;0.0
1921;-0.05075199902057648;-0.004879999905824661;0.9945439696311951;0.0605119988322258;-0.1327359974384308;1.1184959411621094;7.428750038146973;-1.4043749570846558;12.171250343322754
1923;0.0;0.0;0.0;0.06441599875688553;-0.1483519971370697;1.150704026222229;0.0;0.0;0.0
1925;0.0;0.0;0.0;0.06441599875688553;-0.1210239976644516;1.1145919561386108;0.0;0.0;0.0
1927;0.0;0.0;0.0;0.0605119988322258;-0.1327359974384308;1.1555839776992798;0.0;0.0;0.0
1929;-0.05660799890756607;0.00951599981635809;1.0113799571990967;0.08003199845552444;-0.12883199751377106;1.1428959369659424;6.238749980926514;-3.224375009536743;9.791250228881836
1932;0.0;0.0;0.0;0.06831999868154526;-0.11711999773979187;1.1555839776992798;0.0;0.0;0.0
1934;0.0;0.0;0.0;0.0878399983048439;-0.10540799796581268;1.1311839818954468;0.0;0.0;0.0
1936;0.0;0.0;0.0;0.09564799815416336;-0.0936959981918335;1.122399926185608;0.0;0.0;0.0
1938;-0.03928399831056595;0.0302559994161129;1.0177240371704102;0.08003199845552444;-0.10150399804115295;1.1389919519424438;3.71875;-5.95437479019165;8.671250343322754
1940;0.0;0.0;0.0;0.09955199807882309;-0.07807999849319458;1.1389919519424438;0.0;0.0;0.0
1942;0.0;0.0;0.0;0.10247999429702759;-0.11711999773979187;1.1389919519424438;0.0;0.0;0.0
1944;0.0;0.0;0.0;0.11028799414634705;-0.07027199864387512;1.1428959369659424;0.0;0.0;0.0
1946;-0.02122800052165985;0.03537999838590622;1.0152839422225952;0.09564799815416336;-0.1210239976644516;1.1428959369659424;0.8487500548362732;-6.094375133514404;7.831250190734863
1949;0.0;0.0;0.0;0.11419199407100677;-0.1327359974384308;1.1516799926757812;0.0;0.0;0.0
1951;0.0;0.0;0.0;0.12199999392032623;-0.11711999773979187;1.146799921989441;0.0;0.0;0.0
1953;0.0;0.0;0.0;0.14151999354362488;-0.09759999811649323;1.1184959411621094;0.0;0.0;0.0
1955;-0.0007319999858736992;0.034648001194000244;1.007964015007019;0.1180959939956665;-0.09759999811649323;1.1106879711151123;-1.881250023841858;-3.7143750190734863;7.06125020980835
1957;0.0;0.0;0.0;0.14151999354362488;-0.11711999773979187;1.1184959411621094;0.0;0.0;0.0
1959;0.0;0.0;0.0;0.13371199369430542;-0.07807999849319458;1.1067839860916138;0.0;0.0;0.0
1961;0.0;0.0;0.0;0.1298079937696457;-0.09759999811649323;1.097999930381775;0.0;0.0;0.0
1963;0.009027999825775623;0.04147999733686447;0.986735999584198;0.12590399384498596;-0.10150399804115295;1.1106879711151123;-3.981250047683716;-0.8443750143051147;7.691249847412109
1965;0.0;0.0;0.0;0.13371199369430542;-0.07027199864387512;1.0940959453582764;0.0;0.0;0.0
1968;0.0;0.0;0.0;0.13761599361896515;-0.08588799834251404;1.1145919561386108;0.0;0.0;0.0
1970;0.0;0.0;0.0;0.10735999792814255;-0.0936959981918335;1.0862879753112793;0.0;0.0;0.0
1972;0.004879999905824661;0.046115998178720474;0.9755119681358337;0.09174399822950363;-0.0936959981918335;1.097999930381775;-5.241250038146973;1.0456249713897705;9.021249771118164
1974;0.0;0.0;0.0;0.13371199369430542;-0.04294399917125702;1.0784800052642822;0.0;0.0;0.0
1976;0.0;0.0;0.0;0.11419199407100677;-0.09759999811649323;1.0901919603347778;0.0;0.0;0.0
1978;0.0;0.0;0.0;0.11419199407100677;-0.07807999849319458;1.1067839860916138;0.0;0.0;0.0
1980;-0.003659999929368496;0.05319199711084366;0.9781959652900696;0.11126399785280228;-0.05075199902057648;1.1184959411621094;-4.961249828338623;1.8156250715255737;11.051250457763672
1983;0.0;0.0;0.0;0.10638399422168732;-0.07027199864387512;1.1106879711151123;0.0;0.0;0.0
1985;0.0;0.0;0.0;0.10247999429702759;-0.08198399841785431;1.101904034614563;0.0;0.0;0.0
1987;0.0;0.0;0.0;0.10638399422168732;-0.08588799834251404;1.1184959411621094;0.0;0.0;0.0
1989;-0.021715998649597168;0.052216000854969025;0.98990797996521;0.11419199407100677;-0.054655998945236206;1.1311839818954468;-3.6312501430511475;2.3056249618530273;12.381250381469727
1991;0.0;0.0;0.0;0.08003199845552444;-0.08588799834251404;1.1428959369659424;0.0;0.0;0.0
1993;0.0;0.0;0.0;0.0878399983048439;-0.09759999811649323;1.1516799926757812;0.0;0.0;0.0
1995;0.0;0.0;0.0;0.08003199845552444;-0.09759999811649323;1.146799921989441;0.0;0.0;0.0
1997;-0.028060000389814377;0.04562800005078316;1.010159969329834;0.11028799414634705;-0.08198399841785431;1.1594879627227783;-1.7412500381469727;1.6756250858306885;13.501250267028809
2000;0.0;0.0;0.0;0.09564799815416336;-0.09759999811649323;1.1389919519424438;0.0;0.0;0.0
2002;0.0;0.0;0.0;0.1180959939956665;-0.10540799796581268;1.126304030418396;0.0;0.0;0.0
2004;0.0;0.0;0.0;0.1298079937696457;-0.08198399841785431;1.1350879669189453;0.0;0.0;0.0
2006;-0.019763998687267303;0.031231999397277832;1.012112021446228;0.11419199407100677;-0.10540799796581268;1.1350879669189453;0.008750000037252903;0.8356250524520874;14.69124984741211
2008;0.0;0.0;0.0;0.10735999792814255;-0.11321599781513214;1.1428959369659424;0.0;0.0;0.0
2010;0.0;0.0;0.0;0.13371199369430542;-0.12492799758911133;1.122399926185608;0.0;0.0;0.0
2012;0.0;0.0;0.0;0.13371199369430542;-0.10540799796581268;1.1350879669189453;0.0;0.0;0.0
2014;-0.006099999882280827;0.01903199963271618;0.9991799592971802;0.1180959939956665;-0.11321599781513214;1.1311839818954468;1.6887500286102295;1.8856250047683716;15.251250267028809
2017;0.0;0.0;0.0;0.11028799414634705;-0.11321599781513214;1.1302080154418945;0.0;0.0;0.0
2019;0.0;0.0;0.0;0.10345599800348282;-0.13663999736309052;1.101904034614563;0.0;0.0;0.0
2021;0.0;0.0;0.0;0.14932799339294434;-0.10931199789047241;1.1184959411621094;0.0;0.0;0.0
2023;0.0014639999717473984;0.010735999792814255;0.985759973526001;0.12590399384498596;-0.14054399728775024;1.1184959411621094;3.088749885559082;4.055624961853027;15.601249694824219
2025;0.0;0.0;0.0;0.10345599800348282;-0.15225599706172943;1.0901919603347778;0.0;0.0;0.0
2027;0.0;0.0;0.0;0.10345599800348282;-0.11711999773979187;1.0862879753112793;0.0;0.0;0.0
2029;0.0;0.0;0.0;0.10735999792814255;-0.14054399728775024;1.1145919561386108;0.0;0.0;0.0
2031;0.0024399999529123306;-0.0021959999576210976;0.9799039959907532;0.09955199807882309;-0.1483519971370697;1.1106879711151123;4.138750076293945;5.595624923706055;15.741250038146973
2034;0.0;0.0;0.0;0.10345599800348282;-0.1483519971370697;1.1106879711151123;0.0;0.0;0.0
2036;0.0;0.0;0.0;0.12590399384498596;-0.10150399804115295;1.1067839860916138;0.0;0.0;0.0
2038;0.0;0.0;0.0;0.07222399860620499;-0.1600639969110489;1.122399926185608;0.0;0.0;0.0
2040;-0.013175999745726585;-0.006587999872863293;0.9821000099182129;0.11419199407100677;-0.11711999773979187;1.101904034614563;5.538750171661377;6.925624847412109;15.391249656677246
2042;0.0;0.0;0.0;0.1180959939956665;-0.1600639969110489;1.1067839860916138;0.0;0.0;0.0
2044;0.0;0.0;0.0;0.1180959939956665;-0.14444799721240997;1.1145919561386108;0.0;0.0;0.0
2046;0.0;0.0;0.0;0.10735999792814255;-0.14444799721240997;1.122399926185608;0.0;0.0;0.0
2048;-0.013175999745726585;-0.00951599981635809;0.9840520024299622;0.11028799414634705;-0.15225599706172943;1.126304030418396;8.478750228881836;7.555624961853027;14.971250534057617
2051;0.0;0.0;0.0;0.10638399422168732;-0.14444799721240997;1.1106879711151123;0.0;0.0;0.0
2053;0.0;0.0;0.0;0.08003199845552444;-0.1210239976644516;1.1145919561386108;0.0;0.0;0.0
2055;0.0;0.0;0.0;0.07612799853086472;-0.12883199751377106;1.1028800010681152;0.0;0.0;0.0
2057;-0.03684400022029877;0.010979999788105488;0.9903959631919861;0.06441599875688553;-0.09759999811649323;1.1350879669189453;11.348750114440918;7.835625171661377;14.62125015258789
2059;0.0;0.0;0.0;0.040991999208927155;-0.0663679987192154;1.1272799968719482;0.0;0.0;0.0
2061;0.0;0.0;0.0;0.06441599875688553;-0.09759999811649323;1.122399926185608;0.0;0.0;0.0
2063;0.0;0.0;0.0;0.040991999208927155;-0.08979199826717377;1.1311839818954468;0.0;0.0;0.0
2065;-0.0697840005159378;0.04001599922776222;0.9991799592971802;0.0331839993596077;-0.0936959981918335;1.1428959369659424;11.62874984741211;4.54562520980835;14.061249732971191
2068;0.0;0.0;0.0;0.04782399907708168;-0.058559998869895935;1.139967918395996;0.0;0.0;0.0
2070;0.0;0.0;0.0;0.0009759999811649323;-0.07027199864387512;1.1721760034561157;0.0;0.0;0.0
2072;0.0;0.0;0.0;0.028303999453783035;-0.0936959981918335;1.1721760034561157;0.0;0.0;0.0
2074;-0.09223199635744095;0.05075199902057648;1.028216004371643;0.032207999378442764;-0.07807999849319458;1.1682720184326172;10.71875;-1.6843750476837158;12.241250038146973
2076;0.0;0.0;0.0;0.032207999378442764;-0.0663679987192154;1.1721760034561157;0.0;0.0;0.0
2078;0.0;0.0;0.0;0.04782399907708168;-0.0936959981918335;1.1926720142364502;0.0;0.0;0.0
2080;0.0;0.0;0.0;0.04391999915242195;-0.08588799834251404;1.1965759992599487;0.0;0.0;0.0
2082;-0.0785679966211319;0.05245999991893768;1.0472480058670044;0.0634399950504303;-0.0936959981918335;1.1848639249801636;9.248749732971191;-7.074375152587891;9.301250457763672
2085;0.0;0.0;0.0;0.09857599437236786;-0.08588799834251404;1.2043839693069458;0.0;0.0;0.0
2087;0.0;0.0;0.0;0.10638399422168732;-0.08198399841785431;1.1799839735031128;0.0;0.0;0.0
2089;0.0;0.0;0.0;0.09174399822950363;-0.054655998945236206;1.1799839735031128;0.0;0.0;0.0
2091;-0.046115998178720474;0.054899998009204865;1.052616000175476;0.08686399459838867;-0.062463998794555664;1.1672959327697754;6.728750228881836;-9.314375877380371;6.571249961853027
2093;0.0;0.0;0.0;0.09174399822950363;-0.07417599856853485;1.2082879543304443;0.0;0.0;0.0
2095;0.0;0.0;0.0;0.09564799815416336;-0.08979199826717377;1.1838879585266113;0.0;0.0;0.0
2097;0.0;0.0;0.0;0.10638399422168732;-0.08979199826717377;1.1799839735031128;0.0;0.0;0.0
2099;-0.018543999642133713;0.05709599703550339;1.0604239702224731;0.1180959939956665;-0.08198399841785431;1.1760799884796143;2.8787500858306885;-9.944375038146973;5.03125
2102;0.0;0.0;0.0;0.1180959939956665;-0.10150399804115295;1.2082879543304443;0.0;0.0;0.0
2104;0.0;0.0;0.0;0.1454239934682846;-0.09759999811649323;1.1877919435501099;0.0;0.0;0.0
2106;0.0;0.0;0.0;0.1454239934682846;-0.08198399841785431;1.1877919435501099;0.0;0.0;0.0
2108;0.012443999759852886;0.04879999905824661;1.059448003768921;0.1298079937696457;-0.07027199864387512;1.1799839735031128;-1.0412499904632568;-9.244375228881836;3.911250114440918
2110;0.0;0.0;0.0;0.14151999354362488;-0.10931199789047241;1.1712000370025635;0.0;0.0;0.0
2112;0.0;0.0;0.0;0.14932799339294434;-0.08979199826717377;1.1633919477462769;0.0;0.0;0.0
2114;0.0;0.0;0.0;0.1454239934682846;-0.0663679987192154;1.150704026222229;0.0;0.0;0.0
2116;0.02903600037097931;0.047091998159885406;1.0352920293807983;0.1571359932422638;-0.08979199826717377;1.1272799968719482;-3.841249942779541;-5.324375152587891;3.4912500381469727
2119;0.0;0.0;0.0;0.16103999316692352;-0.07417599856853485;1.1272799968719482;0.0;0.0;0.0
2121;0.0;0.0;0.0;0.14151999354362488;-0.058559998869895935;1.1106879711151123;0.0;0.0;0.0
2123;0.0;0.0;0.0;0.1454239934682846;-0.054655998945236206;1.0940959453582764;0.0;0.0;0.0
2125;0.030499998480081558;0.0710039958357811;0.9901520013809204;0.16884799301624298;-0.04684799909591675;1.0901919603347778;-5.941249847412109;-2.174375057220459;4.261250019073486
2127;0.0;0.0;0.0;0.14932799339294434;-0.031231999397277832;1.0540800094604492;0.0;0.0;0.0
2129;0.0;0.0;0.0;0.14151999354362488;-0.07027199864387512;1.0657919645309448;0.0;0.0;0.0
2131;0.0;0.0;0.0;0.14932799339294434;-0.011711999773979187;1.0413919687271118;0.0;0.0;0.0
2133;0.03855200111865997;0.09589199721813202;0.9335439801216125;0.15323199331760406;-0.03903999924659729;1.0208959579467773;-7.201250076293945;0.13562500476837158;6.78125
2136;0.0;0.0;0.0;0.14151999354362488;0.003903999924659729;1.0130879878997803;0.0;0.0;0.0
2138;0.0;0.0;0.0;0.15323199331760406;0.007807999849319458;1.0013760328292847;0.0;0.0;0.0
2140;0.0;0.0;0.0;0.13761599361896515;-0.019519999623298645;1.0169919729232788;0.0;0.0;0.0
2142;0.0302559994161129;0.12053599953651428;0.8876720070838928;0.1454239934682846;0.007807999849319458;0.9925919771194458;-6.78125;3.4956250190734863;10.071249961853027
2144;0.0;0.0;0.0;0.12199999392032623;0.015615999698638916;0.9886879920959473;0.0;0.0;0.0
2146;0.0;0.0;0.0;0.12590399384498596;0.015615999698638916;1.0130879878997803;0.0;0.0;0.0
2148;0.0;0.0;0.0;0.10638399422168732;0.007807999849319458;1.0130879878997803;0.0;0.0;0.0
2150;-0.003415999934077263;0.14273999631404877;0.8859639763832092;0.10345599800348282;-0.011711999773979187;1.0296800136566162;-4.401249885559082;4.755625247955322;14.481249809265137
2153;0.0;0.0;0.0;0.09174399822950363;0.019519999623298645;1.0130879878997803;0.0;0.0;0.0
2155;0.0;0.0;0.0;0.11419199407100677;0.015615999698638916;1.0491999387741089;0.0;0.0;0.0
2157;0.0;0.0;0.0;0.09955199807882309;0.023423999547958374;1.0579839944839478;0.0;0.0;0.0
2159;-0.02659599855542183;0.14176400005817413;0.9159759879112244;0.1298079937696457;-0.011711999773979187;1.0579839944839478;-0.5512499809265137;1.605625033378601;19.94124984741211
2161;0.0;0.0;0.0;0.10638399422168732;-0.011711999773979187;1.0618879795074463;0.0;0.0;0.0
2163;0.0;0.0;0.0;0.08393599838018417;0.011711999773979187;1.0696959495544434;0.0;0.0;0.0
2165;0.0;0.0;0.0;0.10735999792814255;-0.03903999924659729;1.073599934577942;0.0;0.0;0.0
2167;-0.02903600037097931;0.115167997777462;0.9545279741287231;0.0878399983048439;-0.027327999472618103;1.1145919561386108;2.9487500190734863;-0.6343749761581421;25.331249237060547
2170;0.0;0.0;0.0;0.06831999868154526;-0.04684799909591675;1.0901919603347778;0.0;0.0;0.0
2172;0.0;0.0;0.0;0.07222399860620499;-0.07417599856853485;1.122399926185608;0.0;0.0;0.0
2174;0.0;0.0;0.0;0.10638399422168732;-0.07807999849319458;1.122399926185608;0.0;0.0;0.0
2176;-0.035868000239133835;0.07295599579811096;0.9823439717292786;0.06441599875688553;-0.0663679987192154;1.1106879711151123;5.328750133514404;0.4856249988079071;28.55124855041504
2178;0.0;0.0;0.0;0.0605119988322258;-0.11321599781513214;1.146799921989441;0.0;0.0;0.0
2180;0.0;0.0;0.0;0.08003199845552444;-0.10150399804115295;1.1350879669189453;0.0;0.0;0.0
2182;0.0;0.0;0.0;0.0605119988322258;-0.11321599781513214;1.146799921989441;0.0;0.0;0.0
2184;-0.059779997915029526;0.029279999434947968;1.0047919750213623;0.037087999284267426;-0.10150399804115295;1.146799921989441;6.588749885559082;3.215625047683716;29.111249923706055
2187;0.0;0.0;0.0;0.029279999434947968;-0.1210239976644516;1.1594879627227783;0.0;0.0;0.0
2189;0.0;0.0;0.0;0.02537599951028824;-0.1483519971370697;1.1555839776992798;0.0;0.0;0.0
2191;0.0;0.0;0.0;-0.009759999811649323;-0.14444799721240997;1.1272799968719482;0.0;0.0;0.0
2193;-0.09589199721813202;0.003659999929368496;1.0247999429702759;0.029279999434947968;-0.15225599706172943;1.1516799926757812;7.288750171661377;3.145625114440918;27.78125
2195;0.0;0.0;0.0;0.009759999811649323;-0.12492799758911133;1.1633919477462769;0.0;0.0;0.0
2197;0.0;0.0;0.0;0.05660799890756607;-0.15225599706172943;1.1672959327697754;0.0;0.0;0.0
2199;0.0;0.0;0.0;0.0331839993596077;-0.14054399728775024;1.1350879669189453;0.0;0.0;0.0
2201;-0.10784799605607986;0.003903999924659729;1.0252879858016968;0.009759999811649323;-0.12883199751377106;1.1389919519424438;8.12874984741211;-0.5643749833106995;25.121248245239258
2204;0.0;0.0;0.0;0.02147199958562851;-0.1210239976644516;1.1516799926757812;0.0;0.0;0.0
2206;0.0;0.0;0.0;0.009759999811649323;-0.1210239976644516;1.1311839818954468;0.0;0.0;0.0
2208;0.0;0.0;0.0;0.009759999811649323;-0.14054399728775024;1.1389919519424438;0.0;0.0;0.0
2210;-0.10345599800348282;0.003903999924659729;1.0133320093154907;0.009759999811649323;-0.10931199789047241;1.1350879669189453;7.988749980926514;-5.114375114440918;21.341249465942383
2212;0.0;0.0;0.0;0.02147199958562851;-0.13663999736309052;1.1106879711151123;0.0;0.0;0.0
2214;0.0;0.0;0.0;0.037087999284267426;-0.12883199751377106;1.1106879711151123;0.0;0.0;0.0
2216;0.0;0.0;0.0;0.05660799890756607;-0.11321599781513214;1.1311839818954468;0.0;0.0;0.0
2218;-0.07930000126361847;0.008295999839901924;1.0052800178527832;0.05270399898290634;-0.12883199751377106;1.1350879669189453;6.868750095367432;-8.614375114440918;16.721248626708984
2221;0.0;0.0;0.0;0.04879999905824661;-0.14054399728775024;1.126304030418396;0.0;0.0;0.0
2223;0.0;0.0;0.0;0.06441599875688553;-0.10150399804115295;1.122399926185608;0.0;0.0;0.0
2225;0.0;0.0;0.0;0.07222399860620499;-0.12492799758911133;1.122399926185608;0.0;0.0;0.0
2227;-0.05026400089263916;0.012931999750435352;1.0047919750213623;0.0878399983048439;-0.1210239976644516;1.1311839818954468;4.628749847412109;-9.314375877380371;12.521249771118164
2229;0.0;0.0;0.0;0.06831999868154526;-0.11321599781513214;1.1233760118484497;0.0;0.0;0.0
2231;0.0;0.0;0.0;0.09955199807882309;-0.10540799796581268;1.0940959453582764;0.0;0.0;0.0
2233;0.0;0.0;0.0;0.1180959939956665;-0.10540799796581268;1.1067839860916138;0.0;0.0;0.0
2235;-0.020495999604463577;0.025863999500870705;0.981611967086792;0.1180959939956665;-0.09759999811649323;1.0775039196014404;1.618749976158142;-6.584374904632568;8.53125
2238;0.0;0.0;0.0;0.11028799414634705;-0.08198399841785431;1.0823839902877808;0.0;0.0;0.0
2240;0.0;0.0;0.0;0.11419199407100677;-0.09759999811649323;1.0940959453582764;0.0;0.0;0.0
2242;0.0;0.0;0.0;0.1180959939956665;-0.11711999773979187;1.0940959453582764;0.0;0.0;0.0
2244;0.005123999901115894;0.03367199748754501;0.9598959684371948;0.13371199369430542;-0.08198399841785431;1.1028800010681152;-1.0412499904632568;-1.9643750190734863;5.661250114440918
2246;0.0;0.0;0.0;0.1454239934682846;-0.08979199826717377;1.0901919603347778;0.0;0.0;0.0
2248;0.0;0.0;0.0;0.1571359932422638;-0.09759999811649323;1.0823839902877808;0.0;0.0;0.0
2250;0.0;0.0;0.0;0.12590399384498596;-0.08588799834251404;1.0862879753112793;0.0;0.0;0.0
2252;0.01781199872493744;0.04050400108098984;0.958187997341156;0.1454239934682846;-0.08198399841785431;1.0940959453582764;-1.9512500762939453;1.4656250476837158;5.171249866485596
2255;0.0;0.0;0.0;0.14932799339294434;-0.07417599856853485;1.0823839902877808;0.0;0.0;0.0
2257;0.0;0.0;0.0;0.14151999354362488;-0.04684799909591675;1.073599934577942;0.0;0.0;0.0
2259;0.0;0.0;0.0;0.11028799414634705;-0.062463998794555664;1.0901919603347778;0.0;0.0;0.0
2261;0.015615999698638916;0.05904799699783325;0.9620919823646545;0.11028799414634705;-0.05075199902057648;1.097999930381775;-0.9012500047683716;2.7956249713897705;7.201250076293945
2263;0.0;0.0;0.0;0.13371199369430542;-0.04684799909591675;1.0940959453582764;0.0;0.0;0.0
2265;0.0;0.0;0.0;0.09955199807882309;-0.03513599932193756;1.1106879711151123;0.0;0.0;0.0
2267;0.0;0.0;0.0;0.10247999429702759;-0.05075199902057648;1.0940959453582764;0.0;0.0;0.0
2269;-0.004879999905824661;0.07685999572277069;0.9689239859580994;0.11419199407100677;-0.054655998945236206;1.097999930381775;0.9887500405311584;2.655625104904175;10.491250038146973
2272;0.0;0.0;0.0;0.10345599800348282;-0.058559998869895935;1.097999930381775;0.0;0.0;0.0
2274;0.0;0.0;0.0;0.08393599838018417;-0.019519999623298645;1.0862879753112793;0.0;0.0;0.0
2276;0.0;0.0;0.0;0.07612799853086472;-0.054655998945236206;1.0823839902877808;0.0;0.0;0.0
2278;-0.026839999482035637;0.08759599924087524;0.9694119691848755;0.10247999429702759;-0.058559998869895935;1.0775039196014404;2.8087499141693115;2.585624933242798;12.171250343322754
2280;0.0;0.0;0.0;0.10735999792814255;-0.03903999924659729;1.1184959411621094;0.0;0.0;0.0
2282;0.0;0.0;0.0;0.09174399822950363;-0.058559998869895935;1.0940959453582764;0.0;0.0;0.0
2284;0.0;0.0;0.0;0.09174399822950363;-0.031231999397277832;1.101904034614563;0.0;0.0;0.0
2286;-0.03294000029563904;0.08710800111293793;0.9708759784698486;0.09174399822950363;-0.058559998869895935;1.101904034614563;4.068749904632568;2.0956249237060547;12.801250457763672
2289;0.0;0.0;0.0;0.09174399822950363;-0.058559998869895935;1.1067839860916138;0.0;0.0;0.0
2291;0.0;0.0;0.0;0.08003199845552444;-0.04684799909591675;1.1106879711151123;0.0;0.0;0.0
2293;0.0;0.0;0.0;0.08003199845552444;-0.05075199902057648;1.097999930381775;0.0;0.0;0.0
2295;-0.037331998348236084;0.07783599942922592;0.9752680063247681;0.09564799815416336;-0.05075199902057648;1.101904034614563;4.348750114440918;0.9756250381469727;13.641249656677246
2297;0.0;0.0;0.0;0.09564799815416336;-0.062463998794555664;1.097999930381775;0.0;0.0;0.0
2299;0.0;0.0;0.0;0.06831999868154526;-0.08979199826717377;1.1106879711151123;0.0;0.0;0.0
2301;0.0;0.0;0.0;0.08393599838018417;-0.0663679987192154;1.1145919561386108;0.0;0.0;0.0
2304;-0.04001599922776222;0.06026799976825714;0.9799039959907532;0.04879999905824661;-0.07417599856853485;1.1184959411621094;4.348750114440918;-0.21437500417232513;13.711250305175781
2306;0.0;0.0;0.0;0.08003199845552444;-0.07417599856853485;1.1067839860916138;0.0;0.0;0.0
2308;0.0;0.0;0.0;0.09564799815416336;-0.09759999811649323;1.122399926185608;0.0;0.0;0.0
2310;0.0;0.0;0.0;0.0878399983048439;-0.10931199789047241;1.1272799968719482;0.0;0.0;0.0
2312;-0.04660400003194809;0.042211998254060745;0.9977160096168518;0.06831999868154526;-0.07027199864387512;1.1272799968719482;4.348750114440918;-0.3543750047683716;12.381250381469727
2314;0.0;0.0;0.0;0.06441599875688553;-0.09759999811649323;1.1672959327697754;0.0;0.0;0.0
2316;0.0;0.0;0.0;0.0878399983048439;-0.08198399841785431;1.1428959369659424;0.0;0.0;0.0
2318;0.0;0.0;0.0;0.04879999905824661;-0.10540799796581268;1.1672959327697754;0.0;0.0;0.0
2320;-0.05416800081729889;0.037087999284267426;1.024067997932434;0.07612799853086472;-0.09759999811649323;1.1633919477462769;3.9987499713897705;0.5556250214576721;10.981249809265137
2323;0.0;0.0;0.0;0.04879999905824661;-0.0936959981918335;1.1672959327697754;0.0;0.0;0.0
2325;0.0;0.0;0.0;0.06831999868154526;-0.09759999811649323;1.1799839735031128;0.0;0.0;0.0
2327;0.0;0.0;0.0;0.05660799890756607;-0.08198399841785431;1.1633919477462769;0.0;0.0;0.0
2329;-0.06539200246334076;0.03635599836707115;1.0335839986801147;0.04879999905824661;-0.10931199789047241;1.1555839776992798;3.3687500953674316;1.5356249809265137;9.931249618530273
2331;0.0;0.0;0.0;0.05270399898290634;-0.07417599856853485;1.1633919477462769;0.0;0.0;0.0
2333;0.0;0.0;0.0;0.04879999905824661;-0.07417599856853485;1.1555839776992798;0.0;0.0;0.0
2335;0.0;0.0;0.0;0.040991999208927155;-0.10540799796581268;1.1672959327697754;0.0;0.0;0.0
2338;-0.06783200055360794;0.04025999829173088;1.026263952255249;0.07612799853086472;-0.07027199864387512;1.1428959369659424;3.3687500953674316;1.2556250095367432;9.721250534057617
2340;0.0;0.0;0.0;0.04879999905824661;-0.07807999849319458;1.1389919519424438;0.0;0.0;0.0
2342;0.0;0.0;0.0;0.044895999133586884;-0.08979199826717377;1.150704026222229;0.0;0.0;0.0
2344;0.0;0.0;0.0;0.05660799890756607;-0.08588799834251404;1.1350879669189453;0.0;0.0;0.0
2346;-0.07515199482440948;0.049531999975442886;1.0182119607925415;0.037087999284267426;-0.08198399841785431;1.1428959369659424;3.4387500286102295;-0.0043750000186264515;9.161250114440918
2348;0.0;0.0;0.0;0.05660799890756607;-0.0663679987192154;1.1184959411621094;0.0;0.0;0.0
2350;0.0;0.0;0.0;0.0331839993596077;-0.062463998794555664;1.1311839818954468;0.0;0.0;0.0
2352;0.0;0.0;0.0;0.029279999434947968;-0.07027199864387512;1.1389919519424438;0.0;0.0;0.0
2355;-0.07832399755716324;0.05807200074195862;1.013819932937622;0.0331839993596077;-0.0663679987192154;1.1428959369659424;3.158750057220459;-2.3143749237060547;7.621250152587891
2357;0.0;0.0;0.0;0.05953599885106087;-0.07807999849319458;1.1360639333724976;0.0;0.0;0.0
2359;0.0;0.0;0.0;0.04782399907708168;-0.062463998794555664;1.1438720226287842;0.0;0.0;0.0
2361;0.0;0.0;0.0;0.04782399907708168;-0.07807999849319458;1.1438720226287842;0.0;0.0;0.0
2363;-0.06002400070428848;0.059779997915029526;1.020408034324646;0.08295999467372894;-0.08979199826717377;1.1438720226287842;1.96875;-4.694375038146973;5.451250076293945
2365;0.0;0.0;0.0;0.0907679945230484;-0.08979199826717377;1.1516799926757812;0.0;0.0;0.0
2367;0.0;0.0;0.0;0.10540799796581268;-0.07027199864387512;1.1721760034561157;0.0;0.0;0.0
2369;0.0;0.0;0.0;0.09467199444770813;-0.07027199864387512;1.1438720226287842;0.0;0.0;0.0
2372;-0.03001200035214424;0.05563199892640114;1.022603988647461;0.08686399459838867;-0.08979199826717377;1.1516799926757812;0.2187500149011612;-5.324375152587891;3.7012500762939453
2374;0.0;0.0;0.0;0.11028799414634705;-0.08979199826717377;1.1428959369659424;0.0;0.0;0.0
2376;0.0;0.0;0.0;0.11126399785280228;-0.07417599856853485;1.122399926185608;0.0;0.0;0.0
2378;0.0;0.0;0.0;0.10638399422168732;-0.11711999773979187;1.1350879669189453;0.0;0.0;0.0
2380;0.004391999915242195;0.04050400108098984;1.0062559843063354;0.1454239934682846;-0.10931199789047241;1.1067839860916138;-1.4612500667572021;-3.5743749141693115;2.9312500953674316
