Timestamp(ms);LG-Accel x(g);LG-Accel y(g);LG-Accel z(g);HG-Accel x(g);HG-Accel y(g);HG-Accel z(g);Gyro x(dps);Gyro y(dps);Gyro z(dps)
81;0.0;0.0;0.0;0.045871999114751816;0.044895999133586884;1.1136159896850586;0.0;0.0;0.0
83;0.0;0.0;0.0;0.06539200246334076;0.0605119988322258;1.1214239597320557;0.0;0.0;0.0
85;0.0;0.0;0.0;0.022447999566793442;0.04879999905824661;1.1253279447555542;0.0;0.0;0.0
87;0.0;0.0;0.0;0.06539200246334076;0.0605119988322258;1.1292319297790527;0.0;0.0;0.0
90;0.0;0.0;0.0;0.045871999114751816;0.0605119988322258;1.1419199705123901;0.0;0.0;0.0
92;0.0;0.0;0.0;0.04879999905824661;0.0936959981918335;1.1184959411621094;0.0;0.0;0.0
94;0.0;0.0;0.0;0.044895999133586884;0.07027199864387512;1.1145919561386108;0.0;0.0;0.0
96;0.0;0.0;0.0;0.05270399898290634;0.0663679987192154;1.1067839860916138;0.0;0.0;0.0
98;-0.06758800148963928;0.2117919921875;0.9938119649887085;0.05660799890756607;0.0663679987192154;1.1184959411621094;0.0;0.0;0.0
100;0.0;0.0;0.0;0.040991999208927155;0.0936959981918335;1.1184959411621094;0.0;0.0;0.0
102;0.0;0.0;0.0;0.06831999868154526;0.09759999811649323;1.1350879669189453;0.0;0.0;0.0
104;0.0;0.0;0.0;0.06831999868154526;0.10150399804115295;1.101904034614563;0.0;0.0;0.0
107;-0.0697840005159378;0.2256999909877777;0.9955199956893921;0.040991999208927155;0.08588799834251404;1.1350879669189453;0.0;0.0;0.0
109;0.0;0.0;0.0;0.0605119988322258;0.09759999811649323;1.1311839818954468;0.0;0.0;0.0
111;0.0;0.0;0.0;0.06441599875688553;0.12883199751377106;1.1311839818954468;0.0;0.0;0.0
113;0.0;0.0;0.0;0.05660799890756607;0.12883199751377106;1.1184959411621094;0.0;0.0;0.0
115;-0.07075999677181244;0.24399998784065247;0.9938119649887085;0.05660799890756607;0.11321599781513214;1.1311839818954468;0.0;0.0;0.0
117;0.0;0.0;0.0;0.040991999208927155;0.12883199751377106;1.1067839860916138;0.0;0.0;0.0
119;0.0;0.0;0.0;0.06831999868154526;0.10150399804115295;1.1145919561386108;0.0;0.0;0.0
122;0.0;0.0;0.0;0.04879999905824661;0.12492799758911133;1.1184959411621094;0.0;0.0;0.0
124;-0.059779997915029526;0.2579079866409302;0.9828319549560547;0.044895999133586884;0.13663999736309052;1.1145919561386108;0.0;0.0;0.0
126;0.0;0.0;0.0;0.05660799890756607;0.1327359974384308;1.0862879753112793;0.0;0.0;0.0
128;0.0;0.0;0.0;0.0878399983048439;0.09759999811649323;1.097999930381775;0.0;0.0;0.0
130;0.0;0.0;0.0;0.07612799853086472;0.13663999736309052;1.097999930381775;0.0;0.0;0.0
132;-0.03757599741220474;0.2571759819984436;0.9691680073738098;0.09174399822950363;0.13663999736309052;1.1067839860916138;0.0;0.0;0.0
134;0.0;0.0;0.0;0.09467199444770813;0.12492799758911133;1.0823839902877808;0.0;0.0;0.0
136;0.0;0.0;0.0;0.10638399422168732;0.1210239976644516;1.073599934577942;0.0;0.0;0.0
139;0.0;0.0;0.0;0.10247999429702759;0.12883199751377106;1.073599934577942;0.0;0.0;0.0
141;-0.014883999712765217;0.24912399053573608;0.9633119702339172;0.13371199369430542;0.1210239976644516;1.0862879753112793;-8.0806245803833;2.161250114440918;7.24500036239624
143;0.0;0.0;0.0;0.09857599437236786;0.08588799834251404;1.0989760160446167;0.0;0.0;0.0
145;0.0;0.0;0.0;0.15615999698638916;0.10931199789047241;1.1028800010681152;0.0;0.0;0.0
147;0.0;0.0;0.0;0.11321599781513214;0.1210239976644516;1.115567922592163;0.0;0.0;0.0
149;-0.004147999919950962;0.23960798978805542;0.9752680063247681;0.1210239976644516;0.08588799834251404;1.1028800010681152;-13.610624313354492;7.481250286102295;10.46500015258789
151;0.0;0.0;0.0;0.12883199751377106;0.0936959981918335;1.0989760160446167;0.0;0.0;0.0
153;0.0;0.0;0.0;0.12883199751377106;0.07807999849319458;1.1028800010681152;0.0;0.0;0.0
156;0.0;0.0;0.0;0.09759999811649323;0.0663679987192154;1.1116639375686646;0.0;0.0;0.0
158;-0.006831999868154526;0.21374399960041046;0.9806360006332397;0.11028799414634705;0.05075199902057648;1.1233760118484497;-18.23062515258789;12.451250076293945;14.244999885559082
160;0.0;0.0;0.0;0.10345599800348282;0.058559998869895935;1.1145919561386108;0.0;0.0;0.0
162;0.0;0.0;0.0;0.12199999392032623;0.03513599932193756;1.101904034614563;0.0;0.0;0.0
164;0.0;0.0;0.0;0.11028799414634705;0.019519999623298645;1.1028800010681152;0.0;0.0;0.0
166;-0.02635199949145317;0.1786080002784729;0.977463960647583;0.07222399860620499;0.04684799909591675;1.1067839860916138;-21.170625686645508;17.631248474121094;17.325000762939453
168;0.0;0.0;0.0;0.07222399860620499;0.023423999547958374;1.1272799968719482;0.0;0.0;0.0
170;0.0;0.0;0.0;0.04879999905824661;0.011711999773979187;1.1145919561386108;0.0;0.0;0.0
173;0.0;0.0;0.0;0.05660799890756607;0.03903999924659729;1.1311839818954468;0.0;0.0;0.0
175;-0.06465999782085419;0.1500599980354309;0.98990797996521;0.02537599951028824;0.007807999849319458;1.1067839860916138;-22.150625228881836;20.64124870300293;19.28499984741211
177;0.0;0.0;0.0;0.009759999811649323;0.015615999698638916;1.122399926185608;0.0;0.0;0.0
179;0.0;0.0;0.0;0.02537599951028824;-0.003903999924659729;1.1145919561386108;0.0;0.0;0.0
181;0.0;0.0;0.0;-0.01756799966096878;-0.03513599932193756;1.0901919603347778;0.0;0.0;0.0
183;-0.11224000155925751;0.1193159967660904;0.9847840070724487;0.009759999811649323;-0.031231999397277832;1.097999930381775;-22.080625534057617;19.241249084472656;20.125
185;0.0;0.0;0.0;-0.0019519999623298645;-0.023423999547958374;1.0823839902877808;0.0;0.0;0.0
187;0.0;0.0;0.0;0.0058559998869895935;-0.015615999698638916;1.0901919603347778;0.0;0.0;0.0
190;0.0;0.0;0.0;-0.009759999811649323;-0.031231999397277832;1.1028800010681152;0.0;0.0;0.0
192;-0.13663999736309052;0.09491600096225739;0.9738039970397949;-0.02147199958562851;-0.058559998869895935;1.0940959453582764;-21.380624771118164;15.811249732971191;18.58500099182129
194;0.0;0.0;0.0;-0.01756799966096878;-0.054655998945236206;1.126304030418396;0.0;0.0;0.0
196;0.0;0.0;0.0;-0.009759999811649323;-0.05075199902057648;1.101904034614563;0.0;0.0;0.0
198;0.0;0.0;0.0;-0.009759999811649323;-0.027327999472618103;1.101904034614563;0.0;0.0;0.0
200;-0.1315159946680069;0.08540000021457672;0.9759999513626099;-0.0019519999623298645;-0.05075199902057648;1.0862879753112793;-20.190624237060547;11.401249885559082;16.625
202;0.0;0.0;0.0;-0.0058559998869895935;-0.03513599932193756;1.0940959453582764;0.0;0.0;0.0
204;0.0;0.0;0.0;0.0019519999623298645;-0.08198399841785431;1.101904034614563;0.0;0.0;0.0
207;0.0;0.0;0.0;-0.009759999811649323;-0.23423999547958374;1.0335839986801147;0.0;0.0;0.0
209;-0.11834000051021576;0.04147999733686447;0.9630680084228516;-0.02537599951028824;0.04684799909591675;1.122399926185608;-18.440624237060547;7.901249885559082;15.4350004196167
211;0.0;0.0;0.0;-0.013663999736309052;-0.062463998794555664;1.0940959453582764;0.0;0.0;0.0
213;0.0;0.0;0.0;-0.029279999434947968;0.015615999698638916;1.1428959369659424;0.0;0.0;0.0
215;0.0;0.0;0.0;0.05660799890756607;-0.05075199902057648;1.1067839860916138;0.0;0.0;0.0
217;-0.10687199980020523;0.11126399785280228;0.9994239807128906;0.0878399983048439;-0.05075199902057648;1.1389919519424438;-18.23062515258789;4.681250095367432;14.315000534057617
219;0.0;0.0;0.0;0.05270399898290634;-0.04684799909591675;1.1272799968719482;0.0;0.0;0.0
221;0.0;0.0;0.0;0.0605119988322258;-0.027327999472618103;1.1028800010681152;0.0;0.0;0.0
224;0.0;0.0;0.0;0.0605119988322258;-0.03513599932193756;1.1067839860916138;0.0;0.0;0.0
226;-0.0680759996175766;0.08954799920320511;0.9694119691848755;0.044895999133586884;-0.054655998945236206;1.073599934577942;-19.560625076293945;6.291250228881836;14.664999961853027
228;0.0;0.0;0.0;0.05270399898290634;-0.031231999397277832;1.0823839902877808;0.0;0.0;0.0
230;0.0;0.0;0.0;0.08393599838018417;-0.023423999547958374;1.0618879795074463;0.0;0.0;0.0
232;0.0;0.0;0.0;0.0605119988322258;-0.05075199902057648;1.0657919645309448;0.0;0.0;0.0
234;-0.06929600238800049;0.08979199826717377;0.9408639669418335;0.040991999208927155;-0.04294399917125702;1.0579839944839478;-16.48062515258789;9.861249923706055;15.225000381469727
237;0.0;0.0;0.0;0.040991999208927155;-0.03903999924659729;1.0657919645309448;0.0;0.0;0.0
238;0.0;0.0;0.0;0.07222399860620499;-0.05075199902057648;1.0452959537506104;0.0;0.0;0.0
241;0.0;0.0;0.0;0.02147199958562851;-0.054655998945236206;1.0374879837036133;0.0;0.0;0.0
243;-0.07222399860620499;0.08857199549674988;0.9281759858131409;0.0605119988322258;-0.07417599856853485;1.0374879837036133;-11.30062484741211;9.791250228881836;18.30500030517578
245;0.0;0.0;0.0;0.037087999284267426;-0.054655998945236206;1.0618879795074463;0.0;0.0;0.0
247;0.0;0.0;0.0;0.04879999905824661;-0.0663679987192154;1.0413919687271118;0.0;0.0;0.0
249;0.0;0.0;0.0;0.0331839993596077;-0.062463998794555664;1.0540800094604492;0.0;0.0;0.0
251;-0.0878399983048439;0.07930000126361847;0.9230519533157349;0.05270399898290634;-0.07807999849319458;1.0335839986801147;-6.750625133514404;7.411250114440918;22.014999389648438
253;0.0;0.0;0.0;0.0331839993596077;-0.04684799909591675;1.0540800094604492;0.0;0.0;0.0
255;0.0;0.0;0.0;0.02147199958562851;-0.03903999924659729;1.0696959495544434;0.0;0.0;0.0
258;0.0;0.0;0.0;0.0878399983048439;-0.05075199902057648;1.0823839902877808;0.0;0.0;0.0
260;-0.08149600028991699;0.08051999658346176;0.9437919855117798;0.05660799890756607;-0.054655998945236206;1.0657919645309448;-3.6706249713897705;4.541250228881836;24.67500114440918
262;0.0;0.0;0.0;0.0605119988322258;-0.04684799909591675;1.0901919603347778;0.0;0.0;0.0
264;0.0;0.0;0.0;0.07222399860620499;-0.07027199864387512;1.0823839902877808;0.0;0.0;0.0
266;0.0;0.0;0.0;0.06831999868154526;-0.04684799909591675;1.1145919561386108;0.0;0.0;0.0
268;-0.06026799976825714;0.0773480013012886;0.9645319581031799;0.0605119988322258;-0.03903999924659729;1.1311839818954468;-2.5506248474121094;5.03125;26.21500015258789
270;0.0;0.0;0.0;0.08393599838018417;-0.07027199864387512;1.1145919561386108;0.0;0.0;0.0
272;0.0;0.0;0.0;0.09174399822950363;-0.058559998869895935;1.1272799968719482;0.0;0.0;0.0
275;0.0;0.0;0.0;0.06831999868154526;-0.0663679987192154;1.1428959369659424;0.0;0.0;0.0
277;-0.05782799795269966;0.07588399946689606;0.994055986404419;0.040991999208927155;-0.05075199902057648;1.1184959411621094;-2.9706249237060547;8.951250076293945;27.125
279;0.0;0.0;0.0;0.05270399898290634;-0.031231999397277832;1.122399926185608;0.0;0.0;0.0
281;0.0;0.0;0.0;0.029279999434947968;-0.04294399917125702;1.1389919519424438;0.0;0.0;0.0
283;0.0;0.0;0.0;0.05270399898290634;-0.07417599856853485;1.1428959369659424;0.0;0.0;0.0
285;-0.08271599560976028;0.07710400223731995;1.0086959600448608;0.02537599951028824;-0.07027199864387512;1.150704026222229;-4.020625114440918;11.541250228881836;27.684999465942383
287;0.0;0.0;0.0;0.0019519999623298645;-0.054655998945236206;1.1516799926757812;0.0;0.0;0.0
289;0.0;0.0;0.0;-0.01756799966096878;-0.05075199902057648;1.1428959369659424;0.0;0.0;0.0
292;0.0;0.0;0.0;-0.013663999736309052;-0.07417599856853485;1.1184959411621094;0.0;0.0;0.0
294;-0.12321999669075012;0.06319599598646164;1.0082080364227295;-0.013663999736309052;-0.08198399841785431;1.1272799968719482;-5.490625381469727;11.261250495910645;27.545000076293945
296;0.0;0.0;0.0;-0.013663999736309052;-0.07027199864387512;1.1350879669189453;0.0;0.0;0.0
298;0.0;0.0;0.0;-0.013663999736309052;-0.08979199826717377;1.122399926185608;0.0;0.0;0.0
300;0.0;0.0;0.0;-0.05270399898290634;-0.07417599856853485;1.1184959411621094;0.0;0.0;0.0
302;-0.15371999144554138;0.05807200074195862;0.9967399835586548;-0.0331839993596077;-0.0936959981918335;1.1145919561386108;-7.030625343322754;8.251250267028809;26.145000457763672
304;0.0;0.0;0.0;-0.037087999284267426;-0.08979199826717377;1.1145919561386108;0.0;0.0;0.0
307;0.0;0.0;0.0;-0.01756799966096878;-0.07417599856853485;1.101904034614563;0.0;0.0;0.0
309;0.0;0.0;0.0;-0.029279999434947968;-0.09759999811649323;1.122399926185608;0.0;0.0;0.0
311;-0.1546960026025772;0.05197199806571007;0.9823439717292786;-0.044895999133586884;-0.062463998794555664;1.1106879711151123;-8.500624656677246;3.981250047683716;24.184999465942383
313;0.0;0.0;0.0;0.01268799975514412;-0.054655998945236206;1.0989760160446167;0.0;0.0;0.0
315;0.0;0.0;0.0;-0.0029279999434947968;-0.09759999811649323;1.0950720310211182;0.0;0.0;0.0
317;0.0;0.0;0.0;0.00878399983048439;-0.07807999849319458;1.0784800052642822;0.0;0.0;0.0
319;-0.12297599762678146;0.047335997223854065;0.9645319581031799;0.01659199967980385;-0.10931199789047241;1.0784800052642822;-8.640625;0.4112500250339508;22.92500114440918
322;0.0;0.0;0.0;0.03611199930310249;-0.10150399804115295;1.066767930984497;0.0;0.0;0.0
323;0.0;0.0;0.0;0.01659199967980385;-0.0936959981918335;1.0706720352172852;0.0;0.0;0.0
326;0.0;0.0;0.0;0.04782399907708168;-0.10150399804115295;1.0706720352172852;0.0;0.0;0.0
328;-0.09223199635744095;0.0378200002014637;0.9469639658927917;0.05172799900174141;-0.10150399804115295;1.0550559759140015;-6.820625305175781;-1.3387500047683716;23.344999313354492
330;0.0;0.0;0.0;0.04782399907708168;-0.12492799758911133;1.0501760244369507;0.0;0.0;0.0
332;0.0;0.0;0.0;0.05563199892640114;-0.10540799796581268;1.0462720394134521;0.0;0.0;0.0
334;0.0;0.0;0.0;0.05563199892640114;-0.09759999811649323;1.0540800094604492;0.0;0.0;0.0
336;-0.07466399669647217;0.02122800052165985;0.9323239922523499;0.07515199482440948;-0.10150399804115295;1.0501760244369507;-3.5306248664855957;-1.4787499904632568;24.46500015258789
339;0.0;0.0;0.0;0.07905599474906921;-0.1327359974384308;1.042367935180664;0.0;0.0;0.0
341;0.0;0.0;0.0;0.032207999378442764;-0.1327359974384308;1.042367935180664;0.0;0.0;0.0
343;0.0;0.0;0.0;0.05953599885106087;-0.1210239976644516;1.0384639501571655;0.0;0.0;0.0
345;-0.06734399497509003;0.0007319999858736992;0.9262239933013916;0.04001599922776222;-0.12883199751377106;1.0540800094604492;0.109375;-1.128749966621399;25.235000610351562
347;0.0;0.0;0.0;0.05563199892640114;-0.13663999736309052;1.0589599609375;0.0;0.0;0.0
349;0.0;0.0;0.0;0.07124799489974976;-0.1600639969110489;1.0501760244369507;0.0;0.0;0.0
351;0.0;0.0;0.0;0.06734399497509003;-0.1327359974384308;1.0784800052642822;0.0;0.0;0.0
353;-0.05636399984359741;-0.009271999821066856;0.9284200072288513;0.07905599474906921;-0.13663999736309052;1.0589599609375;3.4693751335144043;-0.9187500476837158;25.44499969482422
355;0.0;0.0;0.0;0.05953599885106087;-0.12883199751377106;1.0745760202407837;0.0;0.0;0.0
358;0.0;0.0;0.0;0.07124799489974976;-0.13663999736309052;1.0628639459609985;0.0;0.0;0.0
360;0.0;0.0;0.0;0.07905599474906921;-0.10931199789047241;1.0706720352172852;0.0;0.0;0.0
362;-0.04928799718618393;-0.007075999863445759;0.9486719965934753;0.05953599885106087;-0.12883199751377106;1.0872639417648315;6.409374713897705;0.061250001192092896;26.21500015258789
364;0.0;0.0;0.0;0.08686399459838867;-0.10931199789047241;1.1028800010681152;0.0;0.0;0.0
366;0.0;0.0;0.0;0.05953599885106087;-0.11711999773979187;1.0989760160446167;0.0;0.0;0.0
368;0.0;0.0;0.0;0.05953599885106087;-0.09759999811649323;1.139967918395996;0.0;0.0;0.0
370;-0.05953599885106087;0.01195599976927042;0.9928359985351562;0.028303999453783035;-0.12883199751377106;1.1516799926757812;8.369375228881836;1.9512500762939453;26.845001220703125
373;0.0;0.0;0.0;0.04001599922776222;-0.1210239976644516;1.1604639291763306;0.0;0.0;0.0
375;0.0;0.0;0.0;0.020495999604463577;-0.10540799796581268;1.1799839735031128;0.0;0.0;0.0
377;0.0;0.0;0.0;-0.0029279999434947968;-0.10931199789047241;1.1516799926757812;0.0;0.0;0.0
379;-0.0954039990901947;0.030743999406695366;1.0362679958343506;0.00878399983048439;-0.09759999811649323;1.1848639249801636;7.949374675750732;3.421250104904175;26.704999923706055
381;0.0;0.0;0.0;0.00878399983048439;-0.0936959981918335;1.1721760034561157;0.0;0.0;0.0
383;0.0;0.0;0.0;-0.006831999868154526;-0.07417599856853485;1.1516799926757812;0.0;0.0;0.0
385;0.0;0.0;0.0;-0.02635199949145317;-0.09759999811649323;1.1516799926757812;0.0;0.0;0.0
387;-0.12663599848747253;0.046115998178720474;1.055299997329712;0.00878399983048439;-0.08198399841785431;1.2004799842834473;5.779375076293945;2.721250057220459;25.375
390;0.0;0.0;0.0;-0.014639999717473984;-0.10150399804115295;1.1965759992599487;0.0;0.0;0.0
392;0.0;0.0;0.0;0.004879999905824661;-0.0936959981918335;1.1887680292129517;0.0;0.0;0.0
394;0.0;0.0;0.0;-0.006831999868154526;-0.07807999849319458;1.1965759992599487;0.0;0.0;0.0
396;-0.13249199092388153;0.048312000930309296;1.0557879209518433;-0.0302559994161129;-0.0663679987192154;1.1887680292129517;2.2793750762939453;0.3412500023841858;23.625
398;0.0;0.0;0.0;0.009759999811649323;-0.08979199826717377;1.1633919477462769;0.0;0.0;0.0
400;0.0;0.0;0.0;-0.0058559998869895935;-0.062463998794555664;1.1721760034561157;0.0;0.0;0.0
402;0.0;0.0;0.0;-0.0019519999623298645;-0.08198399841785431;1.1516799926757812;0.0;0.0;0.0
404;-0.11370399594306946;0.04782399907708168;1.0401719808578491;0.029279999434947968;-0.0936959981918335;1.1672959327697754;-1.92062509059906;-1.1987500190734863;21.524999618530273
407;0.0;0.0;0.0;0.037087999284267426;-0.0936959981918335;1.1672959327697754;0.0;0.0;0.0
409;0.0;0.0;0.0;0.037087999284267426;-0.07417599856853485;1.1672959327697754;0.0;0.0;0.0
411;0.0;0.0;0.0;0.044895999133586884;-0.10540799796581268;1.1428959369659424;0.0;0.0;0.0
413;-0.08735200017690659;0.043431997299194336;1.026263952255249;0.0331839993596077;-0.10540799796581268;1.1350879669189453;-5.350625038146973;-0.5687500238418579;19.774999618530273
415;0.0;0.0;0.0;0.06734399497509003;-0.062463998794555664;1.1477760076522827;0.0;0.0;0.0
417;0.0;0.0;0.0;0.05953599885106087;-0.10931199789047241;1.132159948348999;0.0;0.0;0.0
419;0.0;0.0;0.0;0.07905599474906921;-0.11321599781513214;1.132159948348999;0.0;0.0;0.0
421;-0.05831599980592728;0.03245199844241142;1.0028399229049683;0.0634399950504303;-0.09759999811649323;1.115567922592163;-6.890625;1.3912500143051147;19.21500015258789
424;0.0;0.0;0.0;0.06734399497509003;-0.11711999773979187;1.1116639375686646;0.0;0.0;0.0
426;0.0;0.0;0.0;0.0907679945230484;-0.1210239976644516;1.1116639375686646;0.0;0.0;0.0
428;0.0;0.0;0.0;0.07905599474906921;-0.13663999736309052;1.1116639375686646;0.0;0.0;0.0
430;-0.042211998254060745;0.016835998743772507;0.9845399856567383;0.07124799489974976;-0.10931199789047241;1.09116792678833;-6.26062536239624;3.981250047683716;19.985000610351562
432;0.0;0.0;0.0;0.044895999133586884;-0.13663999736309052;1.0940959453582764;0.0;0.0;0.0
434;0.0;0.0;0.0;0.09564799815416336;-0.1210239976644516;1.1028800010681152;0.0;0.0;0.0
436;0.0;0.0;0.0;0.06831999868154526;-0.12492799758911133;1.0901919603347778;0.0;0.0;0.0
438;-0.049775999039411545;0.010247999802231789;0.9752680063247681;0.04879999905824661;-0.1210239976644516;1.1067839860916138;-4.160624980926514;6.081250190734863;21.594999313354492
441;0.0;0.0;0.0;0.0605119988322258;-0.1210239976644516;1.0901919603347778;0.0;0.0;0.0
443;0.0;0.0;0.0;0.040991999208927155;-0.1327359974384308;1.1028800010681152;0.0;0.0;0.0
445;0.0;0.0;0.0;0.037087999284267426;-0.1210239976644516;1.1067839860916138;0.0;0.0;0.0
447;-0.07661599665880203;0.00951599981635809;0.9694119691848755;0.02147199958562851;-0.10150399804115295;1.101904034614563;-1.080625057220459;7.201250076293945;22.505001068115234
449;0.0;0.0;0.0;0.05270399898290634;-0.12883199751377106;1.073599934577942;0.0;0.0;0.0
451;0.0;0.0;0.0;0.013663999736309052;-0.11711999773979187;1.0862879753112793;0.0;0.0;0.0
453;0.0;0.0;0.0;0.02537599951028824;-0.12883199751377106;1.097999930381775;0.0;0.0;0.0
455;-0.09613599628210068;0.010003999806940556;0.9662399888038635;0.01756799966096878;-0.1210239976644516;1.097999930381775;1.9993749856948853;6.78125;22.364999771118164
458;0.0;0.0;0.0;-0.0058559998869895935;-0.10540799796581268;1.0940959453582764;0.0;0.0;0.0
460;0.0;0.0;0.0;0.013663999736309052;-0.12492799758911133;1.1184959411621094;0.0;0.0;0.0
462;0.0;0.0;0.0;0.01756799966096878;-0.11711999773979187;1.097999930381775;0.0;0.0;0.0
464;-0.11370399594306946;0.019763998687267303;0.9691680073738098;-0.009759999811649323;-0.1210239976644516;1.1028800010681152;5.009374618530273;4.471250057220459;21.735000610351562
466;0.0;0.0;0.0;-0.014639999717473984;-0.10931199789047241;1.1028800010681152;0.0;0.0;0.0
468;0.0;0.0;0.0;0.0009759999811649323;-0.11711999773979187;1.1194720268249512;0.0;0.0;0.0
470;0.0;0.0;0.0;-0.0302559994161129;-0.07807999849319458;1.1233760118484497;0.0;0.0;0.0
472;-0.11394799500703812;0.03660000115633011;0.9767319560050964;0.004879999905824661;-0.08198399841785431;1.115567922592163;7.529375076293945;1.7412500381469727;21.17500114440918
475;0.0;0.0;0.0;0.004879999905824661;-0.08198399841785431;1.09116792678833;0.0;0.0;0.0
477;0.0;0.0;0.0;0.0009759999811649323;-0.08198399841785431;1.0950720310211182;0.0;0.0;0.0
479;0.0;0.0;0.0;0.0009759999811649323;-0.0663679987192154;1.1360639333724976;0.0;0.0;0.0
481;-0.10613999515771866;0.058803997933864594;0.990884006023407;0.004879999905824661;-0.058559998869895935;1.1272799968719482;8.649374961853027;-0.008750000037252903;20.684999465942383
483;0.0;0.0;0.0;0.0058559998869895935;-0.05075199902057648;1.101904034614563;0.0;0.0;0.0
485;0.0;0.0;0.0;0.009759999811649323;-0.03903999924659729;1.097999930381775;0.0;0.0;0.0
487;0.0;0.0;0.0;0.0331839993596077;-0.031231999397277832;1.1477760076522827;0.0;0.0;0.0
489;-0.10369999706745148;0.07954400032758713;0.998691976070404;0.05270399898290634;-0.03903999924659729;1.146799921989441;8.229374885559082;-0.9887500405311584;20.405000686645508
492;0.0;0.0;0.0;0.02147199958562851;-0.058559998869895935;1.126304030418396;0.0;0.0;0.0
494;0.0;0.0;0.0;0.0058559998869895935;-0.05075199902057648;1.1428959369659424;0.0;0.0;0.0
496;0.0;0.0;0.0;0.0058559998869895935;-0.027327999472618103;1.1350879669189453;0.0;0.0;0.0
498;-0.1105320006608963;0.10028399527072906;1.0055240392684937;0.009759999811649323;-0.031231999397277832;1.1184959411621094;6.199374675750732;-2.1787500381469727;19.985000610351562
500;0.0;0.0;0.0;0.00878399983048439;-0.015615999698638916;1.1555839776992798;0.0;0.0;0.0
502;0.0;0.0;0.0;0.024399999529123306;-0.011711999773979187;1.107759952545166;0.0;0.0;0.0
504;0.0;0.0;0.0;0.01268799975514412;0.007807999849319458;1.1360639333724976;0.0;0.0;0.0
506;-0.10247999429702759;0.12053599953651428;1.0045479536056519;0.004879999905824661;-0.011711999773979187;1.1116639375686646;1.7193750143051147;-3.788749933242798;19.354999542236328
509;0.0;0.0;0.0;0.04391999915242195;0.007807999849319458;1.1477760076522827;0.0;0.0;0.0
511;0.0;0.0;0.0;0.032207999378442764;-0.015615999698638916;1.1233760118484497;0.0;0.0;0.0
513;0.0;0.0;0.0;0.04391999915242195;-0.003903999924659729;1.1555839776992798;0.0;0.0;0.0
515;-0.07978799939155579;0.12151199579238892;1.0050359964370728;0.07515199482440948;-0.007807999849319458;1.1438720226287842;-4.650625228881836;-4.068749904632568;18.58500099182129
517;0.0;0.0;0.0;0.06734399497509003;-0.011711999773979187;1.1233760118484497;0.0;0.0;0.0
519;0.0;0.0;0.0;0.08686399459838867;-0.023423999547958374;1.1272799968719482;0.0;0.0;0.0
521;0.0;0.0;0.0;0.07515199482440948;-0.023423999547958374;1.1194720268249512;0.0;0.0;0.0
523;-0.043431997299194336;0.1041879951953888;1.0001559257507324;0.07124799489974976;-0.0663679987192154;1.115567922592163;-9.8306245803833;-1.8287500143051147;18.30500030517578
526;0.0;0.0;0.0;0.11321599781513214;-0.07807999849319458;1.0950720310211182;0.0;0.0;0.0
528;0.0;0.0;0.0;0.0907679945230484;-0.0663679987192154;1.1272799968719482;0.0;0.0;0.0
530;0.0;0.0;0.0;0.10150399804115295;-0.07417599856853485;1.107759952545166;0.0;0.0;0.0
532;-0.024399999529123306;0.07539600133895874;0.9842959642410278;0.10247999429702759;-0.0663679987192154;1.1272799968719482;-12.700624465942383;3.28125;18.725000381469727
534;0.0;0.0;0.0;0.05953599885106087;-0.07807999849319458;1.1116639375686646;0.0;0.0;0.0
536;0.0;0.0;0.0;0.09857599437236786;-0.07807999849319458;1.0950720310211182;0.0;0.0;0.0
538;0.0;0.0;0.0;0.05953599885106087;-0.07807999849319458;1.1028800010681152;0.0;0.0;0.0
540;-0.037331998348236084;0.05026400089263916;0.9730719923973083;0.07515199482440948;-0.10540799796581268;1.09116792678833;-13.05062484741211;7.481250286102295;19.985000610351562
543;0.0;0.0;0.0;0.07515199482440948;-0.08588799834251404;1.09116792678833;0.0;0.0;0.0
545;0.0;0.0;0.0;0.04782399907708168;-0.08588799834251404;1.107759952545166;0.0;0.0;0.0
547;0.0;0.0;0.0;0.04782399907708168;-0.10150399804115295;1.09116792678833;0.0;0.0;0.0
549;-0.06783200055360794;0.03684400022029877;0.9630680084228516;0.024399999529123306;-0.10931199789047241;1.0784800052642822;-11.30062484741211;9.0912504196167;20.684999465942383
551;0.0;0.0;0.0;0.04782399907708168;-0.10150399804115295;1.0989760160446167;0.0;0.0;0.0
553;0.0;0.0;0.0;0.032207999378442764;-0.11321599781513214;1.0989760160446167;0.0;0.0;0.0
555;0.0;0.0;0.0;0.04001599922776222;-0.0936959981918335;1.107759952545166;0.0;0.0;0.0
557;-0.09174399822950363;0.03171999752521515;0.9635559916496277;0.01268799975514412;-0.10931199789047241;1.0989760160446167;-8.570624351501465;7.271250247955322;20.545000076293945
560;0.0;0.0;0.0;0.01268799975514412;-0.11711999773979187;1.115567922592163;0.0;0.0;0.0
562;0.0;0.0;0.0;0.05172799900174141;-0.08979199826717377;1.0989760160446167;0.0;0.0;0.0
564;0.0;0.0;0.0;0.01659199967980385;-0.09759999811649323;1.1028800010681152;0.0;0.0;0.0
566;-0.09027999639511108;0.03245199844241142;0.9750239849090576;0.024399999529123306;-0.10150399804115295;1.1116639375686646;-5.700625419616699;4.051249980926514;20.264999389648438
568;0.0;0.0;0.0;0.032207999378442764;-0.08198399841785431;1.1272799968719482;0.0;0.0;0.0
570;0.0;0.0;0.0;0.004879999905824661;-0.08198399841785431;1.115567922592163;0.0;0.0;0.0
572;0.0;0.0;0.0;0.01268799975514412;-0.0936959981918335;1.1360639333724976;0.0;0.0;0.0
574;-0.09418399631977081;0.04684799909591675;0.9869799613952637;0.01659199967980385;-0.062463998794555664;1.1233760118484497;-3.880625009536743;3.0712499618530273;19.21500015258789
577;0.0;0.0;0.0;0.04001599922776222;-0.054655998945236206;1.1233760118484497;0.0;0.0;0.0
579;0.0;0.0;0.0;0.01659199967980385;-0.05075199902057648;1.1194720268249512;0.0;0.0;0.0
581;0.0;0.0;0.0;0.032207999378442764;-0.07027199864387512;1.115567922592163;0.0;0.0;0.0
583;-0.08979199826717377;0.06563600152730942;0.990884006023407;0.04782399907708168;-0.07807999849319458;1.1360639333724976;-3.880625009536743;1.4612500667572021;18.514999389648438
585;0.0;0.0;0.0;0.05953599885106087;-0.019519999623298645;1.1477760076522827;0.0;0.0;0.0
587;0.0;0.0;0.0;0.020495999604463577;-0.062463998794555664;1.1194720268249512;0.0;0.0;0.0
589;0.0;0.0;0.0;0.04391999915242195;-0.0663679987192154;1.09116792678833;0.0;0.0;0.0
591;-0.07466399669647217;0.07710400223731995;0.9886879920959473;0.04391999915242195;-0.027327999472618103;1.1272799968719482;-5.210625171661377;0.9012500047683716;18.024999618530273
594;0.0;0.0;0.0;0.03611199930310249;-0.05075199902057648;1.1116639375686646;0.0;0.0;0.0
596;0.0;0.0;0.0;0.04001599922776222;-0.031231999397277832;1.1272799968719482;0.0;0.0;0.0
598;0.0;0.0;0.0;0.05563199892640114;-0.05075199902057648;1.1116639375686646;0.0;0.0;0.0
600;-0.06441599875688553;0.08735200017690659;0.9886879920959473;0.04782399907708168;-0.05075199902057648;1.1233760118484497;-6.610625267028809;2.861250162124634;18.165000915527344
602;0.0;0.0;0.0;0.0634399950504303;-0.062463998794555664;1.1233760118484497;0.0;0.0;0.0
604;0.0;0.0;0.0;0.04782399907708168;-0.03903999924659729;1.132159948348999;0.0;0.0;0.0
606;0.0;0.0;0.0;0.08295999467372894;-0.07027199864387512;1.1233760118484497;0.0;0.0;0.0
608;-0.06197600066661835;0.07881199568510056;0.9901520013809204;0.05563199892640114;-0.062463998794555664;1.1116639375686646;-6.470625400543213;4.331250190734863;19.985000610351562
611;0.0;0.0;0.0;0.032207999378442764;-0.054655998945236206;1.107759952545166;0.0;0.0;0.0
613;0.0;0.0;0.0;0.04001599922776222;-0.031231999397277832;1.139967918395996;0.0;0.0;0.0
615;0.0;0.0;0.0;0.04001599922776222;-0.07807999849319458;1.1116639375686646;0.0;0.0;0.0
617;-0.07978799939155579;0.06954000145196915;0.994055986404419;0.04391999915242195;-0.0663679987192154;1.1116639375686646;-4.930624961853027;3.6312501430511475;22.78499984741211
619;0.0;0.0;0.0;0.032207999378442764;-0.10931199789047241;1.0950720310211182;0.0;0.0;0.0
621;0.0;0.0;0.0;0.01659199967980385;-0.04294399917125702;1.132159948348999;0.0;0.0;0.0
623;0.0;0.0;0.0;0.0009759999811649323;-0.07807999849319458;1.0989760160446167;0.0;0.0;0.0
625;-0.09808799624443054;0.04904399812221527;0.9862479567527771;0.0009759999811649323;-0.08979199826717377;1.1233760118484497;-3.6706249713897705;2.581249952316284;24.045000076293945
628;0.0;0.0;0.0;-0.010735999792814255;-0.10150399804115295;1.1233760118484497;0.0;0.0;0.0
630;0.0;0.0;0.0;0.01268799975514412;-0.08588799834251404;1.1028800010681152;0.0;0.0;0.0
632;0.0;0.0;0.0;0.04391999915242195;-0.1210239976644516;1.107759952545166;0.0;0.0;0.0
634;-0.10199199616909027;0.03562399744987488;0.9759999513626099;0.04001599922776222;-0.0936959981918335;1.0989760160446167;-2.9706249237060547;1.6712501049041748;23.83500099182129
636;0.0;0.0;0.0;0.01268799975514412;-0.08198399841785431;1.1194720268249512;0.0;0.0;0.0
638;0.0;0.0;0.0;0.01659199967980385;-0.12492799758911133;1.0706720352172852;0.0;0.0;0.0
640;0.0;0.0;0.0;0.032207999378442764;-0.11321599781513214;1.1028800010681152;0.0;0.0;0.0
642;-0.10028399527072906;0.029767999425530434;0.9652639627456665;0.004879999905824661;-0.0936959981918335;1.0950720310211182;-3.1106250286102295;0.7612499594688416;22.71500015258789
645;0.0;0.0;0.0;0.03611199930310249;-0.11711999773979187;1.1116639375686646;0.0;0.0;0.0
647;0.0;0.0;0.0;0.028303999453783035;-0.10150399804115295;1.0950720310211182;0.0;0.0;0.0
649;0.0;0.0;0.0;0.024399999529123306;-0.11321599781513214;1.09116792678833;0.0;0.0;0.0
651;-0.09955199807882309;0.04001599922776222;0.9672159552574158;0.032207999378442764;-0.0936959981918335;1.0989760160446167;-3.950624942779541;0.7612499594688416;20.545000076293945
653;0.0;0.0;0.0;0.01659199967980385;-0.08588799834251404;1.115567922592163;0.0;0.0;0.0
655;0.0;0.0;0.0;0.024399999529123306;-0.07807999849319458;1.1116639375686646;0.0;0.0;0.0
657;0.0;0.0;0.0;0.05953599885106087;-0.07417599856853485;1.1028800010681152;0.0;0.0;0.0
659;-0.08466799557209015;0.05416800081729889;0.97843998670578;0.07027199864387512;-0.0663679987192154;1.107759952545166;-5.350625038146973;1.2512500286102295;18.30500030517578
662;0.0;0.0;0.0;0.0634399950504303;-0.0936959981918335;1.1028800010681152;0.0;0.0;0.0
664;0.0;0.0;0.0;0.06734399497509003;-0.10150399804115295;1.115567922592163;0.0;0.0;0.0
666;0.0;0.0;0.0;0.06734399497509003;-0.04684799909591675;1.1194720268249512;0.0;0.0;0.0
668;-0.05953599885106087;0.05514399707317352;0.9882000088691711;0.05563199892640114;-0.07417599856853485;1.0950720310211182;-6.190625190734863;1.4612500667572021;18.165000915527344
670;0.0;0.0;0.0;0.04782399907708168;-0.08979199826717377;1.115567922592163;0.0;0.0;0.0
672;0.0;0.0;0.0;0.07515199482440948;-0.0663679987192154;1.1028800010681152;0.0;0.0;0.0
674;0.0;0.0;0.0;0.07905599474906921;-0.08979199826717377;1.1116639375686646;0.0;0.0;0.0
676;-0.05075199902057648;0.047335997223854065;0.9928359985351562;0.05563199892640114;-0.08979199826717377;1.1194720268249512;-6.120625019073486;2.091249942779541;19.42500114440918
679;0.0;0.0;0.0;0.04391999915242195;-0.07807999849319458;1.0989760160446167;0.0;0.0;0.0
681;0.0;0.0;0.0;0.0634399950504303;-0.07417599856853485;1.1194720268249512;0.0;0.0;0.0
683;0.0;0.0;0.0;0.04391999915242195;-0.0936959981918335;1.1272799968719482;0.0;0.0;0.0
685;-0.062463998794555664;0.03635599836707115;0.9901520013809204;0.04001599922776222;-0.11711999773979187;1.1194720268249512;-5.350625038146973;3.771250009536743;20.33500099182129
687;0.0;0.0;0.0;0.037087999284267426;-0.10540799796581268;1.1067839860916138;0.0;0.0;0.0
689;0.0;0.0;0.0;0.013663999736309052;-0.11321599781513214;1.1184959411621094;0.0;0.0;0.0
691;0.0;0.0;0.0;0.0331839993596077;-0.10931199789047241;1.1145919561386108;0.0;0.0;0.0
694;-0.09052399545907974;0.033427998423576355;0.9877119660377502;-0.013663999736309052;-0.07417599856853485;1.1311839818954468;-4.650625228881836;4.331250190734863;20.125
696;0.0;0.0;0.0;0.0058559998869895935;-0.07807999849319458;1.126304030418396;0.0;0.0;0.0
698;0.0;0.0;0.0;0.0058559998869895935;-0.08198399841785431;1.1272799968719482;0.0;0.0;0.0
700;0.0;0.0;0.0;0.009759999811649323;-0.08588799834251404;1.122399926185608;0.0;0.0;0.0
702;-0.10955599695444107;0.04416399821639061;0.998691976070404;0.009759999811649323;-0.062463998794555664;1.1311839818954468;-4.300625324249268;2.721250057220459;19.28499984741211
704;0.0;0.0;0.0;-0.006831999868154526;-0.08588799834251404;1.139967918395996;0.0;0.0;0.0
706;0.0;0.0;0.0;0.024399999529123306;-0.08588799834251404;1.1516799926757812;0.0;0.0;0.0
708;0.0;0.0;0.0;0.020495999604463577;-0.07027199864387512;1.1272799968719482;0.0;0.0;0.0
711;-0.11467999964952469;0.056120000779628754;1.0099159479141235;-0.014639999717473984;-0.08198399841785431;1.1272799968719482;-4.090625286102295;-0.42875000834465027;19.005001068115234
713;0.0;0.0;0.0;0.0009759999811649323;-0.07027199864387512;1.1477760076522827;0.0;0.0;0.0
715;0.0;0.0;0.0;0.032207999378442764;-0.08198399841785431;1.156559944152832;0.0;0.0;0.0
717;0.0;0.0;0.0;0.020495999604463577;-0.0663679987192154;1.1682720184326172;0.0;0.0;0.0
719;-0.10321199893951416;0.0634399950504303;1.0196759700775146;0.03611199930310249;-0.08588799834251404;1.1360639333724976;-4.230625152587891;-2.528749942779541;19.075000762939453
721;0.0;0.0;0.0;0.020495999604463577;-0.0663679987192154;1.1516799926757812;0.0;0.0;0.0
723;0.0;0.0;0.0;0.032207999378442764;-0.058559998869895935;1.1604639291763306;0.0;0.0;0.0
725;0.0;0.0;0.0;0.04782399907708168;-0.07027199864387512;1.1516799926757812;0.0;0.0;0.0
727;-0.09711199998855591;0.06954000145196915;1.0291919708251953;0.020495999604463577;-0.03903999924659729;1.1438720226287842;-5.280625343322754;-3.088749885559082;19.704999923706055
730;0.0;0.0;0.0;0.01659199967980385;-0.07417599856853485;1.1477760076522827;0.0;0.0;0.0
732;0.0;0.0;0.0;0.03611199930310249;-0.058559998869895935;1.1555839776992798;0.0;0.0;0.0
734;0.0;0.0;0.0;0.01659199967980385;-0.054655998945236206;1.1516799926757812;0.0;0.0;0.0
736;-0.09491600096225739;0.07027199864387512;1.0245559215545654;0.04001599922776222;-0.03513599932193756;1.1477760076522827;-7.380625247955322;-2.1787500381469727;20.05500030517578
738;0.0;0.0;0.0;0.05563199892640114;-0.07027199864387512;1.1477760076522827;0.0;0.0;0.0
740;0.0;0.0;0.0;0.03611199930310249;-0.04684799909591675;1.132159948348999;0.0;0.0;0.0
742;0.0;0.0;0.0;0.04001599922776222;-0.07417599856853485;1.1311839818954468;0.0;0.0;0.0
745;-0.08295999467372894;0.07051599770784378;1.0077199935913086;0.05563199892640114;-0.058559998869895935;1.1272799968719482;-9.48062515258789;0.061250001192092896;19.635000228881836
747;0.0;0.0;0.0;0.032207999378442764;-0.08198399841785431;1.1438720226287842;0.0;0.0;0.0
749;0.0;0.0;0.0;0.05563199892640114;-0.07417599856853485;1.1233760118484497;0.0;0.0;0.0
751;0.0;0.0;0.0;0.028303999453783035;-0.054655998945236206;1.115567922592163;0.0;0.0;0.0
753;-0.08198399841785431;0.06173199787735939;0.9967399835586548;0.024399999529123306;-0.07417599856853485;1.115567922592163;-11.790624618530273;1.1812500953674316;19.704999923706055
755;0.0;0.0;0.0;0.028303999453783035;-0.09759999811649323;1.1067839860916138;0.0;0.0;0.0
757;0.0;0.0;0.0;0.05563199892640114;-0.09759999811649323;1.1116639375686646;0.0;0.0;0.0
759;0.0;0.0;0.0;0.03611199930310249;-0.10931199789047241;1.1028800010681152;0.0;0.0;0.0
762;-0.0785679966211319;0.03537999838590622;0.9777079820632935;0.07124799489974976;-0.10540799796581268;1.1028800010681152;-13.3306245803833;0.13124999403953552;19.844999313354492
764;0.0;0.0;0.0;0.05563199892640114;-0.11321599781513214;1.1028800010681152;0.0;0.0;0.0
766;0.0;0.0;0.0;0.05563199892640114;-0.11321599781513214;1.0989760160446167;0.0;0.0;0.0
768;0.0;0.0;0.0;0.0634399950504303;-0.10931199789047241;1.115567922592163;0.0;0.0;0.0
770;-0.06490399688482285;0.019276000559329987;0.9767319560050964;0.05563199892640114;-0.10931199789047241;1.1116639375686646;-12.770625114440918;2.021250009536743;19.075000762939453
772;0.0;0.0;0.0;0.05172799900174141;-0.12492799758911133;1.0989760160446167;0.0;0.0;0.0
774;0.0;0.0;0.0;0.05953599885106087;-0.11711999773979187;1.0872639417648315;0.0;0.0;0.0
776;0.0;0.0;0.0;0.04001599922776222;-0.10540799796581268;1.1038559675216675;0.0;0.0;0.0
779;-0.06734399497509003;0.008295999839901924;0.9708759784698486;0.05953599885106087;-0.14054399728775024;1.1028800010681152;-10.530624389648438;4.191249847412109;18.725000381469727
781;0.0;0.0;0.0;0.0009759999811649323;-0.12492799758911133;1.0745760202407837;0.0;0.0;0.0
783;0.0;0.0;0.0;0.04782399907708168;-0.15225599706172943;1.107759952545166;0.0;0.0;0.0
785;0.0;0.0;0.0;0.05563199892640114;-0.0936959981918335;1.115567922592163;0.0;0.0;0.0
787;-0.08198399841785431;0.004147999919950962;0.9689239859580994;0.04391999915242195;-0.12492799758911133;1.083359956741333;-7.520625114440918;3.4912500381469727;18.934999465942383
789;0.0;0.0;0.0;0.032207999378442764;-0.14054399728775024;1.0989760160446167;0.0;0.0;0.0
791;0.0;0.0;0.0;0.020495999604463577;-0.1327359974384308;1.0794559717178345;0.0;0.0;0.0
793;0.0;0.0;0.0;0.06734399497509003;-0.1210239976644516;1.0950720310211182;0.0;0.0;0.0
796;-0.08540000021457672;0.004391999915242195;0.9662399888038635;0.03611199930310249;-0.1483519971370697;1.0784800052642822;-4.300625324249268;1.1112500429153442;19.075000762939453
798;0.0;0.0;0.0;0.03611199930310249;-0.14444799721240997;1.1028800010681152;0.0;0.0;0.0
800;0.0;0.0;0.0;0.01659199967980385;-0.14444799721240997;1.0950720310211182;0.0;0.0;0.0
802;0.0;0.0;0.0;0.03611199930310249;-0.11711999773979187;1.1028800010681152;0.0;0.0;0.0
804;-0.09320800006389618;0.008051999844610691;0.9677039980888367;0.01659199967980385;-0.1483519971370697;1.0989760160446167;-1.080625057220459;-1.7587499618530273;19.005001068115234
806;0.0;0.0;0.0;0.020495999604463577;-0.11711999773979187;1.0950720310211182;0.0;0.0;0.0
808;0.0;0.0;0.0;0.01659199967980385;-0.12492799758911133;1.0950720310211182;0.0;0.0;0.0
810;0.0;0.0;0.0;0.028303999453783035;-0.14444799721240997;1.107759952545166;0.0;0.0;0.0
813;-0.09467199444770813;0.010247999802231789;0.9684360027313232;0.028303999453783035;-0.14444799721240997;1.09116792678833;1.509374976158142;-4.978749752044678;18.514999389648438
815;0.0;0.0;0.0;0.020495999604463577;-0.12492799758911133;1.1028800010681152;0.0;0.0;0.0
817;0.0;0.0;0.0;0.028303999453783035;-0.10150399804115295;1.1194720268249512;0.0;0.0;0.0
819;0.0;0.0;0.0;0.04782399907708168;-0.11711999773979187;1.1311839818954468;0.0;0.0;0.0
821;-0.08540000021457672;0.023423999547958374;0.985759973526001;0.05953599885106087;-0.11321599781513214;1.1194720268249512;2.349375009536743;-7.918749809265137;17.885000228881836
823;0.0;0.0;0.0;0.06734399497509003;-0.08198399841785431;1.139967918395996;0.0;0.0;0.0
825;0.0;0.0;0.0;0.05172799900174141;-0.09759999811649323;1.139967918395996;0.0;0.0;0.0
827;0.0;0.0;0.0;0.04782399907708168;-0.09759999811649323;1.139967918395996;0.0;0.0;0.0
830;-0.07197999954223633;0.03806399926543236;1.0040600299835205;0.06734399497509003;-0.08588799834251404;1.1233760118484497;1.509374976158142;-8.12874984741211;16.764999389648438
832;0.0;0.0;0.0;0.04391999915242195;-0.08198399841785431;1.1477760076522827;0.0;0.0;0.0
834;0.0;0.0;0.0;0.03611199930310249;-0.10150399804115295;1.139967918395996;0.0;0.0;0.0
836;0.0;0.0;0.0;0.04782399907708168;-0.0936959981918335;1.115567922592163;0.0;0.0;0.0
838;-0.06709999591112137;0.04196799919009209;0.9977160096168518;0.05172799900174141;-0.0663679987192154;1.1233760118484497;-0.6606249809265137;-5.608749866485596;15.015000343322754
840;0.0;0.0;0.0;0.05172799900174141;-0.08198399841785431;1.107759952545166;0.0;0.0;0.0
842;0.0;0.0;0.0;0.06734399497509003;-0.07417599856853485;1.1194720268249512;0.0;0.0;0.0
844;0.0;0.0;0.0;0.05953599885106087;-0.08979199826717377;1.107759952545166;0.0;0.0;0.0
847;-0.06465999782085419;0.050995998084545135;0.9838079810142517;0.05172799900174141;-0.0936959981918335;1.1028800010681152;-3.950624942779541;-2.7387499809265137;13.265000343322754
849;0.0;0.0;0.0;0.0634399950504303;-0.07807999849319458;1.0950720310211182;0.0;0.0;0.0
851;0.0;0.0;0.0;0.05953599885106087;-0.07807999849319458;1.0784800052642822;0.0;0.0;0.0
853;0.0;0.0;0.0;0.06734399497509003;-0.08198399841785431;1.107759952545166;0.0;0.0;0.0
855;-0.0651479959487915;0.058803997933864594;0.9677039980888367;0.07124799489974976;-0.07807999849319458;1.083359956741333;-7.450625419616699;-1.7587499618530273;12.28499984741211
857;0.0;0.0;0.0;0.04782399907708168;-0.07807999849319458;1.0872639417648315;0.0;0.0;0.0
859;0.0;0.0;0.0;0.09467199444770813;-0.08198399841785431;1.0872639417648315;0.0;0.0;0.0
861;0.0;0.0;0.0;0.06734399497509003;-0.07807999849319458;1.0745760202407837;0.0;0.0;0.0
864;-0.052947998046875;0.053679998964071274;0.9598959684371948;0.05563199892640114;-0.0936959981918335;1.0872639417648315;-10.180624961853027;-0.8487500548362732;11.654999732971191
866;0.0;0.0;0.0;0.07905599474906921;-0.07807999849319458;1.107759952545166;0.0;0.0;0.0
868;0.0;0.0;0.0;0.07515199482440948;-0.08198399841785431;1.0989760160446167;0.0;0.0;0.0
870;0.0;0.0;0.0;0.0634399950504303;-0.08588799834251404;1.083359956741333;0.0;0.0;0.0
872;-0.047091998159885406;0.05441199988126755;0.9659959673881531;0.05953599885106087;-0.08198399841785431;1.0745760202407837;-11.860624313354492;0.27125000953674316;12.28499984741211
874;0.0;0.0;0.0;0.07515199482440948;-0.08588799834251404;1.1116639375686646;0.0;0.0;0.0
876;0.0;0.0;0.0;0.08295999467372894;-0.09759999811649323;1.0989760160446167;0.0;0.0;0.0
878;0.0;0.0;0.0;0.05953599885106087;-0.11321599781513214;1.0950720310211182;0.0;0.0;0.0
881;-0.04196799919009209;0.03757599741220474;0.9689239859580994;0.08295999467372894;-0.09759999811649323;1.0989760160446167;-12.560625076293945;1.6712501049041748;13.265000343322754
883;0.0;0.0;0.0;0.08295999467372894;-0.09759999811649323;1.1194720268249512;0.0;0.0;0.0
885;0.0;0.0;0.0;0.0634399950504303;-0.10540799796581268;1.1194720268249512;0.0;0.0;0.0
887;0.0;0.0;0.0;0.0634399950504303;-0.10931199789047241;1.1116639375686646;0.0;0.0;0.0
889;-0.05807200074195862;0.016835998743772507;0.9781959652900696;0.04782399907708168;-0.11711999773979187;1.09116792678833;-11.720624923706055;3.351250171661377;14.875
892;0.0;0.0;0.0;0.05563199892640114;-0.14444799721240997;1.1194720268249512;0.0;0.0;0.0
893;0.0;0.0;0.0;0.032207999378442764;-0.1327359974384308;1.0950720310211182;0.0;0.0;0.0
895;0.0;0.0;0.0;0.020495999604463577;-0.1327359974384308;1.115567922592163;0.0;0.0;0.0
898;-0.08686399459838867;0.003903999924659729;0.982587993144989;0.032207999378442764;-0.14054399728775024;1.1233760118484497;-9.200624465942383;4.611249923706055;15.855000495910645
900;0.0;0.0;0.0;0.020495999604463577;-0.13663999736309052;1.1360639333724976;0.0;0.0;0.0
902;0.0;0.0;0.0;-0.0029279999434947968;-0.14444799721240997;1.1116639375686646;0.0;0.0;0.0
904;0.0;0.0;0.0;0.004879999905824661;-0.14054399728775024;1.1116639375686646;0.0;0.0;0.0
906;-0.11858399957418442;-0.008539999835193157;0.9821000099182129;0.004879999905824661;-0.1483519971370697;1.1028800010681152;-6.190625190734863;4.541250228881836;15.015000343322754
908;0.0;0.0;0.0;-0.018543999642133713;-0.14054399728775024;1.09116792678833;0.0;0.0;0.0
910;0.0;0.0;0.0;-0.0029279999434947968;-0.1756799966096878;1.115567922592163;0.0;0.0;0.0
912;0.0;0.0;0.0;-0.006831999868154526;-0.14054399728775024;1.1116639375686646;0.0;0.0;0.0
915;-0.12761199474334717;-0.016835998743772507;0.974291980266571;-0.022447999566793442;-0.16787199676036835;1.0950720310211182;-3.6006250381469727;1.6012500524520874;13.475000381469727
917;0.0;0.0;0.0;0.0009759999811649323;-0.15615999698638916;1.09116792678833;0.0;0.0;0.0
919;0.0;0.0;0.0;-0.02635199949145317;-0.12883199751377106;1.1116639375686646;0.0;0.0;0.0
921;0.0;0.0;0.0;0.00878399983048439;-0.1600639969110489;1.1116639375686646;0.0;0.0;0.0
923;-0.11858399957418442;-0.020983999595046043;0.9779520034790039;0.03611199930310249;-0.14444799721240997;1.1272799968719482;-1.8506250381469727;-2.458750009536743;12.005000114440918
925;0.0;0.0;0.0;-0.006831999868154526;-0.1483519971370697;1.1194720268249512;0.0;0.0;0.0
927;0.0;0.0;0.0;0.004879999905824661;-0.18348799645900726;1.139967918395996;0.0;0.0;0.0
930;0.0;0.0;0.0;0.00878399983048439;-0.15615999698638916;1.1194720268249512;0.0;0.0;0.0
932;-0.11663199961185455;-0.024887999519705772;0.9974719882011414;-0.014639999717473984;-0.17177599668502808;1.1477760076522827;-0.7306249737739563;-4.908750057220459;10.395000457763672
934;0.0;0.0;0.0;-0.02635199949145317;-0.1483519971370697;1.1516799926757812;0.0;0.0;0.0
936;0.0;0.0;0.0;0.00878399983048439;-0.14444799721240997;1.1311839818954468;0.0;0.0;0.0
938;0.0;0.0;0.0;-0.03415999934077263;-0.14444799721240997;1.1477760076522827;0.0;0.0;0.0
940;-0.1373720020055771;-0.024399999529123306;1.0113799571990967;-0.03415999934077263;-0.15615999698638916;1.1233760118484497;-0.4506250023841858;-7.008749961853027;8.225000381469727
942;0.0;0.0;0.0;-0.04196799919009209;-0.17177599668502808;1.1516799926757812;0.0;0.0;0.0
944;0.0;0.0;0.0;-0.04196799919009209;-0.14444799721240997;1.1555839776992798;0.0;0.0;0.0
947;0.0;0.0;0.0;-0.022447999566793442;-0.11711999773979187;1.1311839818954468;0.0;0.0;0.0
949;-0.14518000185489655;-0.019519999623298645;1.016260027885437;-0.0302559994161129;-0.15225599706172943;1.1477760076522827;-2.340625047683716;-9.80875015258789;4.865000247955322
951;0.0;0.0;0.0;0.00878399983048439;-0.1483519971370697;1.1272799968719482;0.0;0.0;0.0
953;0.0;0.0;0.0;-0.0029279999434947968;-0.14444799721240997;1.1233760118484497;0.0;0.0;0.0
955;0.0;0.0;0.0;0.00878399983048439;-0.1600639969110489;1.1233760118484497;0.0;0.0;0.0
957;-0.12248799949884415;-0.02391199953854084;1.0011320114135742;-0.018543999642133713;-0.17958399653434753;1.1116639375686646;-6.050625324249268;-12.538749694824219;1.4350000619888306
959;0.0;0.0;0.0;0.05172799900174141;-0.1756799966096878;1.09116792678833;0.0;0.0;0.0
961;0.0;0.0;0.0;0.032207999378442764;-0.1756799966096878;1.1028800010681152;0.0;0.0;0.0
964;0.0;0.0;0.0;0.05563199892640114;-0.16396799683570862;1.1028800010681152;0.0;0.0;0.0
966;-0.09101200103759766;-0.04123599827289581;0.9757559895515442;0.06734399497509003;-0.19129599630832672;1.0950720310211182;-9.200624465942383;-13.37874984741211;-2.2750000953674316
968;0.0;0.0;0.0;0.07124799489974976;-0.187391996383667;1.0794559717178345;0.0;0.0;0.0
970;0.0;0.0;0.0;0.07905599474906921;-0.19519999623298645;1.083359956741333;0.0;0.0;0.0
972;0.0;0.0;0.0;0.10931199789047241;-0.16787199676036835;1.0501760244369507;0.0;0.0;0.0
974;-0.03855200111865997;-0.048555999994277954;0.9479399919509888;0.09759999811649323;-0.19129599630832672;1.0628639459609985;-10.670624732971191;-12.188750267028809;-4.654999732971191
976;0.0;0.0;0.0;0.10247999429702759;-0.19910399615764618;1.0628639459609985;0.0;0.0;0.0
978;0.0;0.0;0.0;0.09467199444770813;-0.187391996383667;1.0628639459609985;0.0;0.0;0.0
981;0.0;0.0;0.0;0.10540799796581268;-0.2147199958562851;1.066767930984497;0.0;0.0;0.0
983;-0.015371999703347683;-0.056120000779628754;0.9298839569091797;0.09759999811649323;-0.17958399653434753;1.0462720394134521;-10.180624961853027;-9.318750381469727;-5.144999980926514
985;0.0;0.0;0.0;0.11711999773979187;-0.1756799966096878;1.0501760244369507;0.0;0.0;0.0
987;0.0;0.0;0.0;0.09857599437236786;-0.21862399578094482;1.0628639459609985;0.0;0.0;0.0
989;0.0;0.0;0.0;0.0907679945230484;-0.2030079960823059;1.0784800052642822;0.0;0.0;0.0
991;-0.01756799966096878;-0.06075599789619446;0.9323239922523499;0.10540799796581268;-0.2030079960823059;1.0706720352172852;-8.220624923706055;-6.098750114440918;-5.494999885559082
993;0.0;0.0;0.0;0.07515199482440948;-0.19910399615764618;1.066767930984497;0.0;0.0;0.0
995;0.0;0.0;0.0;0.10150399804115295;-0.187391996383667;1.0589599609375;0.0;0.0;0.0
998;0.0;0.0;0.0;0.10540799796581268;-0.17958399653434753;1.09116792678833;0.0;0.0;0.0
1000;-0.014883999712765217;-0.049531999975442886;0.9430599808692932;0.10638399422168732;-0.1756799966096878;1.0745760202407837;-6.050625324249268;-5.118750095367432;-5.565000057220459
1002;0.0;0.0;0.0;0.09759999811649323;-0.17958399653434753;1.0628639459609985;0.0;0.0;0.0
1004;0.0;0.0;0.0;0.1327359974384308;-0.18348799645900726;1.0872639417648315;0.0;0.0;0.0
1006;0.0;0.0;0.0;0.1210239976644516;-0.17177599668502808;1.083359956741333;0.0;0.0;0.0
1008;0.010735999792814255;-0.03952799737453461;0.9542839527130127;0.1327359974384308;-0.1600639969110489;1.0989760160446167;-3.390625;-5.46875;-4.304999828338623
1010;0.0;0.0;0.0;0.1600639969110489;-0.16787199676036835;1.0950720310211182;0.0;0.0;0.0
1012;0.0;0.0;0.0;0.15615999698638916;-0.15615999698638916;1.0872639417648315;0.0;0.0;0.0
1015;0.0;0.0;0.0;0.17177599668502808;-0.16787199676036835;1.0950720310211182;0.0;0.0;0.0
1017;0.03171999752521515;-0.026839999482035637;0.966484010219574;0.1600639969110489;-0.1483519971370697;1.1028800010681152;-0.1706250011920929;-3.088749885559082;-2.2750000953674316
1019;0.0;0.0;0.0;0.16396799683570862;-0.1483519971370697;1.1028800010681152;0.0;0.0;0.0
1021;0.0;0.0;0.0;0.14444799721240997;-0.1483519971370697;1.1194720268249512;0.0;0.0;0.0
1023;0.0;0.0;0.0;0.16396799683570862;-0.14054399728775024;1.1194720268249512;0.0;0.0;0.0
1025;0.024156000465154648;-0.00878399983048439;0.9862479567527771;0.11711999773979187;-0.12492799758911133;1.1028800010681152;1.7193750143051147;0.48125001788139343;-0.17499999701976776
1027;0.0;0.0;0.0;0.1327359974384308;-0.12492799758911133;1.1233760118484497;0.0;0.0;0.0
1029;0.0;0.0;0.0;0.1210239976644516;-0.0936959981918335;1.1360639333724976;0.0;0.0;0.0
1032;0.0;0.0;0.0;0.1210239976644516;-0.1210239976644516;1.139967918395996;0.0;0.0;0.0
1034;0.004147999919950962;0.008295999839901924;1.0072319507598877;0.10931199789047241;-0.1210239976644516;1.1516799926757812;1.57937490940094;2.791249990463257;1.6450001001358032
1036;0.0;0.0;0.0;0.10638399422168732;-0.1210239976644516;1.1555839776992798;0.0;0.0;0.0
1038;0.0;0.0;0.0;0.09467199444770813;-0.09759999811649323;1.1760799884796143;0.0;0.0;0.0
1040;0.0;0.0;0.0;0.09467199444770813;-0.12883199751377106;1.1926720142364502;0.0;0.0;0.0
1042;-0.029767999425530434;0.020983999595046043;1.0467599630355835;0.07124799489974976;-0.11321599781513214;1.1926720142364502;-0.030625000596046448;4.331250190734863;3.184999942779541
1044;0.0;0.0;0.0;0.03611199930310249;-0.11711999773979187;1.1799839735031128;0.0;0.0;0.0
1046;0.0;0.0;0.0;0.04391999915242195;-0.0936959981918335;1.1887680292129517;0.0;0.0;0.0
1049;0.0;0.0;0.0;0.03611199930310249;-0.10540799796581268;1.1887680292129517;0.0;0.0;0.0
1051;-0.07588399946689606;0.024399999529123306;1.0648159980773926;0.024399999529123306;-0.10931199789047241;1.1799839735031128;-2.270624876022339;5.381249904632568;3.184999942779541
1053;0.0;0.0;0.0;0.00878399983048439;-0.10540799796581268;1.1965759992599487;0.0;0.0;0.0
1055;0.0;0.0;0.0;0.01659199967980385;-0.08979199826717377;1.2043839693069458;0.0;0.0;0.0
1057;0.0;0.0;0.0;-0.010735999792814255;-0.09759999811649323;1.1926720142364502;0.0;0.0;0.0
1059;-0.1076039969921112;0.02659599855542183;1.0584720373153687;-0.006831999868154526;-0.08979199826717377;1.1799839735031128;-4.51062536239624;4.401249885559082;3.115000009536743
1061;0.0;0.0;0.0;-0.014639999717473984;-0.08979199826717377;1.1760799884796143;0.0;0.0;0.0
1063;0.0;0.0;0.0;-0.010735999792814255;-0.07807999849319458;1.1799839735031128;0.0;0.0;0.0
1066;0.0;0.0;0.0;-0.010735999792814255;-0.10540799796581268;1.1848639249801636;0.0;0.0;0.0
1068;-0.12809999287128448;0.03952799737453461;1.046515941619873;-0.0029279999434947968;-0.07807999849319458;1.1848639249801636;-6.6806254386901855;1.881250023841858;3.115000009536743
1070;0.0;0.0;0.0;-0.010735999792814255;-0.07417599856853485;1.1516799926757812;0.0;0.0;0.0
1072;0.0;0.0;0.0;-0.014639999717473984;-0.07417599856853485;1.1516799926757812;0.0;0.0;0.0
1074;0.0;0.0;0.0;-0.006831999868154526;-0.08588799834251404;1.1604639291763306;0.0;0.0;0.0
1076;-0.12614800035953522;0.0453839972615242;1.02211594581604;0.00878399983048439;-0.09759999811649323;1.1360639333724976;-8.920624732971191;0.48125001788139343;1.9950000047683716
1079;0.0;0.0;0.0;0.004879999905824661;-0.08979199826717377;1.1272799968719482;0.0;0.0;0.0
1080;0.0;0.0;0.0;0.004879999905824661;-0.08979199826717377;1.132159948348999;0.0;0.0;0.0
1083;0.0;0.0;0.0;0.004879999905824661;-0.08588799834251404;1.1272799968719482;0.0;0.0;0.0
1085;-0.115167997777462;0.04172400012612343;1.0045479536056519;0.004879999905824661;-0.0936959981918335;1.1028800010681152;-9.970624923706055;-0.9187500476837158;1.6450001001358032
1087;0.0;0.0;0.0;-0.010735999792814255;-0.09759999811649323;1.1311839818954468;0.0;0.0;0.0
1089;0.0;0.0;0.0;0.004879999905824661;-0.07807999849319458;1.115567922592163;0.0;0.0;0.0
1091;0.0;0.0;0.0;-0.0029279999434947968;-0.08979199826717377;1.115567922592163;0.0;0.0;0.0
1093;-0.11663199961185455;0.03513599932193756;0.9957639575004578;0.04001599922776222;-0.10150399804115295;1.1116639375686646;-9.970624923706055;-2.2487499713897705;1.5049999952316284
1096;0.0;0.0;0.0;0.028303999453783035;-0.10931199789047241;1.107759952545166;0.0;0.0;0.0
1097;0.0;0.0;0.0;-0.006831999868154526;-0.1327359974384308;1.107759952545166;0.0;0.0;0.0
1100;0.0;0.0;0.0;0.00878399983048439;-0.12492799758911133;1.0950720310211182;0.0;0.0;0.0
1102;-0.10467600077390671;0.020983999595046043;0.9874680042266846;0.04001599922776222;-0.14444799721240997;1.0950720310211182;-9.48062515258789;-3.2987499237060547;1.0149999856948853
1104;0.0;0.0;0.0;0.03611199930310249;-0.11711999773979187;1.115567922592163;0.0;0.0;0.0
1106;0.0;0.0;0.0;0.032207999378442764;-0.12492799758911133;1.1233760118484497;0.0;0.0;0.0
1108;0.0;0.0;0.0;0.032207999378442764;-0.10150399804115295;1.1116639375686646;0.0;0.0;0.0
1110;-0.09198799729347229;0.013663999736309052;0.9874680042266846;0.024399999529123306;-0.13663999736309052;1.1233760118484497;-7.870625019073486;-4.418749809265137;1.3650000095367432
1113;0.0;0.0;0.0;0.032207999378442764;-0.10150399804115295;1.0872639417648315;0.0;0.0;0.0
1115;0.0;0.0;0.0;0.01268799975514412;-0.12883199751377106;1.1194720268249512;0.0;0.0;0.0
1117;0.0;0.0;0.0;0.032207999378442764;-0.12883199751377106;1.1116639375686646;0.0;0.0;0.0
1119;-0.0954039990901947;0.017079999670386314;0.981611967086792;0.020495999604463577;-0.10931199789047241;1.132159948348999;-5.840625286102295;-6.518750190734863;2.134999990463257
1121;0.0;0.0;0.0;0.01659199967980385;-0.1327359974384308;1.115567922592163;0.0;0.0;0.0
1123;0.0;0.0;0.0;0.032207999378442764;-0.10540799796581268;1.1116639375686646;0.0;0.0;0.0
1125;0.0;0.0;0.0;0.05172799900174141;-0.10150399804115295;1.1028800010681152;0.0;0.0;0.0
1127;-0.09613599628210068;0.026108000427484512;0.9764879941940308;0.05953599885106087;-0.13663999736309052;1.1028800010681152;-4.720625400543213;-8.898750305175781;2.4149999618530273
1130;0.0;0.0;0.0;0.020495999604463577;-0.10150399804115295;1.09116792678833;0.0;0.0;0.0
1132;0.0;0.0;0.0;0.05172799900174141;-0.0936959981918335;1.1233760118484497;0.0;0.0;0.0
1134;0.0;0.0;0.0;0.07124799489974976;-0.10150399804115295;1.09116792678833;0.0;0.0;0.0
1136;-0.07393199950456619;0.03367199748754501;0.973315954208374;0.07515199482440948;-0.10931199789047241;1.1028800010681152;-4.160624980926514;-10.1587495803833;3.044999837875366
1138;0.0;0.0;0.0;0.06734399497509003;-0.1210239976644516;1.0950720310211182;0.0;0.0;0.0
1140;0.0;0.0;0.0;0.07515199482440948;-0.12492799758911133;1.0950720310211182;0.0;0.0;0.0
1142;0.0;0.0;0.0;0.06734399497509003;-0.10931199789047241;1.1272799968719482;0.0;0.0;0.0
1144;-0.059779997915029526;0.040748000144958496;0.97843998670578;0.0634399950504303;-0.08588799834251404;1.09116792678833;-4.440625190734863;-9.388750076293945;4.305000305175781
1147;0.0;0.0;0.0;0.0878399983048439;-0.09759999811649323;1.097999930381775;0.0;0.0;0.0
1149;0.0;0.0;0.0;0.08003199845552444;-0.11321599781513214;1.1184959411621094;0.0;0.0;0.0
1151;0.0;0.0;0.0;0.07612799853086472;-0.10931199789047241;1.1145919561386108;0.0;0.0;0.0
1153;-0.05026400089263916;0.03537999838590622;0.9903959631919861;0.10638399422168732;-0.10150399804115295;1.122399926185608;-5.490625381469727;-8.12874984741211;5.635000228881836
1155;0.0;0.0;0.0;0.07222399860620499;-0.1210239976644516;1.1184959411621094;0.0;0.0;0.0
1157;0.0;0.0;0.0;0.08003199845552444;-0.14444799721240997;1.1311839818954468;0.0;0.0;0.0
1159;0.0;0.0;0.0;0.05660799890756607;-0.10150399804115295;1.1067839860916138;0.0;0.0;0.0
1161;-0.047335997223854065;0.01634800061583519;0.9916160106658936;0.05660799890756607;-0.12883199751377106;1.1067839860916138;-5.840625286102295;-7.078750133514404;7.315000057220459
1164;0.0;0.0;0.0;0.07905599474906921;-0.16396799683570862;1.083359956741333;0.0;0.0;0.0
1166;0.0;0.0;0.0;0.09467199444770813;-0.10931199789047241;1.1028800010681152;0.0;0.0;0.0
1168;0.0;0.0;0.0;0.07515199482440948;-0.17177599668502808;1.107759952545166;0.0;0.0;0.0
1170;-0.04684799909591675;-0.006831999868154526;0.9772199988365173;0.08295999467372894;-0.13663999736309052;1.1028800010681152;-5.42062520980835;-5.678750038146973;8.225000381469727
1172;0.0;0.0;0.0;0.07905599474906921;-0.14444799721240997;1.0872639417648315;0.0;0.0;0.0
1174;0.0;0.0;0.0;0.0634399950504303;-0.1756799966096878;1.0989760160446167;0.0;0.0;0.0
1176;0.0;0.0;0.0;0.07515199482440948;-0.17958399653434753;1.107759952545166;0.0;0.0;0.0
1178;-0.044652000069618225;-0.027084000408649445;0.9674599766731262;0.07124799489974976;-0.1600639969110489;1.115567922592163;-4.090625286102295;-5.46875;8.994999885559082
1181;0.0;0.0;0.0;0.0907679945230484;-0.17958399653434753;1.0989760160446167;0.0;0.0;0.0
1183;0.0;0.0;0.0;0.0907679945230484;-0.19910399615764618;1.0784800052642822;0.0;0.0;0.0
1185;0.0;0.0;0.0;0.07905599474906921;-0.18348799645900726;1.1028800010681152;0.0;0.0;0.0
1187;-0.031231999397277832;-0.03855200111865997;0.9686799645423889;0.08295999467372894;-0.19129599630832672;1.1028800010681152;-2.900624990463257;-6.518750190734863;9.975000381469727
1189;0.0;0.0;0.0;0.09467199444770813;-0.16787199676036835;1.0950720310211182;0.0;0.0;0.0
1191;0.0;0.0;0.0;0.08295999467372894;-0.15225599706172943;1.1116639375686646;0.0;0.0;0.0
1193;0.0;0.0;0.0;0.0907679945230484;-0.18348799645900726;1.1233760118484497;0.0;0.0;0.0
1195;-0.02147199958562851;-0.03952799737453461;0.9828319549560547;0.08686399459838867;-0.1756799966096878;1.1028800010681152;-3.1806249618530273;-7.428750038146973;10.675000190734863
1198;0.0;0.0;0.0;0.10638399422168732;-0.16396799683570862;1.1233760118484497;0.0;0.0;0.0
1200;0.0;0.0;0.0;0.09759999811649323;-0.187391996383667;1.1233760118484497;0.0;0.0;0.0
1202;0.0;0.0;0.0;0.10540799796581268;-0.15615999698638916;1.1516799926757812;0.0;0.0;0.0
1204;-0.018055999651551247;-0.037331998348236084;1.0077199935913086;0.10150399804115295;-0.15615999698638916;1.1477760076522827;-4.790625095367432;-6.798749923706055;10.744999885559082
1206;0.0;0.0;0.0;0.09467199444770813;-0.17177599668502808;1.1643680334091187;0.0;0.0;0.0
1208;0.0;0.0;0.0;0.09759999811649323;-0.1483519971370697;1.1604639291763306;0.0;0.0;0.0
1210;0.0;0.0;0.0;0.1210239976644516;-0.1756799966096878;1.1438720226287842;0.0;0.0;0.0
1212;-0.025863999500870705;-0.03757599741220474;1.0213840007781982;0.08588799834251404;-0.15225599706172943;1.156559944152832;-7.17062520980835;-5.328750133514404;10.1850004196167
1215;0.0;0.0;0.0;0.09759999811649323;-0.2030079960823059;1.1477760076522827;0.0;0.0;0.0
1217;0.0;0.0;0.0;0.08295999467372894;-0.18348799645900726;1.1233760118484497;0.0;0.0;0.0
1219;0.0;0.0;0.0;0.07124799489974976;-0.19129599630832672;1.132159948348999;0.0;0.0;0.0
1221;-0.03440399840474129;-0.047091998159885406;1.0118680000305176;0.08686399459838867;-0.19910399615764618;1.1272799968719482;-8.780624389648438;-3.648750066757202;9.204999923706055
1223;0.0;0.0;0.0;0.06734399497509003;-0.20691199600696564;1.1272799968719482;0.0;0.0;0.0
1225;0.0;0.0;0.0;0.09467199444770813;-0.17177599668502808;1.115567922592163;0.0;0.0;0.0
1227;0.0;0.0;0.0;0.08686399459838867;-0.2030079960823059;1.0989760160446167;0.0;0.0;0.0
1229;-0.04270000010728836;-0.05929199978709221;0.9879559874534607;0.07515199482440948;-0.18348799645900726;1.107759952545166;-8.500624656677246;-2.668750047683716;8.015000343322754
1232;0.0;0.0;0.0;0.0907679945230484;-0.2030079960823059;1.107759952545166;0.0;0.0;0.0
1234;0.0;0.0;0.0;0.06734399497509003;-0.2030079960823059;1.0950720310211182;0.0;0.0;0.0
1236;0.0;0.0;0.0;0.07905599474906921;-0.19910399615764618;1.09116792678833;0.0;0.0;0.0
1238;-0.035868000239133835;-0.06075599789619446;0.9674599766731262;0.12492799758911133;-0.20691199600696564;1.1116639375686646;-6.890625;-3.3687500953674316;7.595000267028809
1240;0.0;0.0;0.0;0.09759999811649323;-0.187391996383667;1.0989760160446167;0.0;0.0;0.0
1242;0.0;0.0;0.0;0.10540799796581268;-0.18348799645900726;1.0989760160446167;0.0;0.0;0.0
1244;0.0;0.0;0.0;0.1180959939956665;-0.16787199676036835;1.09116792678833;0.0;0.0;0.0
1246;-0.020495999604463577;-0.054655998945236206;0.965507984161377;0.10931199789047241;-0.19129599630832672;1.083359956741333;-4.860625267028809;-4.138750076293945;7.24500036239624
1249;0.0;0.0;0.0;0.12492799758911133;-0.19519999623298645;1.09116792678833;0.0;0.0;0.0
1251;0.0;0.0;0.0;0.12883199751377106;-0.19910399615764618;1.083359956741333;0.0;0.0;0.0
1253;0.0;0.0;0.0;0.1210239976644516;-0.20691199600696564;1.0872639417648315;0.0;0.0;0.0
1255;-0.007807999849319458;-0.05441199988126755;0.9725840091705322;0.13663999736309052;-0.1756799966096878;1.0872639417648315;-3.1106250286102295;-3.578749895095825;7.175000190734863
1257;0.0;0.0;0.0;0.12883199751377106;-0.19129599630832672;1.1028800010681152;0.0;0.0;0.0
1259;0.0;0.0;0.0;0.09467199444770813;-0.19129599630832672;1.0989760160446167;0.0;0.0;0.0
1261;0.0;0.0;0.0;0.10540799796581268;-0.19519999623298645;1.1194720268249512;0.0;0.0;0.0
1263;-0.007563999854028225;-0.058559998869895935;0.9835639595985413;0.10540799796581268;-0.19129599630832672;1.1116639375686646;-1.6406251192092896;-2.3187499046325684;7.385000228881836
1266;0.0;0.0;0.0;0.11321599781513214;-0.19519999623298645;1.132159948348999;0.0;0.0;0.0
1268;0.0;0.0;0.0;0.08979199826717377;-0.19910399615764618;1.1194720268249512;0.0;0.0;0.0
1270;0.0;0.0;0.0;0.09467199444770813;-0.19129599630832672;1.1116639375686646;0.0;0.0;0.0
1272;-0.01903199963271618;-0.06465999782085419;0.9889319539070129;0.10247999429702759;-0.19129599630832672;1.1272799968719482;-0.1706250011920929;-1.618749976158142;7.875
1274;0.0;0.0;0.0;0.10150399804115295;-0.19519999623298645;1.139967918395996;0.0;0.0;0.0
1276;0.0;0.0;0.0;0.0907679945230484;-0.19129599630832672;1.115567922592163;0.0;0.0;0.0
1278;0.0;0.0;0.0;0.06734399497509003;-0.18348799645900726;1.1194720268249512;0.0;0.0;0.0
1280;-0.03903999924659729;-0.06148799881339073;0.9984479546546936;0.07124799489974976;-0.2147199958562851;1.1360639333724976;0.8793750405311584;-1.6887500286102295;7.735000133514404
1283;0.0;0.0;0.0;0.07515199482440948;-0.19910399615764618;1.1272799968719482;0.0;0.0;0.0
1285;0.0;0.0;0.0;0.08295999467372894;-0.18348799645900726;1.1272799968719482;0.0;0.0;0.0
1287;0.0;0.0;0.0;0.07515199482440948;-0.16396799683570862;1.1604639291763306;0.0;0.0;0.0
1289;-0.05660799890756607;-0.05197199806571007;1.0043039321899414;0.06734399497509003;-0.1756799966096878;1.1360639333724976;1.019374966621399;-3.228749990463257;6.894999980926514
1291;0.0;0.0;0.0;0.06734399497509003;-0.17958399653434753;1.1194720268249512;0.0;0.0;0.0
1293;0.0;0.0;0.0;0.04001599922776222;-0.17958399653434753;1.1477760076522827;0.0;0.0;0.0
1295;0.0;0.0;0.0;0.07515199482440948;-0.18348799645900726;1.1233760118484497;0.0;0.0;0.0
1297;-0.0558759979903698;-0.045871999114751816;1.0025960206985474;0.0634399950504303;-0.187391996383667;1.0989760160446167;-0.030625000596046448;-4.908750057220459;5.285000324249268
1300;0.0;0.0;0.0;0.0634399950504303;-0.17958399653434753;1.132159948348999;0.0;0.0;0.0
1302;0.0;0.0;0.0;0.07515199482440948;-0.17177599668502808;1.1116639375686646;0.0;0.0;0.0
1304;0.0;0.0;0.0;0.0907679945230484;-0.1756799966096878;1.1233760118484497;0.0;0.0;0.0
1306;-0.03879600018262863;-0.04294399917125702;0.9930799603462219;0.10247999429702759;-0.18348799645900726;1.1194720268249512;-1.92062509059906;-5.678750038146973;3.3949999809265137
1308;0.0;0.0;0.0;0.10150399804115295;-0.19129599630832672;1.1028800010681152;0.0;0.0;0.0
1310;0.0;0.0;0.0;0.10540799796581268;-0.16396799683570862;1.1116639375686646;0.0;0.0;0.0
1312;0.0;0.0;0.0;0.11321599781513214;-0.17958399653434753;1.0950720310211182;0.0;0.0;0.0
1314;-0.015615999698638916;-0.04660400003194809;0.9821000099182129;0.11711999773979187;-0.17177599668502808;1.1067839860916138;-3.320625066757202;-5.048749923706055;2.554999828338623
1317;0.0;0.0;0.0;0.11419199407100677;-0.17958399653434753;1.083359956741333;0.0;0.0;0.0
1319;0.0;0.0;0.0;0.10540799796581268;-0.187391996383667;1.0950720310211182;0.0;0.0;0.0
1321;0.0;0.0;0.0;0.11711999773979187;-0.15615999698638916;1.115567922592163;0.0;0.0;0.0
1323;-0.007319999858736992;-0.0500199981033802;0.9764879941940308;0.10247999429702759;-0.17958399653434753;1.107759952545166;-3.460624933242798;-3.578749895095825;2.554999828338623
1325;0.0;0.0;0.0;0.11711999773979187;-0.19129599630832672;1.1028800010681152;0.0;0.0;0.0
1327;0.0;0.0;0.0;0.10931199789047241;-0.2030079960823059;1.107759952545166;0.0;0.0;0.0
1329;0.0;0.0;0.0;0.11711999773979187;-0.19519999623298645;1.107759952545166;0.0;0.0;0.0
1331;-0.0056119998916983604;-0.05319199711084366;0.9779520034790039;0.10638399422168732;-0.19129599630832672;1.1028800010681152;-2.690624952316284;-2.8787500858306885;3.184999942779541
1334;0.0;0.0;0.0;0.0907679945230484;-0.187391996383667;1.1194720268249512;0.0;0.0;0.0
1336;0.0;0.0;0.0;0.10931199789047241;-0.19129599630832672;1.1116639375686646;0.0;0.0;0.0
1338;0.0;0.0;0.0;0.11321599781513214;-0.18348799645900726;1.107759952545166;0.0;0.0;0.0
1340;-0.014883999712765217;-0.05270399898290634;0.9818559885025024;0.11711999773979187;-0.17958399653434753;1.115567922592163;-2.130625009536743;-3.2987499237060547;4.095000267028809
1342;0.0;0.0;0.0;0.08686399459838867;-0.19519999623298645;1.1116639375686646;0.0;0.0;0.0
1344;0.0;0.0;0.0;0.10247999429702759;-0.1756799966096878;1.1233760118484497;0.0;0.0;0.0
1346;0.0;0.0;0.0;0.10931199789047241;-0.21862399578094482;1.0872639417648315;0.0;0.0;0.0
1348;-0.02000799961388111;-0.058803997933864594;0.9791719913482666;0.09467199444770813;-0.21081599593162537;1.1028800010681152;-2.340625047683716;-3.018749952316284;3.6050000190734863
1351;0.0;0.0;0.0;0.09857599437236786;-0.19129599630832672;1.1028800010681152;0.0;0.0;0.0
1353;0.0;0.0;0.0;0.1210239976644516;-0.2147199958562851;1.1116639375686646;0.0;0.0;0.0
1355;0.0;0.0;0.0;0.11321599781513214;-0.187391996383667;1.107759952545166;0.0;0.0;0.0
1357;-0.013175999745726585;-0.07320000231266022;0.9738039970397949;0.07124799489974976;-0.230335995554924;1.0950720310211182;-2.200624942779541;-2.1087498664855957;2.484999895095825
1359;0.0;0.0;0.0;0.11711999773979187;-0.20691199600696564;1.1194720268249512;0.0;0.0;0.0
1361;0.0;0.0;0.0;0.10931199789047241;-0.22252799570560455;1.0950720310211182;0.0;0.0;0.0
1363;0.0;0.0;0.0;0.1210239976644516;-0.19910399615764618;1.0745760202407837;0.0;0.0;0.0
1365;-0.007075999863445759;-0.08344800025224686;0.9659959673881531;0.12492799758911133;-0.19910399615764618;1.09116792678833;-0.8006250262260437;-1.1987500190734863;1.6450001001358032
1368;0.0;0.0;0.0;0.10540799796581268;-0.21862399578094482;1.0872639417648315;0.0;0.0;0.0
1370;0.0;0.0;0.0;0.11711999773979187;-0.21081599593162537;1.1028800010681152;0.0;0.0;0.0
1372;0.0;0.0;0.0;0.10540799796581268;-0.2030079960823059;1.0989760160446167;0.0;0.0;0.0
1374;-0.013175999745726585;-0.07441999763250351;0.9711199998855591;0.11711999773979187;-0.21081599593162537;1.1194720268249512;1.1593749523162842;-0.6387500166893005;1.3650000095367432
1376;0.0;0.0;0.0;0.10150399804115295;-0.19129599630832672;1.1233760118484497;0.0;0.0;0.0
1378;0.0;0.0;0.0;0.10247999429702759;-0.17958399653434753;1.1116639375686646;0.0;0.0;0.0
1380;0.0;0.0;0.0;0.12492799758911133;-0.187391996383667;1.1194720268249512;0.0;0.0;0.0
1382;-0.013419999741017818;-0.05904799699783325;0.9874680042266846;0.1210239976644516;-0.17177599668502808;1.1360639333724976;1.509374976158142;-0.2187500149011612;0.5249999761581421
1385;0.0;0.0;0.0;0.1210239976644516;-0.19129599630832672;1.1194720268249512;0.0;0.0;0.0
1387;0.0;0.0;0.0;0.11321599781513214;-0.2030079960823059;1.1028800010681152;0.0;0.0;0.0
1389;0.0;0.0;0.0;0.10638399422168732;-0.187391996383667;1.107759952545166;0.0;0.0;0.0
1391;-0.009271999821066856;-0.054655998945236206;0.9913719892501831;0.12883199751377106;-0.17177599668502808;1.1272799968719482;0.7393749952316284;1.1812500953674316;-0.5250000357627869
1393;0.0;0.0;0.0;0.10150399804115295;-0.19129599630832672;1.0989760160446167;0.0;0.0;0.0
1395;0.0;0.0;0.0;0.09857599437236786;-0.2147199958562851;1.1028800010681152;0.0;0.0;0.0
1397;0.0;0.0;0.0;0.09857599437236786;-0.19519999623298645;1.1194720268249512;0.0;0.0;0.0
1399;-0.00878399983048439;-0.05563199892640114;0.986735999584198;0.09467199444770813;-0.19129599630832672;1.0872639417648315;-0.030625000596046448;2.721250057220459;-1.9249999523162842
1402;0.0;0.0;0.0;0.08686399459838867;-0.17958399653434753;1.1233760118484497;0.0;0.0;0.0
1404;0.0;0.0;0.0;0.10931199789047241;-0.187391996383667;1.1233760118484497;0.0;0.0;0.0
1406;0.0;0.0;0.0;0.09467199444770813;-0.1756799966096878;1.1516799926757812;0.0;0.0;0.0
1408;-0.012443999759852886;-0.053435999900102615;0.9935680031776428;0.10540799796581268;-0.1756799966096878;1.1477760076522827;0.17937499284744263;2.4412500858306885;-2.4850001335144043
1410;0.0;0.0;0.0;0.08686399459838867;-0.19519999623298645;1.1438720226287842;0.0;0.0;0.0
1412;0.0;0.0;0.0;0.10150399804115295;-0.16396799683570862;1.1311839818954468;0.0;0.0;0.0
1414;0.0;0.0;0.0;0.08295999467372894;-0.19519999623298645;1.1438720226287842;0.0;0.0;0.0
1416;-0.019519999623298645;-0.0500199981033802;1.0106480121612549;0.0907679945230484;-0.1756799966096878;1.1311839818954468;1.509374976158142;1.1112500429153442;-1.715000033378601
1419;0.0;0.0;0.0;0.08295999467372894;-0.187391996383667;1.1604639291763306;0.0;0.0;0.0
1421;0.0;0.0;0.0;0.09857599437236786;-0.2030079960823059;1.1516799926757812;0.0;0.0;0.0
1423;0.0;0.0;0.0;0.07124799489974976;-0.16787199676036835;1.1438720226287842;0.0;0.0;0.0
1425;-0.04270000010728836;-0.0424560010433197;1.014307975769043;0.05563199892640114;-0.16396799683570862;1.1311839818954468;3.3993752002716064;0.5512499809265137;-1.084999918937683
1427;0.0;0.0;0.0;0.0634399950504303;-0.1756799966096878;1.139967918395996;0.0;0.0;0.0
1429;0.0;0.0;0.0;0.06734399497509003;-0.16787199676036835;1.1438720226287842;0.0;0.0;0.0
1431;0.0;0.0;0.0;0.06734399497509003;-0.15225599706172943;1.1477760076522827;0.0;0.0;0.0
1433;-0.0634399950504303;-0.02659599855542183;1.0086959600448608;0.020495999604463577;-0.14444799721240997;1.1360639333724976;3.8893749713897705;0.4112500250339508;-1.8550000190734863
1436;0.0;0.0;0.0;0.07515199482440948;-0.1756799966096878;1.139967918395996;0.0;0.0;0.0
1438;0.0;0.0;0.0;0.04782399907708168;-0.12492799758911133;1.1360639333724976;0.0;0.0;0.0
1440;0.0;0.0;0.0;0.05172799900174141;-0.15225599706172943;1.1116639375686646;0.0;0.0;0.0
1442;-0.06856399774551392;-0.01268799975514412;0.9938119649887085;0.05172799900174141;-0.14444799721240997;1.1438720226287842;2.6293749809265137;-0.14875000715255737;-3.5350000858306885
1444;0.0;0.0;0.0;0.05172799900174141;-0.17177599668502808;1.1028800010681152;0.0;0.0;0.0
1446;0.0;0.0;0.0;0.0907679945230484;-0.1483519971370697;1.1028800010681152;0.0;0.0;0.0
1448;0.0;0.0;0.0;0.07124799489974976;-0.1483519971370697;1.1028800010681152;0.0;0.0;0.0
1450;-0.046115998178720474;-0.012931999750435352;0.9757559895515442;0.09857599437236786;-0.1600639969110489;1.107759952545166;1.9293749332427979;-0.4987500011920929;-4.654999732971191
1453;0.0;0.0;0.0;0.07515199482440948;-0.16787199676036835;1.107759952545166;0.0;0.0;0.0
1455;0.0;0.0;0.0;0.08979199826717377;-0.1327359974384308;1.1116639375686646;0.0;0.0;0.0
1457;0.0;0.0;0.0;0.10638399422168732;-0.1600639969110489;1.1194720268249512;0.0;0.0;0.0
1459;-0.020739998668432236;-0.013419999741017818;0.9745360016822815;0.10150399804115295;-0.12883199751377106;1.1116639375686646;3.049375057220459;-0.07874999940395355;-3.955000162124634
1461;0.0;0.0;0.0;0.11711999773979187;-0.16396799683570862;1.1194720268249512;0.0;0.0;0.0
1463;0.0;0.0;0.0;0.09857599437236786;-0.1600639969110489;1.1233760118484497;0.0;0.0;0.0
1465;0.0;0.0;0.0;0.11321599781513214;-0.1600639969110489;1.1194720268249512;0.0;0.0;0.0
1467;-0.012931999750435352;-0.012931999750435352;0.9886879920959473;0.11711999773979187;-0.14444799721240997;1.1272799968719482;5.149374961853027;0.6212499737739563;-1.8550000190734863
1470;0.0;0.0;0.0;0.10540799796581268;-0.13663999736309052;1.139967918395996;0.0;0.0;0.0
1472;0.0;0.0;0.0;0.08686399459838867;-0.14054399728775024;1.1116639375686646;0.0;0.0;0.0
1474;0.0;0.0;0.0;0.06734399497509003;-0.13663999736309052;1.1360639333724976;0.0;0.0;0.0
1476;-0.029767999425530434;-0.007807999849319458;0.9960079789161682;0.08686399459838867;-0.1210239976644516;1.1272799968719482;6.759375095367432;1.7412500381469727;-0.10500000417232513
1478;0.0;0.0;0.0;0.0907679945230484;-0.12883199751377106;1.1233760118484497;0.0;0.0;0.0
1480;0.0;0.0;0.0;0.04001599922776222;-0.14054399728775024;1.1438720226287842;0.0;0.0;0.0
1482;0.0;0.0;0.0;0.05953599885106087;-0.13663999736309052;1.1360639333724976;0.0;0.0;0.0
1484;-0.05416800081729889;-0.0004879999905824661;1.0030839443206787;0.05563199892640114;-0.14444799721240997;1.1360639333724976;6.899374961853027;2.231250047683716;0.3149999976158142
1487;0.0;0.0;0.0;0.0634399950504303;-0.1210239976644516;1.1311839818954468;0.0;0.0;0.0
1489;0.0;0.0;0.0;0.0634399950504303;-0.1327359974384308;1.139967918395996;0.0;0.0;0.0
1491;0.0;0.0;0.0;0.04391999915242195;-0.11711999773979187;1.1272799968719482;0.0;0.0;0.0
1493;-0.07149200141429901;-0.003415999934077263;1.0006439685821533;0.04782399907708168;-0.12492799758911133;1.1194720268249512;5.849374771118164;1.1112500429153442;-0.45500001311302185
1495;0.0;0.0;0.0;0.04782399907708168;-0.13663999736309052;1.115567922592163;0.0;0.0;0.0
1497;0.0;0.0;0.0;0.032207999378442764;-0.12492799758911133;1.115567922592163;0.0;0.0;0.0
1499;0.0;0.0;0.0;0.06734399497509003;-0.1483519971370697;1.115567922592163;0.0;0.0;0.0
1501;-0.07124799489974976;-0.007319999858736992;0.9962520003318787;0.03611199930310249;-0.14054399728775024;1.1194720268249512;5.07937479019165;-0.6387500166893005;-1.784999966621399
1504;0.0;0.0;0.0;0.06734399497509003;-0.13663999736309052;1.1272799968719482;0.0;0.0;0.0
1506;0.0;0.0;0.0;0.0634399950504303;-0.14444799721240997;1.1233760118484497;0.0;0.0;0.0
1508;0.0;0.0;0.0;0.05953599885106087;-0.12492799758911133;1.115567922592163;0.0;0.0;0.0
1510;-0.06148799881339073;-0.00878399983048439;0.9960079789161682;0.06734399497509003;-0.12883199751377106;1.1360639333724976;5.149374961853027;-2.1787500381469727;-2.2750000953674316
1512;0.0;0.0;0.0;0.05563199892640114;-0.12883199751377106;1.1194720268249512;0.0;0.0;0.0
1514;0.0;0.0;0.0;0.0634399950504303;-0.14054399728775024;1.115567922592163;0.0;0.0;0.0
1516;0.0;0.0;0.0;0.07124799489974976;-0.12883199751377106;1.1311839818954468;0.0;0.0;0.0
1519;-0.051239997148513794;-0.006099999882280827;0.9935680031776428;0.09467199444770813;-0.1483519971370697;1.1233760118484497;5.709374904632568;-2.9487500190734863;-1.9950000047683716
1521;0.0;0.0;0.0;0.09467199444770813;-0.13663999736309052;1.107759952545166;0.0;0.0;0.0
1523;0.0;0.0;0.0;0.08979199826717377;-0.1327359974384308;1.1067839860916138;0.0;0.0;0.0
1525;0.0;0.0;0.0;0.05953599885106087;-0.1600639969110489;1.115567922592163;0.0;0.0;0.0
1527;-0.04782399907708168;-0.0014639999717473984;0.9913719892501831;0.03611199930310249;-0.12492799758911133;1.1233760118484497;6.689374923706055;-2.9487500190734863;-0.8050000071525574
1529;0.0;0.0;0.0;0.05172799900174141;-0.15225599706172943;1.107759952545166;0.0;0.0;0.0
1531;0.0;0.0;0.0;0.04782399907708168;-0.13663999736309052;1.0989760160446167;0.0;0.0;0.0
1533;0.0;0.0;0.0;0.04782399907708168;-0.12883199751377106;1.1194720268249512;0.0;0.0;0.0
1535;-0.05953599885106087;0.0009759999811649323;0.9852719902992249;0.07515199482440948;-0.10540799796581268;1.1028800010681152;7.949374675750732;-3.018749952316284;0.24500000476837158
1538;0.0;0.0;0.0;0.04782399907708168;-0.13663999736309052;1.107759952545166;0.0;0.0;0.0
1540;0.0;0.0;0.0;0.05172799900174141;-0.13663999736309052;1.0794559717178345;0.0;0.0;0.0
1542;0.0;0.0;0.0;0.05953599885106087;-0.14444799721240997;1.083359956741333;0.0;0.0;0.0
1544;-0.07027199864387512;-0.004391999915242195;0.974291980266571;0.04782399907708168;-0.14444799721240997;1.0872639417648315;8.649374961853027;-3.578749895095825;0.73499995470047
1546;0.0;0.0;0.0;0.04391999915242195;-0.16396799683570862;1.0950720310211182;0.0;0.0;0.0
1548;0.0;0.0;0.0;0.032207999378442764;-0.13663999736309052;1.083359956741333;0.0;0.0;0.0
1550;0.0;0.0;0.0;0.04782399907708168;-0.1327359974384308;1.1116639375686646;0.0;0.0;0.0
1553;-0.07222399860620499;-0.011467999778687954;0.962336003780365;0.03611199930310249;-0.17177599668502808;1.0706720352172852;9.279375076293945;-4.978749752044678;0.5249999761581421
1555;0.0;0.0;0.0;0.06734399497509003;-0.15615999698638916;1.0745760202407837;0.0;0.0;0.0
1557;0.0;0.0;0.0;0.08686399459838867;-0.15225599706172943;1.0745760202407837;0.0;0.0;0.0
1559;0.0;0.0;0.0;0.06734399497509003;-0.16396799683570862;1.0784800052642822;0.0;0.0;0.0
1561;-0.062219999730587006;-0.01903199963271618;0.9567239880561829;0.05953599885106087;-0.15225599706172943;1.0950720310211182;10.189374923706055;-6.868750095367432;0.73499995470047
1563;0.0;0.0;0.0;0.07124799489974976;-0.16396799683570862;1.09116792678833;0.0;0.0;0.0
1565;0.0;0.0;0.0;0.05563199892640114;-0.15615999698638916;1.0745760202407837;0.0;0.0;0.0
1567;0.0;0.0;0.0;0.05172799900174141;-0.1600639969110489;1.09116792678833;0.0;0.0;0.0
1570;-0.05245999991893768;-0.021715998649597168;0.9635559916496277;0.09467199444770813;-0.13663999736309052;1.1028800010681152;11.029375076293945;-7.988749980926514;1.15500009059906
1572;0.0;0.0;0.0;0.07124799489974976;-0.15615999698638916;1.107759952545166;0.0;0.0;0.0
1574;0.0;0.0;0.0;0.07905599474906921;-0.12883199751377106;1.1233760118484497;0.0;0.0;0.0
1576;0.0;0.0;0.0;0.06734399497509003;-0.14054399728775024;1.1028800010681152;0.0;0.0;0.0
1578;-0.058803997933864594;-0.011467999778687954;0.986735999584198;0.05953599885106087;-0.14444799721240997;1.1233760118484497;10.539375305175781;-8.12874984741211;1.5750000476837158
1580;0.0;0.0;0.0;0.032207999378442764;-0.16396799683570862;1.1438720226287842;0.0;0.0;0.0
1582;0.0;0.0;0.0;0.04782399907708168;-0.14054399728775024;1.1116639375686646;0.0;0.0;0.0
1584;0.0;0.0;0.0;0.0634399950504303;-0.1483519971370697;1.132159948348999;0.0;0.0;0.0
1587;-0.0710039958357811;-0.004147999919950962;0.9982039928436279;0.04001599922776222;-0.1600639969110489;1.1116639375686646;7.529375076293945;-9.248749732971191;0.3850000202655792
1589;0.0;0.0;0.0;0.07124799489974976;-0.1600639969110489;1.1194720268249512;0.0;0.0;0.0
1591;0.0;0.0;0.0;0.06734399497509003;-0.16396799683570862;1.1272799968719482;0.0;0.0;0.0
1593;0.0;0.0;0.0;0.07124799489974976;-0.15225599706172943;1.1360639333724976;0.0;0.0;0.0
1595;-0.05026400089263916;-0.021715998649597168;1.0016199350357056;0.0634399950504303;-0.18348799645900726;1.1233760118484497;2.559375047683716;-10.71875;-1.5749999284744263
1597;0.0;0.0;0.0;0.07905599474906921;-0.18348799645900726;1.1233760118484497;0.0;0.0;0.0
1599;0.0;0.0;0.0;0.11711999773979187;-0.18348799645900726;1.1360639333724976;0.0;0.0;0.0
1601;0.0;0.0;0.0;0.10247999429702759;-0.15225599706172943;1.1233760118484497;0.0;0.0;0.0
1604;-0.023667998611927032;-0.03415999934077263;1.0104039907455444;0.11711999773979187;-0.15615999698638916;1.1438720226287842;-1.5706250667572021;-11.068750381469727;-2.8350000381469727
1606;0.0;0.0;0.0;0.11419199407100677;-0.19129599630832672;1.139967918395996;0.0;0.0;0.0
1608;0.0;0.0;0.0;0.1180959939956665;-0.16787199676036835;1.1360639333724976;0.0;0.0;0.0
1610;0.0;0.0;0.0;0.14444799721240997;-0.19910399615764618;1.1682720184326172;0.0;0.0;0.0
1612;0.003415999934077263;-0.047091998159885406;1.0155279636383057;0.10150399804115295;-0.19910399615764618;1.139967918395996;-4.440625190734863;-8.618749618530273;-3.6750001907348633
1614;0.0;0.0;0.0;0.15615999698638916;-0.20691199600696564;1.1516799926757812;0.0;0.0;0.0
1616;0.0;0.0;0.0;0.14444799721240997;-0.19129599630832672;1.139967918395996;0.0;0.0;0.0
1618;0.0;0.0;0.0;0.1756799966096878;-0.22643199563026428;1.132159948348999;0.0;0.0;0.0
1621;0.029767999425530434;-0.06539200246334076;1.0152839422225952;0.17958399653434753;-0.20691199600696564;1.1438720226287842;-6.6806254386901855;-5.398749828338623;-3.884999990463257
1623;0.0;0.0;0.0;0.16396799683570862;-0.230335995554924;1.1438720226287842;0.0;0.0;0.0
1625;0.0;0.0;0.0;0.1327359974384308;-0.24595199525356293;1.1311839818954468;0.0;0.0;0.0
1627;0.0;0.0;0.0;0.14054399728775024;-0.2576639950275421;1.1194720268249512;0.0;0.0;0.0
1629;0.029279999434947968;-0.09906399995088577;1.0001559257507324;0.16396799683570862;-0.24595199525356293;1.0872639417648315;-8.290624618530273;-3.018749952316284;-4.304999828338623
1631;0.0;0.0;0.0;0.14444799721240997;-0.2654719948768616;1.1194720268249512;0.0;0.0;0.0
1633;0.0;0.0;0.0;0.14054399728775024;-0.2654719948768616;1.0989760160446167;0.0;0.0;0.0
1635;0.0;0.0;0.0;0.12883199751377106;-0.27327999472618103;1.115567922592163;0.0;0.0;0.0
1638;0.020739998668432236;-0.13249199092388153;0.9803919792175293;0.12492799758911133;-0.2693759799003601;1.0950720310211182;-7.730625152587891;-0.35874998569488525;-6.125
1640;0.0;0.0;0.0;0.1210239976644516;-0.27327999472618103;1.083359956741333;0.0;0.0;0.0
1642;0.0;0.0;0.0;0.1210239976644516;-0.284991979598999;1.0950720310211182;0.0;0.0;0.0
1644;0.0;0.0;0.0;0.13663999736309052;-0.2810879945755005;1.1116639375686646;0.0;0.0;0.0
1646;0.01512799970805645;-0.14615599811077118;0.9642879962921143;0.11711999773979187;-0.2654719948768616;1.0950720310211182;-4.440625190734863;1.1112500429153442;-8.505000114440918
1648;0.0;0.0;0.0;0.1327359974384308;-0.29280000925064087;1.0950720310211182;0.0;0.0;0.0
1650;0.0;0.0;0.0;0.12492799758911133;-0.2654719948768616;1.0989760160446167;0.0;0.0;0.0
1652;0.0;0.0;0.0;0.11028799414634705;-0.2654719948768616;1.0989760160446167;0.0;0.0;0.0
1655;0.0021959999576210976;-0.13712799549102783;0.9679479598999023;0.12492799758911133;-0.2537599802017212;1.09116792678833;-0.10062500089406967;0.7612499594688416;-10.885000228881836
1657;0.0;0.0;0.0;0.10150399804115295;-0.26156800985336304;1.115567922592163;0.0;0.0;0.0
1659;0.0;0.0;0.0;0.11711999773979187;-0.2576639950275421;1.107759952545166;0.0;0.0;0.0
1661;0.0;0.0;0.0;0.12492799758911133;-0.22252799570560455;1.1233760118484497;0.0;0.0;0.0
1663;0.0019519999623298645;-0.10491999983787537;0.9842959642410278;0.10931199789047241;-0.20691199600696564;1.1233760118484497;4.169374942779541;-1.128749966621399;-12.354999542236328
1665;0.0;0.0;0.0;0.1210239976644516;-0.19129599630832672;1.1272799968719482;0.0;0.0;0.0
1667;0.0;0.0;0.0;0.14054399728775024;-0.2030079960823059;1.1516799926757812;0.0;0.0;0.0
1669;0.0;0.0;0.0;0.13663999736309052;-0.16787199676036835;1.1477760076522827;0.0;0.0;0.0
1672;0.013419999741017818;-0.05831599980592728;1.0177240371704102;0.14054399728775024;-0.1600639969110489;1.1516799926757812;6.689374923706055;-1.7587499618530273;-12.914999961853027
1674;0.0;0.0;0.0;0.1483519971370697;-0.1483519971370697;1.1604639291763306;0.0;0.0;0.0
1676;0.0;0.0;0.0;0.12492799758911133;-0.14054399728775024;1.1682720184326172;0.0;0.0;0.0
1678;0.0;0.0;0.0;0.11321599781513214;-0.15615999698638916;1.1848639249801636;0.0;0.0;0.0
1680;0.007563999854028225;-0.01878799870610237;1.0472480058670044;0.12883199751377106;-0.15225599706172943;1.1887680292129517;6.899374961853027;-0.2187500149011612;-13.614999771118164
1682;0.0;0.0;0.0;0.11321599781513214;-0.1327359974384308;1.1965759992599487;0.0;0.0;0.0
1684;0.0;0.0;0.0;0.11711999773979187;-0.11711999773979187;1.1926720142364502;0.0;0.0;0.0
1686;0.0;0.0;0.0;0.11321599781513214;-0.1327359974384308;1.1760799884796143;0.0;0.0;0.0
1689;-0.006099999882280827;0.003659999929368496;1.0540800094604492;0.08686399459838867;-0.12883199751377106;1.1848639249801636;6.479374885559082;2.161250114440918;-14.3149995803833
1691;0.0;0.0;0.0;0.0907679945230484;-0.11321599781513214;1.1926720142364502;0.0;0.0;0.0
1693;0.0;0.0;0.0;0.10540799796581268;-0.10540799796581268;1.1721760034561157;0.0;0.0;0.0
1695;0.0;0.0;0.0;0.10931199789047241;-0.12492799758911133;1.1477760076522827;0.0;0.0;0.0
1697;-0.024156000465154648;0.01781199872493744;1.0401719808578491;0.0936959981918335;-0.12883199751377106;1.1604639291763306;6.269374847412109;4.191249847412109;-14.944999694824219
1699;0.0;0.0;0.0;0.07124799489974976;-0.11321599781513214;1.1272799968719482;0.0;0.0;0.0
1701;0.0;0.0;0.0;0.08295999467372894;-0.10931199789047241;1.1360639333724976;0.0;0.0;0.0
1703;0.0;0.0;0.0;0.06734399497509003;-0.10540799796581268;1.1516799926757812;0.0;0.0;0.0
1706;-0.04318799823522568;0.03684400022029877;1.0145519971847534;0.07515199482440948;-0.10150399804115295;1.1360639333724976;6.269374847412109;4.401249885559082;-15.574999809265137
1708;0.0;0.0;0.0;0.07124799489974976;-0.08979199826717377;1.1116639375686646;0.0;0.0;0.0
1710;0.0;0.0;0.0;0.05953599885106087;-0.08979199826717377;1.115567922592163;0.0;0.0;0.0
1712;0.0;0.0;0.0;0.07905599474906921;-0.08198399841785431;1.0989760160446167;0.0;0.0;0.0
1714;-0.05075199902057648;0.052947998046875;0.9928359985351562;0.09467199444770813;-0.0663679987192154;1.1194720268249512;6.339375019073486;3.0012500286102295;-16.135000228881836
1716;0.0;0.0;0.0;0.07905599474906921;-0.058559998869895935;1.0989760160446167;0.0;0.0;0.0
1718;0.0;0.0;0.0;0.08686399459838867;-0.0663679987192154;1.132159948348999;0.0;0.0;0.0
1721;0.0;0.0;0.0;0.08686399459838867;-0.0663679987192154;1.1360639333724976;0.0;0.0;0.0
1723;-0.04001599922776222;0.07027199864387512;0.9874680042266846;0.0936959981918335;-0.031231999397277832;1.1116639375686646;6.129374980926514;0.9012500047683716;-15.854999542236328
1725;0.0;0.0;0.0;0.0634399950504303;-0.04294399917125702;1.0989760160446167;0.0;0.0;0.0
1727;0.0;0.0;0.0;0.13663999736309052;-0.03903999924659729;1.115567922592163;0.0;0.0;0.0
1729;0.0;0.0;0.0;0.09759999811649323;-0.03903999924659729;1.1311839818954468;0.0;0.0;0.0
1731;-0.01781199872493744;0.08954799920320511;0.9933239817619324;0.10638399422168732;-0.07027199864387512;1.115567922592163;6.059374809265137;-1.4087499380111694;-13.475000381469727
1733;0.0;0.0;0.0;0.10931199789047241;-0.027327999472618103;1.107759952545166;0.0;0.0;0.0
1735;0.0;0.0;0.0;0.10931199789047241;-0.031231999397277832;1.1116639375686646;0.0;0.0;0.0
1738;0.0;0.0;0.0;0.09467199444770813;-0.062463998794555664;1.107759952545166;0.0;0.0;0.0
1740;-0.010003999806940556;0.09223199635744095;0.9828319549560547;0.1327359974384308;-0.058559998869895935;1.0989760160446167;5.149374961853027;-1.8287500143051147;-11.024999618530273
1742;0.0;0.0;0.0;0.12492799758911133;-0.05075199902057648;1.0989760160446167;0.0;0.0;0.0
1744;0.0;0.0;0.0;0.10247999429702759;-0.04684799909591675;1.0794559717178345;0.0;0.0;0.0
1746;0.0;0.0;0.0;0.10931199789047241;-0.04294399917125702;1.0989760160446167;0.0;0.0;0.0
1748;-0.010491999797523022;0.08173999935388565;0.9603840112686157;0.10931199789047241;-0.031231999397277832;1.0745760202407837;3.679375171661377;-0.35874998569488525;-9.694999694824219
1750;0.0;0.0;0.0;0.10540799796581268;-0.0663679987192154;1.0745760202407837;0.0;0.0;0.0
1752;0.0;0.0;0.0;0.10247999429702759;-0.031231999397277832;1.066767930984497;0.0;0.0;0.0
1755;0.0;0.0;0.0;0.10931199789047241;-0.062463998794555664;1.0872639417648315;0.0;0.0;0.0
1757;-0.015371999703347683;0.07539600133895874;0.9415959715843201;0.10540799796581268;-0.08198399841785431;1.066767930984497;2.41937518119812;0.6912499666213989;-9.484999656677246
1759;0.0;0.0;0.0;0.09857599437236786;-0.04684799909591675;1.0501760244369507;0.0;0.0;0.0
1761;0.0;0.0;0.0;0.12590399384498596;-0.062463998794555664;1.0589599609375;0.0;0.0;0.0
1763;0.0;0.0;0.0;0.09467199444770813;-0.07807999849319458;1.0501760244369507;0.0;0.0;0.0
1765;-0.012443999759852886;0.06905199587345123;0.9308599829673767;0.09857599437236786;-0.062463998794555664;1.0745760202407837;1.9993749856948853;1.7412500381469727;-9.904999732971191
1767;0.0;0.0;0.0;0.10540799796581268;-0.08588799834251404;1.0540800094604492;0.0;0.0;0.0
1769;0.0;0.0;0.0;0.08295999467372894;-0.058559998869895935;1.083359956741333;0.0;0.0;0.0
1772;0.0;0.0;0.0;0.1180959939956665;-0.054655998945236206;1.09116792678833;0.0;0.0;0.0
1774;-0.01634800061583519;0.06880799680948257;0.9435479640960693;0.09467199444770813;-0.05075199902057648;1.09116792678833;2.6293749809265137;3.421250104904175;-9.625
1776;0.0;0.0;0.0;0.08686399459838867;-0.0663679987192154;1.09116792678833;0.0;0.0;0.0
1778;0.0;0.0;0.0;0.07515199482440948;-0.0663679987192154;1.1194720268249512;0.0;0.0;0.0
1780;0.0;0.0;0.0;0.05563199892640114;-0.054655998945236206;1.1067839860916138;0.0;0.0;0.0
1782;-0.039772000163793564;0.07783599942922592;0.9830759763717651;0.07515199482440948;-0.0663679987192154;1.1272799968719482;3.9593751430511475;4.541250228881836;-8.295000076293945
1784;0.0;0.0;0.0;0.05953599885106087;-0.07417599856853485;1.1438720226287842;0.0;0.0;0.0
1786;0.0;0.0;0.0;0.05563199892640114;-0.0663679987192154;1.1438720226287842;0.0;0.0;0.0
1789;0.0;0.0;0.0;0.03611199930310249;-0.019519999623298645;1.156559944152832;0.0;0.0;0.0
1791;-0.07124799489974976;0.08979199826717377;1.018455982208252;0.032207999378442764;-0.04684799909591675;1.1477760076522827;5.289374828338623;4.261250019073486;-6.545000076293945
1793;0.0;0.0;0.0;0.032207999378442764;-0.05075199902057648;1.1516799926757812;0.0;0.0;0.0
1795;0.0;0.0;0.0;0.028303999453783035;-0.03903999924659729;1.1604639291763306;0.0;0.0;0.0
1797;0.0;0.0;0.0;0.020495999604463577;-0.07027199864387512;1.1604639291763306;0.0;0.0;0.0
1799;-0.0954039990901947;0.09491600096225739;1.0377320051193237;0.024399999529123306;-0.027327999472618103;1.1516799926757812;5.569375038146973;2.4412500858306885;-5.144999980926514
1801;0.0;0.0;0.0;0.04001599922776222;-0.05075199902057648;1.1721760034561157;0.0;0.0;0.0
1803;0.0;0.0;0.0;0.01268799975514412;-0.04294399917125702;1.1848639249801636;0.0;0.0;0.0
1806;0.0;0.0;0.0;0.03611199930310249;-0.04294399917125702;1.1926720142364502;0.0;0.0;0.0
1808;-0.1000399962067604;0.08906000107526779;1.042367935180664;0.020495999604463577;-0.054655998945236206;1.1477760076522827;4.309374809265137;-0.008750000037252903;-4.304999828338623
1810;0.0;0.0;0.0;0.03611199930310249;-0.04684799909591675;1.1682720184326172;0.0;0.0;0.0
1812;0.0;0.0;0.0;0.020495999604463577;-0.062463998794555664;1.1477760076522827;0.0;0.0;0.0
1814;0.0;0.0;0.0;0.03611199930310249;-0.058559998869895935;1.156559944152832;0.0;0.0;0.0
1816;-0.09759999811649323;0.08100800216197968;1.0330959558486938;0.04001599922776222;-0.0663679987192154;1.1643680334091187;2.6293749809265137;-1.5487499237060547;-4.025000095367432
1818;0.0;0.0;0.0;0.020495999604463577;-0.03513599932193756;1.1604639291763306;0.0;0.0;0.0
1820;0.0;0.0;0.0;0.01659199967980385;-0.07807999849319458;1.1555839776992798;0.0;0.0;0.0
1823;0.0;0.0;0.0;0.01659199967980385;-0.07027199864387512;1.1477760076522827;0.0;0.0;0.0
1825;-0.08564399927854538;0.07417599856853485;1.0230920314788818;0.03611199930310249;-0.07027199864387512;1.1604639291763306;0.9493750333786011;-1.8987499475479126;-4.09499979019165
1827;0.0;0.0;0.0;0.05172799900174141;-0.03903999924659729;1.1604639291763306;0.0;0.0;0.0
1829;0.0;0.0;0.0;0.03611199930310249;-0.07027199864387512;1.1438720226287842;0.0;0.0;0.0
1831;0.0;0.0;0.0;0.04782399907708168;-0.07807999849319458;1.1360639333724976;0.0;0.0;0.0
1833;-0.07807999849319458;0.0697840005159378;1.018455982208252;0.07124799489974976;-0.062463998794555664;1.132159948348999;-0.940625011920929;-2.2487499713897705;-4.234999656677246
1835;0.0;0.0;0.0;0.04782399907708168;-0.062463998794555664;1.1555839776992798;0.0;0.0;0.0
1837;0.0;0.0;0.0;0.05953599885106087;-0.0936959981918335;1.139967918395996;0.0;0.0;0.0
1840;0.0;0.0;0.0;0.04001599922776222;-0.08979199826717377;1.107759952545166;0.0;0.0;0.0
1842;-0.0634399950504303;0.05782799795269966;1.0050359964370728;0.07515199482440948;-0.08588799834251404;1.1311839818954468;-3.1806249618530273;-2.528749942779541;-4.375
1844;0.0;0.0;0.0;0.08295999467372894;-0.09759999811649323;1.132159948348999;0.0;0.0;0.0
1846;0.0;0.0;0.0;0.07905599474906921;-0.10540799796581268;1.115567922592163;0.0;0.0;0.0
1848;0.0;0.0;0.0;0.0634399950504303;-0.08198399841785431;1.0989760160446167;0.0;0.0;0.0
1850;-0.05050799995660782;0.047091998159885406;0.9864919781684875;0.07905599474906921;-0.10150399804115295;1.1233760118484497;-5.000625133514404;-1.8287500143051147;-4.375
1852;0.0;0.0;0.0;0.07905599474906921;-0.07027199864387512;1.1194720268249512;0.0;0.0;0.0
1854;0.0;0.0;0.0;0.07905599474906921;-0.10150399804115295;1.0872639417648315;0.0;0.0;0.0
1857;0.0;0.0;0.0;0.05563199892640114;-0.12883199751377106;1.0872639417648315;0.0;0.0;0.0
1859;-0.045871999114751816;0.038307998329401016;0.9759999513626099;0.07905599474906921;-0.0936959981918335;1.0989760160446167;-5.840625286102295;-0.9187500476837158;-4.025000095367432
1861;0.0;0.0;0.0;0.06734399497509003;-0.10931199789047241;1.107759952545166;0.0;0.0;0.0
1863;0.0;0.0;0.0;0.07905599474906921;-0.10540799796581268;1.0872639417648315;0.0;0.0;0.0
1865;0.0;0.0;0.0;0.08686399459838867;-0.11711999773979187;1.0989760160446167;0.0;0.0;0.0
1867;-0.0453839972615242;0.031231999397277832;0.9769759774208069;0.10247999429702759;-0.09759999811649323;1.1194720268249512;-5.280625343322754;-1.0587499141693115;-2.9050002098083496
1870;0.0;0.0;0.0;0.0907679945230484;-0.12492799758911133;1.1116639375686646;0.0;0.0;0.0
1871;0.0;0.0;0.0;0.07905599474906921;-0.10931199789047241;1.115567922592163;0.0;0.0;0.0
1874;0.0;0.0;0.0;0.07515199482440948;-0.0936959981918335;1.1272799968719482;0.0;0.0;0.0
1876;-0.048555999994277954;0.024399999529123306;0.985759973526001;0.09857599437236786;-0.09759999811649323;1.1311839818954468;-4.020625114440918;-3.4387500286102295;-1.5049999952316284
1878;0.0;0.0;0.0;0.09759999811649323;-0.12492799758911133;1.1194720268249512;0.0;0.0;0.0
1880;0.0;0.0;0.0;0.0907679945230484;-0.12492799758911133;1.1116639375686646;0.0;0.0;0.0
1882;0.0;0.0;0.0;0.08686399459838867;-0.10540799796581268;1.139967918395996;0.0;0.0;0.0
1884;-0.03806399926543236;0.011711999773979187;0.9877119660377502;0.07515199482440948;-0.11711999773979187;1.1116639375686646;-3.1106250286102295;-5.048749923706055;-1.1549999713897705
1887;0.0;0.0;0.0;0.10540799796581268;-0.11321599781513214;1.1028800010681152;0.0;0.0;0.0
1888;0.0;0.0;0.0;0.07124799489974976;-0.10931199789047241;1.1116639375686646;0.0;0.0;0.0
1891;0.0;0.0;0.0;0.09467199444770813;-0.11711999773979187;1.0950720310211182;0.0;0.0;0.0
1893;-0.025619998574256897;0.00634399987757206;0.9833199977874756;0.12883199751377106;-0.14444799721240997;1.132159948348999;-2.4106249809265137;-4.698750019073486;-1.5749999284744263
1895;0.0;0.0;0.0;0.0936959981918335;-0.0936959981918335;1.1028800010681152;0.0;0.0;0.0
1897;0.0;0.0;0.0;0.10931199789047241;-0.10150399804115295;1.0950720310211182;0.0;0.0;0.0
1899;0.0;0.0;0.0;0.09759999811649323;-0.09759999811649323;1.1028800010681152;0.0;0.0;0.0
1901;-0.015859998762607574;0.012443999759852886;0.9777079820632935;0.10540799796581268;-0.10150399804115295;1.1116639375686646;-2.270624876022339;-3.9987499713897705;-2.134999990463257
1904;0.0;0.0;0.0;0.10247999429702759;-0.1327359974384308;1.1028800010681152;0.0;0.0;0.0
1906;0.0;0.0;0.0;0.09759999811649323;-0.11711999773979187;1.0950720310211182;0.0;0.0;0.0
1908;0.0;0.0;0.0;0.08295999467372894;-0.09759999811649323;1.1116639375686646;0.0;0.0;0.0
1910;-0.004879999905824661;0.025619998574256897;0.9869799613952637;0.1327359974384308;-0.08198399841785431;1.107759952545166;-3.1806249618530273;-4.418749809265137;-1.9950000047683716
1912;0.0;0.0;0.0;0.11711999773979187;-0.09759999811649323;1.132159948348999;0.0;0.0;0.0
1914;0.0;0.0;0.0;0.12492799758911133;-0.10150399804115295;1.1194720268249512;0.0;0.0;0.0
1916;0.0;0.0;0.0;0.15225599706172943;-0.08588799834251404;1.1360639333724976;0.0;0.0;0.0
1918;0.010003999806940556;0.034648001194000244;1.0055240392684937;0.1327359974384308;-0.12492799758911133;1.1438720226287842;-5.280625343322754;-5.678750038146973;-0.8750000596046448
1921;0.0;0.0;0.0;0.1327359974384308;-0.10150399804115295;1.1438720226287842;0.0;0.0;0.0
1923;0.0;0.0;0.0;0.14444799721240997;-0.10931199789047241;1.1516799926757812;0.0;0.0;0.0
1925;0.0;0.0;0.0;0.1327359974384308;-0.11321599781513214;1.1438720226287842;0.0;0.0;0.0
1927;0.017079999670386314;0.02513200044631958;1.0196759700775146;0.13663999736309052;-0.11321599781513214;1.1643680334091187;-7.800625324249268;-4.978749752044678;0.3850000202655792
1929;0.0;0.0;0.0;0.11711999773979187;-0.14054399728775024;1.1604639291763306;0.0;0.0;0.0
1931;0.0;0.0;0.0;0.12883199751377106;-0.12883199751377106;1.1438720226287842;0.0;0.0;0.0
1933;0.0;0.0;0.0;0.14054399728775024;-0.1483519971370697;1.1594879627227783;0.0;0.0;0.0
1935;0.010003999806940556;0.0019519999623298645;1.0279719829559326;0.10931199789047241;-0.15615999698638916;1.1682720184326172;-9.970624923706055;-2.458750009536743;0.5249999761581421
1938;0.0;0.0;0.0;0.12883199751377106;-0.1483519971370697;1.1516799926757812;0.0;0.0;0.0
1940;0.0;0.0;0.0;0.12492799758911133;-0.14444799721240997;1.1682720184326172;0.0;0.0;0.0
1942;0.0;0.0;0.0;0.12883199751377106;-0.16787199676036835;1.1604639291763306;0.0;0.0;0.0
1944;0.00317199993878603;-0.021959999576210976;1.0257760286331177;0.12492799758911133;-0.14444799721240997;1.1643680334091187;-11.160624504089355;-0.9887500405311584;0.24500000476837158
1946;0.0;0.0;0.0;0.10638399422168732;-0.1600639969110489;1.1555839776992798;0.0;0.0;0.0
1948;0.0;0.0;0.0;0.11321599781513214;-0.17177599668502808;1.132159948348999;0.0;0.0;0.0
1950;0.0;0.0;0.0;0.1327359974384308;-0.19519999623298645;1.1272799968719482;0.0;0.0;0.0
1952;-0.0004879999905824661;-0.03879600018262863;1.0130879878997803;0.10931199789047241;-0.18348799645900726;1.1272799968719482;-11.090624809265137;-0.8487500548362732;-0.6650000214576721
1955;0.0;0.0;0.0;0.10931199789047241;-0.19129599630832672;1.1360639333724976;0.0;0.0;0.0
1957;0.0;0.0;0.0;0.12883199751377106;-0.16396799683570862;1.132159948348999;0.0;0.0;0.0
1959;0.0;0.0;0.0;0.1600639969110489;-0.16396799683570862;1.09116792678833;0.0;0.0;0.0
1961;0.008539999835193157;-0.05026400089263916;0.9930799603462219;0.10931199789047241;-0.17958399653434753;1.1116639375686646;-9.48062515258789;-0.9187500476837158;-2.205000162124634
1963;0.0;0.0;0.0;0.12492799758911133;-0.2030079960823059;1.1194720268249512;0.0;0.0;0.0
1965;0.0;0.0;0.0;0.1600639969110489;-0.2030079960823059;1.107759952545166;0.0;0.0;0.0
1967;0.0;0.0;0.0;0.15225599706172943;-0.187391996383667;1.1028800010681152;0.0;0.0;0.0
1969;0.025863999500870705;-0.05319199711084366;0.9713639616966248;0.12883199751377106;-0.187391996383667;1.09116792678833;-6.400625228881836;-0.07874999940395355;-3.745000123977661
1972;0.0;0.0;0.0;0.1756799966096878;-0.18348799645900726;1.0745760202407837;0.0;0.0;0.0
1974;0.0;0.0;0.0;0.17958399653434753;-0.17958399653434753;1.09116792678833;0.0;0.0;0.0
1976;0.0;0.0;0.0;0.1483519971370697;-0.18348799645900726;1.1067839860916138;0.0;0.0;0.0
1978;0.044652000069618225;-0.04196799919009209;0.9681919813156128;0.1600639969110489;-0.19129599630832672;1.0706720352172852;-2.200624942779541;0.48125001788139343;-3.0450000762939453
1980;0.0;0.0;0.0;0.17958399653434753;-0.14444799721240997;1.0794559717178345;0.0;0.0;0.0
1982;0.0;0.0;0.0;0.16787199676036835;-0.14054399728775024;1.107759952545166;0.0;0.0;0.0
1984;0.0;0.0;0.0;0.16396799683570862;-0.10540799796581268;1.1272799968719482;0.0;0.0;0.0
1986;0.05050799995660782;-0.01268799975514412;0.9852719902992249;0.18348799645900726;-0.10931199789047241;1.1272799968719482;1.2993749380111694;0.061250001192092896;-0.38499999046325684
1989;0.0;0.0;0.0;0.19910399615764618;-0.1327359974384308;1.1272799968719482;0.0;0.0;0.0
1991;0.0;0.0;0.0;0.19129599630832672;-0.11321599781513214;1.115567922592163;0.0;0.0;0.0
1993;0.0;0.0;0.0;0.19129599630832672;-0.1327359974384308;1.132159948348999;0.0;0.0;0.0
1995;0.06319599598646164;0.010735999792814255;1.006011962890625;0.19910399615764618;-0.11711999773979187;1.1438720226287842;1.859375;0.13124999403953552;2.484999895095825
1997;0.0;0.0;0.0;0.19910399615764618;-0.1210239976644516;1.1438720226287842;0.0;0.0;0.0
1999;0.0;0.0;0.0;0.2147199958562851;-0.14444799721240997;1.1516799926757812;0.0;0.0;0.0
2001;0.0;0.0;0.0;0.1756799966096878;-0.15615999698638916;1.1643680334091187;0.0;0.0;0.0
2003;0.06880799680948257;0.013419999741017818;1.0160160064697266;0.16787199676036835;-0.10931199789047241;1.1477760076522827;-1.0106250047683716;2.9312500953674316;4.65500020980835
2006;0.0;0.0;0.0;0.18348799645900726;-0.15225599706172943;1.132159948348999;0.0;0.0;0.0
2008;0.0;0.0;0.0;0.16787199676036835;-0.13663999736309052;1.1233760118484497;0.0;0.0;0.0
2010;0.0;0.0;0.0;0.16787199676036835;-0.1327359974384308;1.1233760118484497;0.0;0.0;0.0
2012;0.05685199797153473;-0.004879999905824661;1.001863956451416;0.2147199958562851;-0.15225599706172943;1.1233760118484497;-5.070625305175781;7.131249904632568;5.635000228881836
2014;0.0;0.0;0.0;0.15615999698638916;-0.16787199676036835;1.1311839818954468;0.0;0.0;0.0
2016;0.0;0.0;0.0;0.1600639969110489;-0.18348799645900726;1.1272799968719482;0.0;0.0;0.0
2018;0.0;0.0;0.0;0.14054399728775024;-0.19519999623298645;1.1194720268249512;0.0;0.0;0.0
2020;0.030988000333309174;-0.032207999378442764;0.9903959631919861;0.1327359974384308;-0.16787199676036835;1.1116639375686646;-8.640625;10.561249732971191;5.565000057220459
2023;0.0;0.0;0.0;0.1327359974384308;-0.16396799683570862;1.0872639417648315;0.0;0.0;0.0
2025;0.0;0.0;0.0;0.1327359974384308;-0.20691199600696564;1.1028800010681152;0.0;0.0;0.0
2027;0.0;0.0;0.0;0.10931199789047241;-0.18348799645900726;1.0950720310211182;0.0;0.0;0.0
2029;0.004879999905824661;-0.054899998009204865;0.9757559895515442;0.09759999811649323;-0.2030079960823059;1.1116639375686646;-10.950624465942383;12.661250114440918;4.095000267028809
2031;0.0;0.0;0.0;0.10931199789047241;-0.2030079960823059;1.0950720310211182;0.0;0.0;0.0
2033;0.0;0.0;0.0;0.09467199444770813;-0.230335995554924;1.0784800052642822;0.0;0.0;0.0
2035;0.0;0.0;0.0;0.1210239976644516;-0.19129599630832672;1.0872639417648315;0.0;0.0;0.0
2037;-0.01903199963271618;-0.06954000145196915;0.9564799666404724;0.09857599437236786;-0.2147199958562851;1.1028800010681152;-11.5806245803833;14.201250076293945;1.9250000715255737
2040;0.0;0.0;0.0;0.09857599437236786;-0.21081599593162537;1.0745760202407837;0.0;0.0;0.0
2042;0.0;0.0;0.0;0.11711999773979187;-0.2030079960823059;1.0589599609375;0.0;0.0;0.0
2044;0.0;0.0;0.0;0.08295999467372894;-0.22643199563026428;1.0706720352172852;0.0;0.0;0.0
2046;-0.0378200002014637;-0.08003199845552444;0.9359839558601379;0.08295999467372894;-0.21862399578094482;1.0501760244369507;-10.320624351501465;13.921250343322754;-0.45500001311302185
2048;0.0;0.0;0.0;0.08686399459838867;-0.230335995554924;1.0589599609375;0.0;0.0;0.0
2050;0.0;0.0;0.0;0.06734399497509003;-0.2420479953289032;1.0628639459609985;0.0;0.0;0.0
2052;0.0;0.0;0.0;0.05953599885106087;-0.21862399578094482;1.0218719244003296;0.0;0.0;0.0
2054;-0.043431997299194336;-0.0907679945230484;0.9179279804229736;0.07124799489974976;-0.23814399540424347;1.0296800136566162;-7.310625076293945;11.471250534057617;-2.695000171661377
2057;0.0;0.0;0.0;0.11321599781513214;-0.21862399578094482;1.0218719244003296;0.0;0.0;0.0
2059;0.0;0.0;0.0;0.08686399459838867;-0.24985599517822266;1.0462720394134521;0.0;0.0;0.0
2061;0.0;0.0;0.0;0.10540799796581268;-0.21862399578094482;1.0306559801101685;0.0;0.0;0.0
2063;-0.029523998498916626;-0.09882000088691711;0.900115966796875;0.08295999467372894;-0.2147199958562851;1.002351999282837;-2.690624952316284;8.321249961853027;-4.09499979019165
2065;0.0;0.0;0.0;0.09857599437236786;-0.2147199958562851;1.0140639543533325;0.0;0.0;0.0
2067;0.0;0.0;0.0;0.08686399459838867;-0.21081599593162537;1.017967939376831;0.0;0.0;0.0
2069;0.0;0.0;0.0;0.11321599781513214;-0.230335995554924;1.034559965133667;0.0;0.0;0.0
2071;-0.006831999868154526;-0.09516000002622604;0.8937720060348511;0.12883199751377106;-0.230335995554924;1.017967939376831;2.41937518119812;6.151249885559082;-5.214999675750732
2074;0.0;0.0;0.0;0.1327359974384308;-0.22252799570560455;1.034559965133667;0.0;0.0;0.0
2076;0.0;0.0;0.0;0.16396799683570862;-0.20691199600696564;1.0384639501571655;0.0;0.0;0.0
2078;0.0;0.0;0.0;0.17958399653434753;-0.2030079960823059;1.0306559801101685;0.0;0.0;0.0
2080;0.03001200035214424;-0.07368800044059753;0.9088999629020691;0.19129599630832672;-0.19519999623298645;1.034559965133667;6.549375057220459;5.101250171661377;-5.074999809265137
2082;0.0;0.0;0.0;0.14054399728775024;-0.19519999623298645;1.034559965133667;0.0;0.0;0.0
2084;0.0;0.0;0.0;0.18348799645900726;-0.16396799683570862;1.0501760244369507;0.0;0.0;0.0
2086;0.0;0.0;0.0;0.16396799683570862;-0.19519999623298645;1.0540800094604492;0.0;0.0;0.0
2088;0.04391999915242195;-0.05075199902057648;0.925491988658905;0.14444799721240997;-0.19519999623298645;1.0628639459609985;8.229374885559082;5.591249942779541;-3.3950002193450928
2091;0.0;0.0;0.0;0.14444799721240997;-0.15615999698638916;1.0784800052642822;0.0;0.0;0.0
2093;0.0;0.0;0.0;0.16396799683570862;-0.14444799721240997;1.0950720310211182;0.0;0.0;0.0
2095;0.0;0.0;0.0;0.16396799683570862;-0.16396799683570862;1.09116792678833;0.0;0.0;0.0
2097;0.04050400108098984;-0.03001200035214424;0.9608719944953918;0.15225599706172943;-0.1483519971370697;1.1028800010681152;8.999375343322754;7.761250019073486;-1.5049999952316284
2099;0.0;0.0;0.0;0.1483519971370697;-0.17958399653434753;1.1116639375686646;0.0;0.0;0.0
2101;0.0;0.0;0.0;0.1327359974384308;-0.1327359974384308;1.1272799968719482;0.0;0.0;0.0
2103;0.0;0.0;0.0;0.15225599706172943;-0.1600639969110489;1.1038559675216675;0.0;0.0;0.0
2105;0.024399999529123306;-0.021715998649597168;0.9884439706802368;0.10150399804115295;-0.1483519971370697;1.139967918395996;9.139375686645508;12.451250076293945;-0.17499999701976776
2108;0.0;0.0;0.0;0.1210239976644516;-0.12883199751377106;1.1360639333724976;0.0;0.0;0.0
2110;0.0;0.0;0.0;0.09467199444770813;-0.1327359974384308;1.1516799926757812;0.0;0.0;0.0
2112;0.0;0.0;0.0;0.0936959981918335;-0.1600639969110489;1.139967918395996;0.0;0.0;0.0
2114;-0.0058559998869895935;-0.007563999854028225;1.0196759700775146;0.08686399459838867;-0.15225599706172943;1.1516799926757812;8.789375305175781;15.601249694824219;1.5750000476837158
2116;0.0;0.0;0.0;0.06734399497509003;-0.1483519971370697;1.1721760034561157;0.0;0.0;0.0
2118;0.0;0.0;0.0;0.08295999467372894;-0.13663999736309052;1.1604639291763306;0.0;0.0;0.0
2120;0.0;0.0;0.0;0.08295999467372894;-0.1483519971370697;1.156559944152832;0.0;0.0;0.0
2122;-0.04416399821639061;-0.008295999839901924;1.0289479494094849;0.05953599885106087;-0.12883199751377106;1.1721760034561157;7.389374732971191;15.741250038146973;2.7649998664855957
2125;0.0;0.0;0.0;0.06734399497509003;-0.14444799721240997;1.1643680334091187;0.0;0.0;0.0
2127;0.0;0.0;0.0;0.05172799900174141;-0.1483519971370697;1.1360639333724976;0.0;0.0;0.0
2129;0.0;0.0;0.0;0.07124799489974976;-0.1483519971370697;1.1516799926757812;0.0;0.0;0.0
2131;-0.06783200055360794;-0.01903199963271618;1.0233359336853027;0.028303999453783035;-0.1600639969110489;1.132159948348999;5.569375038146973;14.411250114440918;1.9250000715255737
2133;0.0;0.0;0.0;0.05563199892640114;-0.17958399653434753;1.1516799926757812;0.0;0.0;0.0
2135;0.0;0.0;0.0;0.04391999915242195;-0.1756799966096878;1.1682720184326172;0.0;0.0;0.0
2137;0.0;0.0;0.0;0.04782399907708168;-0.16787199676036835;1.139967918395996;0.0;0.0;0.0
2139;-0.06929600238800049;-0.031964000314474106;1.0125999450683594;0.05172799900174141;-0.19129599630832672;1.1360639333724976;3.609375;12.801250457763672;0.03500000014901161
2142;0.0;0.0;0.0;0.04391999915242195;-0.17958399653434753;1.1194720268249512;0.0;0.0;0.0
2144;0.0;0.0;0.0;0.05172799900174141;-0.17177599668502808;1.0989760160446167;0.0;0.0;0.0
2146;0.0;0.0;0.0;0.04782399907708168;-0.17177599668502808;1.115567922592163;0.0;0.0;0.0
2148;-0.0680759996175766;-0.04660400003194809;0.9901520013809204;0.05172799900174141;-0.19519999623298645;1.1116639375686646;2.1393749713897705;12.171250343322754;-2.765000104904175
2150;0.0;0.0;0.0;0.05953599885106087;-0.18348799645900726;1.1272799968719482;0.0;0.0;0.0
2152;0.0;0.0;0.0;0.03611199930310249;-0.15615999698638916;1.1116639375686646;0.0;0.0;0.0
2154;0.0;0.0;0.0;0.028303999453783035;-0.19519999623298645;1.0950720310211182;0.0;0.0;0.0
2156;-0.06954000145196915;-0.05245999991893768;0.9818559885025024;0.032207999378442764;-0.18348799645900726;1.0950720310211182;2.559375047683716;12.03125;-5.494999885559082
2159;0.0;0.0;0.0;0.028303999453783035;-0.1600639969110489;1.1116639375686646;0.0;0.0;0.0
2161;0.0;0.0;0.0;0.024399999529123306;-0.18348799645900726;1.1194720268249512;0.0;0.0;0.0
2163;0.0;0.0;0.0;0.04001599922776222;-0.1600639969110489;1.115567922592163;0.0;0.0;0.0
2165;-0.08222799748182297;-0.038307998329401016;0.9828319549560547;0.004879999905824661;-0.14444799721240997;1.1272799968719482;4.379374980926514;11.611249923706055;-7.875
2167;0.0;0.0;0.0;0.032207999378442764;-0.16787199676036835;1.1194720268249512;0.0;0.0;0.0
2169;0.0;0.0;0.0;0.0009759999811649323;-0.14444799721240997;1.1272799968719482;0.0;0.0;0.0
2171;0.0;0.0;0.0;0.020495999604463577;-0.16396799683570862;1.0989760160446167;0.0;0.0;0.0
2173;-0.1000399962067604;-0.02000799961388111;0.9855159521102905;0.024399999529123306;-0.16787199676036835;1.1233760118484497;5.919374942779541;9.161250114440918;-9.835000038146973
2176;0.0;0.0;0.0;0.028303999453783035;-0.12883199751377106;1.115567922592163;0.0;0.0;0.0
2178;0.0;0.0;0.0;0.004879999905824661;-0.13663999736309052;1.1311839818954468;0.0;0.0;0.0
2180;0.0;0.0;0.0;0.020495999604463577;-0.15615999698638916;1.139967918395996;0.0;0.0;0.0
2182;-0.10028399527072906;-0.0026839999482035637;0.9979599714279175;0.00878399983048439;-0.12883199751377106;1.1272799968719482;7.249374866485596;5.731250286102295;-11.585000038146973
2184;0.0;0.0;0.0;0.032207999378442764;-0.11711999773979187;1.1272799968719482;0.0;0.0;0.0
2186;0.0;0.0;0.0;0.020495999604463577;-0.11321599781513214;1.115567922592163;0.0;0.0;0.0
2188;0.0;0.0;0.0;0.01268799975514412;-0.10540799796581268;1.1116639375686646;0.0;0.0;0.0
2190;-0.1088239997625351;0.01903199963271618;1.0006439685821533;-0.0029279999434947968;-0.1210239976644516;1.1438720226287842;8.50937557220459;2.3012499809265137;-12.914999961853027
2193;0.0;0.0;0.0;0.028303999453783035;-0.10150399804115295;1.1438720226287842;0.0;0.0;0.0
2195;0.0;0.0;0.0;0.004879999905824661;-0.10150399804115295;1.1272799968719482;0.0;0.0;0.0
2197;0.0;0.0;0.0;0.020495999604463577;-0.08198399841785431;1.1233760118484497;0.0;0.0;0.0
2199;-0.11541199684143066;0.03245199844241142;1.0072319507598877;0.028303999453783035;-0.07807999849319458;1.1438720226287842;9.34937572479248;-0.008750000037252903;-15.225000381469727
2201;0.0;0.0;0.0;0.00878399983048439;-0.10150399804115295;1.1516799926757812;0.0;0.0;0.0
2203;0.0;0.0;0.0;-0.0029279999434947968;-0.08198399841785431;1.139967918395996;0.0;0.0;0.0
2205;0.0;0.0;0.0;-0.0029279999434947968;-0.10150399804115295;1.1477760076522827;0.0;0.0;0.0
2207;-0.10394399613142014;0.038307998329401016;1.0160160064697266;0.020495999604463577;-0.08588799834251404;1.1799839735031128;9.769375801086426;-2.1087498664855957;-16.625
2210;0.0;0.0;0.0;0.01268799975514412;-0.07807999849319458;1.1516799926757812;0.0;0.0;0.0
2212;0.0;0.0;0.0;0.03611199930310249;-0.0936959981918335;1.1477760076522827;0.0;0.0;0.0
2214;0.0;0.0;0.0;0.03611199930310249;-0.0936959981918335;1.139967918395996;0.0;0.0;0.0
2216;-0.0861319974064827;0.04660400003194809;1.0228480100631714;0.05172799900174141;-0.07807999849319458;1.1311839818954468;9.839375495910645;-3.788749933242798;-17.184999465942383
2218;0.0;0.0;0.0;0.05172799900174141;-0.08588799834251404;1.1516799926757812;0.0;0.0;0.0
2220;0.0;0.0;0.0;0.04391999915242195;-0.08588799834251404;1.1555839776992798;0.0;0.0;0.0
2222;0.0;0.0;0.0;0.04001599922776222;-0.10150399804115295;1.132159948348999;0.0;0.0;0.0
2224;-0.07027199864387512;0.048555999994277954;1.0167479515075684;0.05953599885106087;-0.08198399841785431;1.1555839776992798;8.439374923706055;-3.8587498664855957;-17.53499984741211
2227;0.0;0.0;0.0;0.04001599922776222;-0.07417599856853485;1.1360639333724976;0.0;0.0;0.0
2229;0.0;0.0;0.0;0.08686399459838867;-0.0936959981918335;1.139967918395996;0.0;0.0;0.0
2231;0.0;0.0;0.0;0.0634399950504303;-0.08198399841785431;1.1311839818954468;0.0;0.0;0.0
2233;-0.05953599885106087;0.052216000854969025;1.0147960186004639;0.06734399497509003;-0.08198399841785431;1.1194720268249512;5.499374866485596;-2.2487499713897705;-18.024999618530273
2235;0.0;0.0;0.0;0.09467199444770813;-0.08198399841785431;1.1516799926757812;0.0;0.0;0.0
2237;0.0;0.0;0.0;0.07124799489974976;-0.08198399841785431;1.1311839818954468;0.0;0.0;0.0
2239;0.0;0.0;0.0;0.07905599474906921;-0.07417599856853485;1.1360639333724976;0.0;0.0;0.0
2242;-0.05148399993777275;0.05441199988126755;1.0089399814605713;0.08686399459838867;-0.08198399841785431;1.139967918395996;1.6493749618530273;-0.4987500011920929;-18.094999313354492
2244;0.0;0.0;0.0;0.08686399459838867;-0.10150399804115295;1.1233760118484497;0.0;0.0;0.0
2246;0.0;0.0;0.0;0.05953599885106087;-0.07417599856853485;1.1311839818954468;0.0;0.0;0.0
2248;0.0;0.0;0.0;0.04391999915242195;-0.08588799834251404;1.132159948348999;0.0;0.0;0.0
2250;-0.047091998159885406;0.04879999905824661;0.994055986404419;0.08686399459838867;-0.09759999811649323;1.1233760118484497;-1.8506250381469727;1.81125009059906;-17.53499984741211
2252;0.0;0.0;0.0;0.10247999429702759;-0.07417599856853485;1.1028800010681152;0.0;0.0;0.0
2254;0.0;0.0;0.0;0.06734399497509003;-0.09759999811649323;1.0989760160446167;0.0;0.0;0.0
2256;0.0;0.0;0.0;0.05563199892640114;-0.08588799834251404;1.0989760160446167;0.0;0.0;0.0
2258;-0.05148399993777275;0.04367600008845329;0.97843998670578;0.07905599474906921;-0.08198399841785431;1.115567922592163;-3.250624895095825;4.471250057220459;-16.764999389648438
2261;0.0;0.0;0.0;0.0634399950504303;-0.0936959981918335;1.0950720310211182;0.0;0.0;0.0
2263;0.0;0.0;0.0;0.04782399907708168;-0.07417599856853485;1.066767930984497;0.0;0.0;0.0
2265;0.0;0.0;0.0;0.04391999915242195;-0.09759999811649323;1.09116792678833;0.0;0.0;0.0
2267;-0.06075599789619446;0.03294000029563904;0.9650200009346008;0.04782399907708168;-0.11321599781513214;1.0872639417648315;-3.1106250286102295;5.941249847412109;-15.925000190734863
2269;0.0;0.0;0.0;0.05172799900174141;-0.11321599781513214;1.09116792678833;0.0;0.0;0.0
2271;0.0;0.0;0.0;0.05953599885106087;-0.12883199751377106;1.0794559717178345;0.0;0.0;0.0
2273;0.0;0.0;0.0;0.05563199892640114;-0.10931199789047241;1.0794559717178345;0.0;0.0;0.0
2275;-0.06929600238800049;0.02000799961388111;0.9525759816169739;0.04782399907708168;-0.11321599781513214;1.083359956741333;-1.5006250143051147;5.661250114440918;-15.225000381469727
2278;0.0;0.0;0.0;0.04782399907708168;-0.11711999773979187;1.083359956741333;0.0;0.0;0.0
2280;0.0;0.0;0.0;0.01268799975514412;-0.14444799721240997;1.0745760202407837;0.0;0.0;0.0
2282;0.0;0.0;0.0;0.01659199967980385;-0.14054399728775024;1.0745760202407837;0.0;0.0;0.0
2284;-0.08003199845552444;0.004879999905824661;0.9484279751777649;0.04782399907708168;-0.13663999736309052;1.0745760202407837;0.7393749952316284;3.5612499713897705;-14.664999961853027
2286;0.0;0.0;0.0;0.05563199892640114;-0.1483519971370697;1.0706720352172852;0.0;0.0;0.0
2288;0.0;0.0;0.0;0.028303999453783035;-0.15225599706172943;1.0589599609375;0.0;0.0;0.0
2290;0.0;0.0;0.0;0.028303999453783035;-0.17177599668502808;1.0628639459609985;0.0;0.0;0.0
2292;-0.08881600201129913;-0.010491999797523022;0.9464759826660156;0.024399999529123306;-0.14054399728775024;1.0706720352172852;2.6993751525878906;1.1112500429153442;-14.734999656677246
2295;0.0;0.0;0.0;0.032207999378442764;-0.1483519971370697;1.0745760202407837;0.0;0.0;0.0
2297;0.0;0.0;0.0;0.04782399907708168;-0.13663999736309052;1.0989760160446167;0.0;0.0;0.0
2299;0.0;0.0;0.0;0.028303999453783035;-0.12492799758911133;1.0989760160446167;0.0;0.0;0.0
2301;-0.09198799729347229;-0.01659199967980385;0.9591639637947083;0.032207999378442764;-0.1327359974384308;1.1067839860916138;4.659374713897705;-1.5487499237060547;-15.364999771118164
2303;0.0;0.0;0.0;0.028303999453783035;-0.14444799721240997;1.0989760160446167;0.0;0.0;0.0
2305;0.0;0.0;0.0;0.028303999453783035;-0.13663999736309052;1.1233760118484497;0.0;0.0;0.0
2307;0.0;0.0;0.0;0.05172799900174141;-0.15225599706172943;1.1272799968719482;0.0;0.0;0.0
2309;-0.08808399736881256;-0.004879999905824661;0.9794159531593323;0.05953599885106087;-0.12883199751377106;1.1272799968719482;6.409374713897705;-4.698750019073486;-15.364999771118164
2312;0.0;0.0;0.0;0.024399999529123306;-0.1327359974384308;1.1233760118484497;0.0;0.0;0.0
2314;0.0;0.0;0.0;0.04782399907708168;-0.1327359974384308;1.1438720226287842;0.0;0.0;0.0
2316;0.0;0.0;0.0;0.04001599922776222;-0.11321599781513214;1.1272799968719482;0.0;0.0;0.0
2318;-0.08295999467372894;0.012199999764561653;1.0016199350357056;0.028303999453783035;-0.10150399804115295;1.1438720226287842;6.619374752044678;-7.638750076293945;-15.085000038146973
2320;0.0;0.0;0.0;0.0634399950504303;-0.12492799758911133;1.1360639333724976;0.0;0.0;0.0
2322;0.0;0.0;0.0;0.07905599474906921;-0.11711999773979187;1.156559944152832;0.0;0.0;0.0
2324;0.0;0.0;0.0;0.04782399907708168;-0.10540799796581268;1.1516799926757812;0.0;0.0;0.0
2327;-0.0710039958357811;0.013907999731600285;1.0135760307312012;0.04391999915242195;-0.13663999736309052;1.1233760118484497;4.589375019073486;-8.96875;-15.644999504089355
2329;0.0;0.0;0.0;0.04782399907708168;-0.12492799758911133;1.1438720226287842;0.0;0.0;0.0
2331;0.0;0.0;0.0;0.05172799900174141;-0.15615999698638916;1.1272799968719482;0.0;0.0;0.0
2333;0.0;0.0;0.0;0.0634399950504303;-0.11711999773979187;1.1438720226287842;0.0;0.0;0.0
2335;-0.05904799699783325;0.010003999806940556;1.0140639543533325;0.07515199482440948;-0.12492799758911133;1.132159948348999;1.57937490940094;-7.708749771118164;-17.325000762939453
2337;0.0;0.0;0.0;0.04001599922776222;-0.15615999698638916;1.1116639375686646;0.0;0.0;0.0
2339;0.0;0.0;0.0;0.05953599885106087;-0.12883199751377106;1.139967918395996;0.0;0.0;0.0
2341;0.0;0.0;0.0;0.06734399497509003;-0.12492799758911133;1.1272799968719482;0.0;0.0;0.0
2344;-0.046115998178720474;-0.0004879999905824661;0.9982039928436279;0.0936959981918335;-0.15225599706172943;1.107759952545166;-1.6406251192092896;-4.558750152587891;-19.4950008392334
2346;0.0;0.0;0.0;0.09759999811649323;-0.16787199676036835;1.1028800010681152;0.0;0.0;0.0
2348;0.0;0.0;0.0;0.07515199482440948;-0.14444799721240997;1.107759952545166;0.0;0.0;0.0
2350;0.0;0.0;0.0;0.0907679945230484;-0.15225599706172943;1.107759952545166;0.0;0.0;0.0
2352;-0.03611199930310249;-0.010735999792814255;0.9794159531593323;0.07905599474906921;-0.12883199751377106;1.0989760160446167;-3.6706249713897705;-0.6387500166893005;-21.174999237060547
2354;0.0;0.0;0.0;0.10540799796581268;-0.13663999736309052;1.107759952545166;0.0;0.0;0.0
2356;0.0;0.0;0.0;0.0907679945230484;-0.12492799758911133;1.09116792678833;0.0;0.0;0.0
2358;0.0;0.0;0.0;0.0907679945230484;-0.1327359974384308;1.0872639417648315;0.0;0.0;0.0
2361;-0.03537999838590622;-0.01439599972218275;0.9640439748764038;0.0634399950504303;-0.1756799966096878;1.083359956741333;-3.6706249713897705;2.3712501525878906;-22.295000076293945
2363;0.0;0.0;0.0;0.10540799796581268;-0.1327359974384308;1.0745760202407837;0.0;0.0;0.0
2365;0.0;0.0;0.0;0.07124799489974976;-0.1483519971370697;1.0872639417648315;0.0;0.0;0.0
2367;0.0;0.0;0.0;0.06734399497509003;-0.14444799721240997;1.107759952545166;0.0;0.0;0.0
2369;-0.04123599827289581;-0.014639999717473984;0.9635559916496277;0.07905599474906921;-0.1483519971370697;1.0784800052642822;-1.5006250143051147;3.981250047683716;-22.575000762939453
2371;0.0;0.0;0.0;0.07124799489974976;-0.1210239976644516;1.0989760160446167;0.0;0.0;0.0
2373;0.0;0.0;0.0;0.08295999467372894;-0.1483519971370697;1.083359956741333;0.0;0.0;0.0
