Timestamp(ms);LG-Accel x(g);LG-Accel y(g);LG-Accel z(g);HG-Accel x(g);HG-Accel y(g);HG-Accel z(g);Gyro x(dps);Gyro y(dps);Gyro z(dps)
54;0.0;0.0;0.0;0.18836799263954163;-0.18934398889541626;1.0892159938812256;0.0;0.0;0.0
57;0.0;0.0;0.0;0.1727519929409027;-0.18544000387191772;1.0687199831008911;0.0;0.0;0.0
59;0.0;0.0;0.0;0.2000799924135208;-0.17372798919677734;1.0804319381713867;0.0;0.0;0.0
61;0.0;0.0;0.0;0.1844639927148819;-0.2088640034198761;1.0765279531478882;0.0;0.0;0.0
63;0.0;0.0;0.0;0.16884799301624298;-0.18544000387191772;1.0804319381713867;0.0;0.0;0.0
65;0.0;0.0;0.0;0.17177599668502808;-0.18348799645900726;1.09116792678833;0.0;0.0;0.0
67;0.0;0.0;0.0;0.19910399615764618;-0.16396799683570862;1.0950720310211182;0.0;0.0;0.0
69;0.0;0.0;0.0;0.17958399653434753;-0.16396799683570862;1.0784800052642822;0.0;0.0;0.0
71;0.0710039958357811;-0.04684799909591675;0.9472079873085022;0.187391996383667;-0.1600639969110489;1.0872639417648315;0.0;0.0;0.0
74;0.0;0.0;0.0;0.19910399615764618;-0.17177599668502808;1.09116792678833;0.0;0.0;0.0
76;0.0;0.0;0.0;0.20691199600696564;-0.16396799683570862;1.0745760202407837;0.0;0.0;0.0
78;0.0;0.0;0.0;0.19129599630832672;-0.1756799966096878;1.0589599609375;0.0;0.0;0.0
80;0.0634399950504303;-0.04684799909591675;0.9462319612503052;0.19129599630832672;-0.17958399653434753;1.0794559717178345;0.0;0.0;0.0
82;0.0;0.0;0.0;0.17958399653434753;-0.18348799645900726;1.083359956741333;0.0;0.0;0.0
84;0.0;0.0;0.0;0.20691199600696564;-0.1483519971370697;1.0950720310211182;0.0;0.0;0.0
86;0.0;0.0;0.0;0.21862399578094482;-0.15225599706172943;1.0872639417648315;0.0;0.0;0.0
88;0.07490799576044083;-0.03879600018262863;0.9559919834136963;0.19519999623298645;-0.16396799683570862;1.1028800010681152;0.0;0.0;0.0
91;0.0;0.0;0.0;0.21862399578094482;-0.1756799966096878;1.107759952545166;0.0;0.0;0.0
93;0.0;0.0;0.0;0.2147199958562851;-0.15615999698638916;1.107759952545166;0.0;0.0;0.0
95;0.0;0.0;0.0;0.230335995554924;-0.15225599706172943;1.1194720268249512;0.0;0.0;0.0
97;0.08979199826717377;-0.01756799966096878;0.9850279688835144;0.21081599593162537;-0.13663999736309052;1.139967918395996;0.0;0.0;0.0
99;0.0;0.0;0.0;0.2030079960823059;-0.14054399728775024;1.1311839818954468;0.0;0.0;0.0
101;0.0;0.0;0.0;0.19519999623298645;-0.1600639969110489;1.1604639291763306;0.0;0.0;0.0
103;0.0;0.0;0.0;0.19129599630832672;-0.13663999736309052;1.139967918395996;0.0;0.0;0.0
105;0.07954400032758713;-0.005123999901115894;1.014307975769043;0.187391996383667;-0.14444799721240997;1.1477760076522827;0.0;0.0;0.0
108;0.0;0.0;0.0;0.15225599706172943;-0.13663999736309052;1.1604639291763306;0.0;0.0;0.0
110;0.0;0.0;0.0;0.1600639969110489;-0.12492799758911133;1.1604639291763306;0.0;0.0;0.0
112;0.0;0.0;0.0;0.16787199676036835;-0.13663999736309052;1.1604639291763306;0.0;0.0;0.0
114;0.053679998964071274;-0.0026839999482035637;1.035048007965088;0.1600639969110489;-0.11711999773979187;1.180959939956665;3.8324999809265137;3.486875057220459;4.042500019073486
116;0.0;0.0;0.0;0.15225599706172943;-0.13663999736309052;1.1682720184326172;0.0;0.0;0.0
118;0.0;0.0;0.0;0.16396799683570862;-0.15225599706172943;1.1848639249801636;0.0;0.0;0.0
120;0.0;0.0;0.0;0.15225599706172943;-0.13663999736309052;1.1760799884796143;0.0;0.0;0.0
122;0.0424560010433197;-0.007319999858736992;1.040903925895691;0.17177599668502808;-0.14444799721240997;1.1760799884796143;1.9424999952316284;1.5968750715255737;5.582499980926514
125;0.0;0.0;0.0;0.16396799683570862;-0.14054399728775024;1.1643680334091187;0.0;0.0;0.0
127;0.0;0.0;0.0;0.19519999623298645;-0.1483519971370697;1.1643680334091187;0.0;0.0;0.0
129;0.0;0.0;0.0;0.17177599668502808;-0.15225599706172943;1.1477760076522827;0.0;0.0;0.0
131;0.05953599885106087;-0.018543999642133713;1.0274839401245117;0.19519999623298645;-0.16396799683570862;1.1477760076522827;-0.017500000074505806;0.2668749988079071;6.772500038146973
133;0.0;0.0;0.0;0.18348799645900726;-0.1600639969110489;1.1555839776992798;0.0;0.0;0.0
135;0.0;0.0;0.0;0.17177599668502808;-0.1756799966096878;1.1555839776992798;0.0;0.0;0.0
137;0.0;0.0;0.0;0.18348799645900726;-0.15225599706172943;1.1516799926757812;0.0;0.0;0.0
139;0.06539200246334076;-0.030743999406695366;1.0208959579467773;0.17958399653434753;-0.21081599593162537;1.139967918395996;-1.4875000715255737;1.3168751001358032;7.682499885559082
142;0.0;0.0;0.0;0.19129599630832672;-0.19519999623298645;1.1516799926757812;0.0;0.0;0.0
144;0.0;0.0;0.0;0.17958399653434753;-0.19129599630832672;1.1360639333724976;0.0;0.0;0.0
146;0.0;0.0;0.0;0.17177599668502808;-0.19129599630832672;1.115567922592163;0.0;0.0;0.0
148;0.05538799986243248;-0.048555999994277954;1.009671926498413;0.17177599668502808;-0.21081599593162537;1.132159948348999;-2.3274998664855957;4.046875;7.052500247955322
150;0.0;0.0;0.0;0.15615999698638916;-0.19519999623298645;1.1272799968719482;0.0;0.0;0.0
152;0.0;0.0;0.0;0.16396799683570862;-0.17958399653434753;1.115567922592163;0.0;0.0;0.0
154;0.0;0.0;0.0;0.1327359974384308;-0.2030079960823059;1.1360639333724976;0.0;0.0;0.0
156;0.0378200002014637;-0.06319599598646164;0.9972279667854309;0.15615999698638916;-0.18348799645900726;1.1311839818954468;-1.7675000429153442;6.286875247955322;6.142499923706055
159;0.0;0.0;0.0;0.1600639969110489;-0.20691199600696564;1.1233760118484497;0.0;0.0;0.0
161;0.0;0.0;0.0;0.1327359974384308;-0.21081599593162537;1.115567922592163;0.0;0.0;0.0
163;0.0;0.0;0.0;0.1483519971370697;-0.20691199600696564;1.1194720268249512;0.0;0.0;0.0
165;0.03269600123167038;-0.06831999868154526;0.9879559874534607;0.15615999698638916;-0.19910399615764618;1.09116792678833;0.12250000238418579;7.406875133514404;5.162499904632568
167;0.0;0.0;0.0;0.1483519971370697;-0.21081599593162537;1.1028800010681152;0.0;0.0;0.0
169;0.0;0.0;0.0;0.12883199751377106;-0.19519999623298645;1.0784800052642822;0.0;0.0;0.0
171;0.0;0.0;0.0;0.1600639969110489;-0.2147199958562851;1.0950720310211182;0.0;0.0;0.0
173;0.02513200044631958;-0.0663679987192154;0.9686799645423889;0.12883199751377106;-0.19910399615764618;1.09116792678833;2.432500123977661;8.80687427520752;4.042500019073486
176;0.0;0.0;0.0;0.14444799721240997;-0.17958399653434753;1.1028800010681152;0.0;0.0;0.0
178;0.0;0.0;0.0;0.09857599437236786;-0.16787199676036835;1.0989760160446167;0.0;0.0;0.0
180;0.0;0.0;0.0;0.12492799758911133;-0.1756799966096878;1.1028800010681152;0.0;0.0;0.0
182;0.011223999783396721;-0.05782799795269966;0.9708759784698486;0.10931199789047241;-0.16787199676036835;1.0989760160446167;5.512500286102295;8.176874160766602;2.9225001335144043
184;0.0;0.0;0.0;0.1210239976644516;-0.187391996383667;1.0989760160446167;0.0;0.0;0.0
186;0.0;0.0;0.0;0.14444799721240997;-0.1600639969110489;1.115567922592163;0.0;0.0;0.0
188;0.0;0.0;0.0;0.1210239976644516;-0.1483519971370697;1.0989760160446167;0.0;0.0;0.0
191;0.0012199999764561653;-0.03415999934077263;0.9767319560050964;0.13663999736309052;-0.1600639969110489;1.1194720268249512;7.542500019073486;6.426875114440918;1.9424999952316284
193;0.0;0.0;0.0;0.15615999698638916;-0.15615999698638916;1.115567922592163;0.0;0.0;0.0
195;0.0;0.0;0.0;0.1483519971370697;-0.14054399728775024;1.1360639333724976;0.0;0.0;0.0
197;0.0;0.0;0.0;0.1210239976644516;-0.14054399728775024;1.1272799968719482;0.0;0.0;0.0
199;0.013663999736309052;-0.013663999736309052;1.002351999282837;0.1600639969110489;-0.1327359974384308;1.115567922592163;8.242500305175781;3.626875162124634;1.5924999713897705
201;0.0;0.0;0.0;0.12883199751377106;-0.1483519971370697;1.139967918395996;0.0;0.0;0.0
203;0.0;0.0;0.0;0.12883199751377106;-0.13663999736309052;1.1194720268249512;0.0;0.0;0.0
205;0.0;0.0;0.0;0.1327359974384308;-0.11711999773979187;1.1477760076522827;0.0;0.0;0.0
208;0.010247999802231789;0.003415999934077263;1.0077199935913086;0.11711999773979187;-0.10931199789047241;1.1477760076522827;7.332499980926514;3.0668749809265137;1.522499918937683
210;0.0;0.0;0.0;0.1210239976644516;-0.11321599781513214;1.1438720226287842;0.0;0.0;0.0
212;0.0;0.0;0.0;0.10931199789047241;-0.10931199789047241;1.1311839818954468;0.0;0.0;0.0
214;0.0;0.0;0.0;0.11419199407100677;-0.0936959981918335;1.1516799926757812;0.0;0.0;0.0
216;-0.0029279999434947968;0.014151999726891518;1.0213840007781982;0.1327359974384308;-0.1327359974384308;1.1438720226287842;6.282500267028809;2.366875171661377;0.9625000357627869
218;0.0;0.0;0.0;0.12883199751377106;-0.1327359974384308;1.1438720226287842;0.0;0.0;0.0
220;0.0;0.0;0.0;0.12883199751377106;-0.10540799796581268;1.1438720226287842;0.0;0.0;0.0
222;0.0;0.0;0.0;0.1327359974384308;-0.13663999736309052;1.132159948348999;0.0;0.0;0.0
225;-0.006099999882280827;0.01512799970805645;1.0213840007781982;0.1327359974384308;-0.12492799758911133;1.1233760118484497;3.62250018119812;1.4568750858306885;0.1925000101327896
227;0.0;0.0;0.0;0.1210239976644516;-0.11711999773979187;1.132159948348999;0.0;0.0;0.0
229;0.0;0.0;0.0;0.11711999773979187;-0.11321599781513214;1.132159948348999;0.0;0.0;0.0
231;0.0;0.0;0.0;0.1327359974384308;-0.12883199751377106;1.1516799926757812;0.0;0.0;0.0
233;-0.0021959999576210976;0.013419999741017818;1.0040600299835205;0.11321599781513214;-0.1210239976644516;1.1194720268249512;0.26249998807907104;2.0868749618530273;-1.4875000715255737
235;0.0;0.0;0.0;0.11419199407100677;-0.11321599781513214;1.1233760118484497;0.0;0.0;0.0
237;0.0;0.0;0.0;0.11711999773979187;-0.14054399728775024;1.1116639375686646;0.0;0.0;0.0
239;0.0;0.0;0.0;0.11321599781513214;-0.13663999736309052;1.09116792678833;0.0;0.0;0.0
242;-0.0021959999576210976;0.004391999915242195;0.9791719913482666;0.10540799796581268;-0.1210239976644516;1.0872639417648315;-2.5374999046325684;4.606874942779541;-3.867499828338623
244;0.0;0.0;0.0;0.09857599437236786;-0.11711999773979187;1.0794559717178345;0.0;0.0;0.0
246;0.0;0.0;0.0;0.1210239976644516;-0.12883199751377106;1.1116639375686646;0.0;0.0;0.0
248;0.0;0.0;0.0;0.10540799796581268;-0.1327359974384308;1.066767930984497;0.0;0.0;0.0
250;-0.007807999849319458;-0.0021959999576210976;0.9608719944953918;0.11711999773979187;-0.17177599668502808;1.0872639417648315;-3.5174999237060547;5.656875133514404;-5.6875
252;0.0;0.0;0.0;0.10150399804115295;-0.14054399728775024;1.0501760244369507;0.0;0.0;0.0
254;0.0;0.0;0.0;0.11711999773979187;-0.1210239976644516;1.0872639417648315;0.0;0.0;0.0
256;0.0;0.0;0.0;0.1210239976644516;-0.15615999698638916;1.0872639417648315;0.0;0.0;0.0
259;-0.004879999905824661;-0.010003999806940556;0.9452559947967529;0.11419199407100677;-0.1483519971370697;1.0745760202407837;-2.677500009536743;2.996875047683716;-6.037499904632568
261;0.0;0.0;0.0;0.15225599706172943;-0.16396799683570862;1.0589599609375;0.0;0.0;0.0
263;0.0;0.0;0.0;0.11321599781513214;-0.15225599706172943;1.066767930984497;0.0;0.0;0.0
265;0.0;0.0;0.0;0.12492799758911133;-0.15225599706172943;1.0706720352172852;0.0;0.0;0.0
267;0.008051999844610691;-0.009759999811649323;0.9420839548110962;0.15615999698638916;-0.1483519971370697;1.0784800052642822;-1.0674999952316284;0.546875;-5.827499866485596
269;0.0;0.0;0.0;0.15225599706172943;-0.14444799721240997;1.0706720352172852;0.0;0.0;0.0
271;0.0;0.0;0.0;0.14054399728775024;-0.1483519971370697;1.0794559717178345;0.0;0.0;0.0
273;0.0;0.0;0.0;0.14444799721240997;-0.14054399728775024;1.09116792678833;0.0;0.0;0.0
276;0.01756799966096878;-0.01512799970805645;0.9596520066261292;0.11711999773979187;-0.187391996383667;1.0784800052642822;0.7524999976158142;0.33687499165534973;-6.037499904632568
278;0.0;0.0;0.0;0.14444799721240997;-0.14054399728775024;1.1194720268249512;0.0;0.0;0.0
280;0.0;0.0;0.0;0.14444799721240997;-0.16396799683570862;1.1194720268249512;0.0;0.0;0.0
282;0.0;0.0;0.0;0.15615999698638916;-0.17958399653434753;1.0989760160446167;0.0;0.0;0.0
284;0.02000799961388111;-0.024887999519705772;0.9740479588508606;0.15225599706172943;-0.17177599668502808;1.09116792678833;2.3625001907348633;0.05687499791383743;-5.757500171661377
286;0.0;0.0;0.0;0.1600639969110489;-0.15615999698638916;1.1116639375686646;0.0;0.0;0.0
288;0.0;0.0;0.0;0.1210239976644516;-0.17958399653434753;1.107759952545166;0.0;0.0;0.0
290;0.0;0.0;0.0;0.1483519971370697;-0.1756799966096878;1.09116792678833;0.0;0.0;0.0
293;0.02635199949145317;-0.028060000389814377;0.9757559895515442;0.1210239976644516;-0.1600639969110489;1.0950720310211182;3.2725000381469727;-0.013125000521540642;-5.337500095367432
295;0.0;0.0;0.0;0.1600639969110489;-0.12883199751377106;1.0989760160446167;0.0;0.0;0.0
297;0.0;0.0;0.0;0.1600639969110489;-0.17177599668502808;1.107759952545166;0.0;0.0;0.0
299;0.0;0.0;0.0;0.15615999698638916;-0.14054399728775024;1.1067839860916138;0.0;0.0;0.0
301;0.04270000010728836;-0.01781199872493744;0.977463960647583;0.15615999698638916;-0.14444799721240997;1.1028800010681152;3.4125001430511475;0.40687501430511475;-4.497499942779541
303;0.0;0.0;0.0;0.15615999698638916;-0.1483519971370697;1.1116639375686646;0.0;0.0;0.0
305;0.0;0.0;0.0;0.17958399653434753;-0.14444799721240997;1.1272799968719482;0.0;0.0;0.0
307;0.0;0.0;0.0;0.20691199600696564;-0.12492799758911133;1.107759952545166;0.0;0.0;0.0
310;0.06197600066661835;-0.004635999910533428;0.9799039959907532;0.18348799645900726;-0.15225599706172943;1.1233760118484497;3.2725000381469727;1.386875033378601;-3.237499952316284
312;0.0;0.0;0.0;0.20691199600696564;-0.13663999736309052;1.107759952545166;0.0;0.0;0.0
314;0.0;0.0;0.0;0.2147199958562851;-0.15615999698638916;1.107759952545166;0.0;0.0;0.0
316;0.0;0.0;0.0;0.20691199600696564;-0.1327359974384308;1.132159948348999;0.0;0.0;0.0
318;0.07637199759483337;-0.005123999901115894;0.9862479567527771;0.19519999623298645;-0.1600639969110489;1.1272799968719482;2.572499990463257;3.0668749809265137;-1.8375000953674316
320;0.0;0.0;0.0;0.21862399578094482;-0.11321599781513214;1.1067839860916138;0.0;0.0;0.0
322;0.0;0.0;0.0;0.19129599630832672;-0.14054399728775024;1.1028800010681152;0.0;0.0;0.0
325;0.0;0.0;0.0;0.18348799645900726;-0.12883199751377106;1.0950720310211182;0.0;0.0;0.0
327;0.07490799576044083;-0.008539999835193157;0.9906399846076965;0.19910399615764618;-0.1600639969110489;1.115567922592163;0.8225000500679016;5.516875267028809;-0.5774999856948853
329;0.0;0.0;0.0;0.1756799966096878;-0.14444799721240997;1.0950720310211182;0.0;0.0;0.0
331;0.0;0.0;0.0;0.18348799645900726;-0.15615999698638916;1.0950720310211182;0.0;0.0;0.0
333;0.0;0.0;0.0;0.1756799966096878;-0.14444799721240997;1.1194720268249512;0.0;0.0;0.0
335;0.05441199988126755;-0.00878399983048439;0.97843998670578;0.1483519971370697;-0.15225599706172943;1.115567922592163;-0.4375000298023224;8.316874504089355;-0.6474999785423279
337;0.0;0.0;0.0;0.15615999698638916;-0.1210239976644516;1.0950720310211182;0.0;0.0;0.0
339;0.0;0.0;0.0;0.17177599668502808;-0.1483519971370697;1.107759952545166;0.0;0.0;0.0
341;0.0;0.0;0.0;0.17177599668502808;-0.17177599668502808;1.0989760160446167;0.0;0.0;0.0
344;0.04440800100564957;-0.012443999759852886;0.982587993144989;0.17177599668502808;-0.14054399728775024;1.115567922592163;-0.4375000298023224;8.246874809265137;-0.1574999988079071
346;0.0;0.0;0.0;0.15615999698638916;-0.12883199751377106;1.1028800010681152;0.0;0.0;0.0
348;0.0;0.0;0.0;0.15615999698638916;-0.15225599706172943;1.083359956741333;0.0;0.0;0.0
350;0.0;0.0;0.0;0.1327359974384308;-0.12883199751377106;1.1028800010681152;0.0;0.0;0.0
352;0.029523998498916626;-0.014639999717473984;0.9738039970397949;0.11028799414634705;-0.1483519971370697;1.09116792678833;0.7524999976158142;8.316874504089355;0.7524999976158142
354;0.0;0.0;0.0;0.16787199676036835;-0.1600639969110489;1.115567922592163;0.0;0.0;0.0
356;0.0;0.0;0.0;0.11711999773979187;-0.14444799721240997;1.115567922592163;0.0;0.0;0.0
359;0.0;0.0;0.0;0.14054399728775024;-0.15615999698638916;1.0989760160446167;0.0;0.0;0.0
361;0.01268799975514412;-0.010491999797523022;0.9901520013809204;0.1210239976644516;-0.14054399728775024;1.1194720268249512;3.762500047683716;6.286875247955322;1.7324999570846558
363;0.0;0.0;0.0;0.11321599781513214;-0.14054399728775024;1.0989760160446167;0.0;0.0;0.0
365;0.0;0.0;0.0;0.10540799796581268;-0.12883199751377106;1.1272799968719482;0.0;0.0;0.0
367;0.0;0.0;0.0;0.10150399804115295;-0.1210239976644516;1.1438720226287842;0.0;0.0;0.0
369;-0.008539999835193157;0.0024399999529123306;0.9969840049743652;0.10540799796581268;-0.11711999773979187;1.1477760076522827;6.142499923706055;4.32687520980835;2.3625001907348633
371;0.0;0.0;0.0;0.11711999773979187;-0.15615999698638916;1.1360639333724976;0.0;0.0;0.0
373;0.0;0.0;0.0;0.10931199789047241;-0.1210239976644516;1.132159948348999;0.0;0.0;0.0
376;0.0;0.0;0.0;0.10638399422168732;-0.11711999773979187;1.1604639291763306;0.0;0.0;0.0
378;-0.009027999825775623;0.005123999901115894;1.0067440271377563;0.11711999773979187;-0.12883199751377106;1.132159948348999;7.612500190734863;1.736875057220459;2.012500047683716
380;0.0;0.0;0.0;0.15225599706172943;-0.15225599706172943;1.139967918395996;0.0;0.0;0.0
382;0.0;0.0;0.0;0.13663999736309052;-0.12883199751377106;1.1477760076522827;0.0;0.0;0.0
384;0.0;0.0;0.0;0.1327359974384308;-0.12492799758911133;1.1233760118484497;0.0;0.0;0.0
386;0.0056119998916983604;0.003659999929368496;1.0072319507598877;0.14444799721240997;-0.14054399728775024;1.1360639333724976;8.032500267028809;0.6868749856948853;1.4524999856948853
388;0.0;0.0;0.0;0.12883199751377106;-0.12883199751377106;1.139967918395996;0.0;0.0;0.0
390;0.0;0.0;0.0;0.1210239976644516;-0.12492799758911133;1.139967918395996;0.0;0.0;0.0
393;0.0;0.0;0.0;0.13663999736309052;-0.14444799721240997;1.1477760076522827;0.0;0.0;0.0
395;0.012443999759852886;0.0014639999717473984;1.0094280242919922;0.1483519971370697;-0.14054399728775024;1.1360639333724976;7.682499885559082;1.736875057220459;0.6825000047683716
397;0.0;0.0;0.0;0.11711999773979187;-0.13663999736309052;1.1516799926757812;0.0;0.0;0.0
399;0.0;0.0;0.0;0.15615999698638916;-0.14054399728775024;1.1360639333724976;0.0;0.0;0.0
401;0.0;0.0;0.0;0.14054399728775024;-0.1327359974384308;1.1360639333724976;0.0;0.0;0.0
403;0.010003999806940556;-0.00024399999529123306;1.0113799571990967;0.13663999736309052;-0.12492799758911133;1.1516799926757812;6.84250020980835;2.996875047683716;-0.1574999988079071
406;0.0;0.0;0.0;0.13663999736309052;-0.17177599668502808;1.1555839776992798;0.0;0.0;0.0
407;0.0;0.0;0.0;0.14054399728775024;-0.18348799645900726;1.1028800010681152;0.0;0.0;0.0
410;0.0;0.0;0.0;0.11711999773979187;-0.12492799758911133;1.139967918395996;0.0;0.0;0.0
412;0.004635999910533428;-0.010247999802231789;1.0084519386291504;0.12492799758911133;-0.12883199751377106;1.1272799968719482;5.302500247955322;3.6968750953674316;-1.0674999952316284
414;0.0;0.0;0.0;0.12883199751377106;-0.16787199676036835;1.1477760076522827;0.0;0.0;0.0
416;0.0;0.0;0.0;0.13663999736309052;-0.1327359974384308;1.1272799968719482;0.0;0.0;0.0
418;0.0;0.0;0.0;0.10150399804115295;-0.14054399728775024;1.1194720268249512;0.0;0.0;0.0
420;-0.006587999872863293;-0.009027999825775623;1.0021079778671265;0.10150399804115295;-0.12883199751377106;1.115567922592163;4.042500019073486;4.676875114440918;-2.817499876022339
422;0.0;0.0;0.0;0.10931199789047241;-0.1600639969110489;1.1272799968719482;0.0;0.0;0.0
424;0.0;0.0;0.0;0.07905599474906921;-0.1327359974384308;1.139967918395996;0.0;0.0;0.0
427;0.0;0.0;0.0;0.10150399804115295;-0.1210239976644516;1.1233760118484497;0.0;0.0;0.0
429;-0.032207999378442764;-0.0021959999576210976;0.9972279667854309;0.0907679945230484;-0.1327359974384308;1.1233760118484497;3.4825000762939453;5.726875305175781;-5.897500038146973
431;0.0;0.0;0.0;0.07515199482440948;-0.12883199751377106;1.1272799968719482;0.0;0.0;0.0
433;0.0;0.0;0.0;0.08295999467372894;-0.13663999736309052;1.1477760076522827;0.0;0.0;0.0
435;0.0;0.0;0.0;0.08295999467372894;-0.1210239976644516;1.132159948348999;0.0;0.0;0.0
437;-0.04660400003194809;0.007807999849319458;1.0033279657363892;0.09467199444770813;-0.10540799796581268;1.1272799968719482;3.552500009536743;4.746875286102295;-8.34749984741211
439;0.0;0.0;0.0;0.09857599437236786;-0.1210239976644516;1.1272799968719482;0.0;0.0;0.0
441;0.0;0.0;0.0;0.08686399459838867;-0.13663999736309052;1.139967918395996;0.0;0.0;0.0
444;0.0;0.0;0.0;0.10931199789047241;-0.0936959981918335;1.1360639333724976;0.0;0.0;0.0
446;-0.0378200002014637;0.020739998668432236;1.0094280242919922;0.06734399497509003;-0.10150399804115295;1.139967918395996;3.552500009536743;2.0868749618530273;-9.537500381469727
448;0.0;0.0;0.0;0.08686399459838867;-0.12883199751377106;1.1194720268249512;0.0;0.0;0.0
450;0.0;0.0;0.0;0.10931199789047241;-0.09759999811649323;1.156559944152832;0.0;0.0;0.0
452;0.0;0.0;0.0;0.12883199751377106;-0.11321599781513214;1.139967918395996;0.0;0.0;0.0
454;-0.009271999821066856;0.03147599846124649;1.012112021446228;0.1327359974384308;-0.1210239976644516;1.1438720226287842;2.8525002002716064;-0.08312500268220901;-10.237500190734863
456;0.0;0.0;0.0;0.13371199369430542;-0.08198399841785431;1.1760799884796143;0.0;0.0;0.0
458;0.0;0.0;0.0;0.1483519971370697;-0.08979199826717377;1.139967918395996;0.0;0.0;0.0
461;0.0;0.0;0.0;0.1483519971370697;-0.08588799834251404;1.1643680334091187;0.0;0.0;0.0
463;0.02635199949145317;0.03928399831056595;1.0211399793624878;0.15615999698638916;-0.062463998794555664;1.156559944152832;0.6825000047683716;0.12687499821186066;-10.02750015258789
465;0.0;0.0;0.0;0.1483519971370697;-0.10150399804115295;1.1477760076522827;0.0;0.0;0.0
467;0.0;0.0;0.0;0.17177599668502808;-0.10931199789047241;1.139967918395996;0.0;0.0;0.0
469;0.0;0.0;0.0;0.15615999698638916;-0.07807999849319458;1.1604639291763306;0.0;0.0;0.0
471;0.03952799737453461;0.04440800100564957;1.0157719850540161;0.17177599668502808;-0.11321599781513214;1.1516799926757812;-1.6975001096725464;2.5068750381469727;-8.907500267028809
473;0.0;0.0;0.0;0.1600639969110489;-0.09759999811649323;1.1360639333724976;0.0;0.0;0.0
475;0.0;0.0;0.0;0.16396799683570862;-0.10150399804115295;1.1194720268249512;0.0;0.0;0.0
478;0.0;0.0;0.0;0.14054399728775024;-0.08979199826717377;1.09116792678833;0.0;0.0;0.0
480;0.03684400022029877;0.039772000163793564;0.9960079789161682;0.16396799683570862;-0.12883199751377106;1.132159948348999;-3.447499990463257;3.9068751335144043;-7.297500133514404
482;0.0;0.0;0.0;0.1600639969110489;-0.1210239976644516;1.09116792678833;0.0;0.0;0.0
484;0.0;0.0;0.0;0.16396799683570862;-0.12492799758911133;1.107759952545166;0.0;0.0;0.0
486;0.0;0.0;0.0;0.1483519971370697;-0.08979199826717377;1.0989760160446167;0.0;0.0;0.0
488;0.02781599946320057;0.02903600037097931;0.9794159531593323;0.1600639969110489;-0.10931199789047241;1.0950720310211182;-4.427499771118164;4.116875171661377;-5.6875
490;0.0;0.0;0.0;0.1483519971370697;-0.10150399804115295;1.066767930984497;0.0;0.0;0.0
492;0.0;0.0;0.0;0.13663999736309052;-0.13663999736309052;1.066767930984497;0.0;0.0;0.0
495;0.0;0.0;0.0;0.14054399728775024;-0.10540799796581268;1.083359956741333;0.0;0.0;0.0
497;0.015371999703347683;0.01439599972218275;0.95306396484375;0.11321599781513214;-0.12883199751377106;1.0550559759140015;-4.357500076293945;4.816874980926514;-4.497499942779541
499;0.0;0.0;0.0;0.11711999773979187;-0.10540799796581268;1.083359956741333;0.0;0.0;0.0
501;0.0;0.0;0.0;0.12883199751377106;-0.12492799758911133;1.066767930984497;0.0;0.0;0.0
503;0.0;0.0;0.0;0.10931199789047241;-0.15615999698638916;1.0462720394134521;0.0;0.0;0.0
505;-0.005367999896407127;0.006831999868154526;0.9406200051307678;0.10247999429702759;-0.1327359974384308;1.0706720352172852;-2.4674999713897705;4.746875286102295;-4.287499904632568
507;0.0;0.0;0.0;0.1210239976644516;-0.15615999698638916;1.042367935180664;0.0;0.0;0.0
509;0.0;0.0;0.0;0.10540799796581268;-0.12492799758911133;1.0745760202407837;0.0;0.0;0.0
512;0.0;0.0;0.0;0.09467199444770813;-0.17177599668502808;1.0989760160446167;0.0;0.0;0.0
514;-0.018055999651551247;-0.0056119998916983604;0.9484279751777649;0.08686399459838867;-0.11321599781513214;1.09116792678833;0.6825000047683716;3.8368749618530273;-5.057499885559082
516;0.0;0.0;0.0;0.10540799796581268;-0.1600639969110489;1.0950720310211182;0.0;0.0;0.0
518;0.0;0.0;0.0;0.11028799414634705;-0.12883199751377106;1.0989760160446167;0.0;0.0;0.0
520;0.0;0.0;0.0;0.10150399804115295;-0.1327359974384308;1.0589599609375;0.0;0.0;0.0
522;-0.01903199963271618;-0.003659999929368496;0.9637999534606934;0.10247999429702759;-0.12492799758911133;1.1028800010681152;3.3425002098083496;1.8068751096725464;-5.6875
525;0.0;0.0;0.0;0.07905599474906921;-0.0936959981918335;1.115567922592163;0.0;0.0;0.0
526;0.0;0.0;0.0;0.11419199407100677;-0.14054399728775024;1.1028800010681152;0.0;0.0;0.0
529;0.0;0.0;0.0;0.14054399728775024;-0.12883199751377106;1.1233760118484497;0.0;0.0;0.0
531;-0.01903199963271618;0.004635999910533428;0.9821000099182129;0.09467199444770813;-0.13663999736309052;1.139967918395996;5.302500247955322;0.7568749785423279;-6.737500190734863
533;0.0;0.0;0.0;0.11711999773979187;-0.14054399728775024;1.1477760076522827;0.0;0.0;0.0
535;0.0;0.0;0.0;0.09857599437236786;-0.11711999773979187;1.1272799968719482;0.0;0.0;0.0
537;0.0;0.0;0.0;0.10931199789047241;-0.12883199751377106;1.1233760118484497;0.0;0.0;0.0
539;-0.021715998649597168;0.013175999745726585;1.0013760328292847;0.07905599474906921;-0.10931199789047241;1.156559944152832;6.072500228881836;0.2668749988079071;-7.927499771118164
541;0.0;0.0;0.0;0.10638399422168732;-0.09759999811649323;1.115567922592163;0.0;0.0;0.0
543;0.0;0.0;0.0;0.1210239976644516;-0.09759999811649323;1.139967918395996;0.0;0.0;0.0
546;0.0;0.0;0.0;0.09467199444770813;-0.11711999773979187;1.1272799968719482;0.0;0.0;0.0
548;-0.02635199949145317;0.02903600037097931;1.009671926498413;0.09467199444770813;-0.08979199826717377;1.1360639333724976;5.372499942779541;0.546875;-9.467499732971191
550;0.0;0.0;0.0;0.07905599474906921;-0.09759999811649323;1.1477760076522827;0.0;0.0;0.0
552;0.0;0.0;0.0;0.10540799796581268;-0.09759999811649323;1.1604639291763306;0.0;0.0;0.0
554;0.0;0.0;0.0;0.09467199444770813;-0.062463998794555664;1.1516799926757812;0.0;0.0;0.0
556;-0.013663999736309052;0.04758000001311302;1.0155279636383057;0.1327359974384308;-0.07807999849319458;1.1555839776992798;3.132500171661377;1.176875114440918;-11.007499694824219
559;0.0;0.0;0.0;0.12883199751377106;-0.0936959981918335;1.1516799926757812;0.0;0.0;0.0
561;0.0;0.0;0.0;0.11711999773979187;-0.07807999849319458;1.1516799926757812;0.0;0.0;0.0
563;0.0;0.0;0.0;0.14054399728775024;-0.07027199864387512;1.156559944152832;0.0;0.0;0.0
565;0.004391999915242195;0.05270399898290634;1.0223599672317505;0.13663999736309052;-0.08979199826717377;1.139967918395996;-0.4375000298023224;2.5768749713897705;-11.77750015258789
567;0.0;0.0;0.0;0.13663999736309052;-0.08588799834251404;1.1233760118484497;0.0;0.0;0.0
569;0.0;0.0;0.0;0.14444799721240997;-0.10540799796581268;1.1516799926757812;0.0;0.0;0.0
571;0.0;0.0;0.0;0.1327359974384308;-0.07417599856853485;1.1477760076522827;0.0;0.0;0.0
573;0.006831999868154526;0.044895999133586884;1.0147960186004639;0.10540799796581268;-0.08979199826717377;1.1272799968719482;-2.817499876022339;4.186874866485596;-11.357500076293945
576;0.0;0.0;0.0;0.10931199789047241;-0.08979199826717377;1.1360639333724976;0.0;0.0;0.0
577;0.0;0.0;0.0;0.10931199789047241;-0.08198399841785431;1.1604639291763306;0.0;0.0;0.0
580;0.0;0.0;0.0;0.11711999773979187;-0.0936959981918335;1.1272799968719482;0.0;0.0;0.0
582;-0.0019519999623298645;0.0348920002579689;1.0025960206985474;0.10931199789047241;-0.09759999811649323;1.1360639333724976;-3.377500057220459;3.9068751335144043;-10.447500228881836
584;0.0;0.0;0.0;0.10931199789047241;-0.09759999811649323;1.132159948348999;0.0;0.0;0.0
586;0.0;0.0;0.0;0.10931199789047241;-0.10150399804115295;1.1028800010681152;0.0;0.0;0.0
588;0.0;0.0;0.0;0.09857599437236786;-0.12883199751377106;1.1028800010681152;0.0;0.0;0.0
590;-0.004391999915242195;0.024643998593091965;0.9811239838600159;0.12883199751377106;-0.11711999773979187;1.107759952545166;-3.377500057220459;2.926875114440918;-9.537500381469727
593;0.0;0.0;0.0;0.10931199789047241;-0.13663999736309052;1.1028800010681152;0.0;0.0;0.0
595;0.0;0.0;0.0;0.12492799758911133;-0.10150399804115295;1.1038559675216675;0.0;0.0;0.0
597;0.0;0.0;0.0;0.1210239976644516;-0.1327359974384308;1.1028800010681152;0.0;0.0;0.0
599;-0.005123999901115894;0.018300000578165054;0.9701439738273621;0.10540799796581268;-0.1210239976644516;1.1028800010681152;-2.257499933242798;2.436875104904175;-9.397500038146973
601;0.0;0.0;0.0;0.1327359974384308;-0.10540799796581268;1.09116792678833;0.0;0.0;0.0
603;0.0;0.0;0.0;0.1210239976644516;-0.10540799796581268;1.1116639375686646;0.0;0.0;0.0
605;0.0;0.0;0.0;0.12883199751377106;-0.11711999773979187;1.0989760160446167;0.0;0.0;0.0
607;0.004879999905824661;0.017324000597000122;0.974291980266571;0.12492799758911133;-0.11321599781513214;1.107759952545166;-1.0674999952316284;2.786875009536743;-9.327500343322754
610;0.0;0.0;0.0;0.12492799758911133;-0.11321599781513214;1.115567922592163;0.0;0.0;0.0
612;0.0;0.0;0.0;0.10150399804115295;-0.12883199751377106;1.1116639375686646;0.0;0.0;0.0
614;0.0;0.0;0.0;0.12883199751377106;-0.11321599781513214;1.1233760118484497;0.0;0.0;0.0
616;0.010979999788105488;0.017079999670386314;0.986735999584198;0.14444799721240997;-0.11711999773979187;1.132159948348999;0.26249998807907104;3.2068750858306885;-8.907500267028809
618;0.0;0.0;0.0;0.14054399728775024;-0.12883199751377106;1.139967918395996;0.0;0.0;0.0
620;0.0;0.0;0.0;0.11321599781513214;-0.1210239976644516;1.132159948348999;0.0;0.0;0.0
622;0.0;0.0;0.0;0.11321599781513214;-0.08588799834251404;1.1311839818954468;0.0;0.0;0.0
624;0.00634399987757206;0.01903199963271618;1.001863956451416;0.14054399728775024;-0.10931199789047241;1.1360639333724976;1.5924999713897705;2.786875009536743;-7.787499904632568
627;0.0;0.0;0.0;0.1210239976644516;-0.10931199789047241;1.1360639333724976;0.0;0.0;0.0
629;0.0;0.0;0.0;0.11711999773979187;-0.1327359974384308;1.1360639333724976;0.0;0.0;0.0
631;0.0;0.0;0.0;0.08295999467372894;-0.10540799796581268;1.1233760118484497;0.0;0.0;0.0
633;-0.0029279999434947968;0.023667998611927032;1.0074759721755981;0.11321599781513214;-0.10150399804115295;1.1194720268249512;1.7324999570846558;2.226875066757202;-6.737500190734863
635;0.0;0.0;0.0;0.09467199444770813;-0.11321599781513214;1.1194720268249512;0.0;0.0;0.0
637;0.0;0.0;0.0;0.08979199826717377;-0.11711999773979187;1.1272799968719482;0.0;0.0;0.0
639;0.0;0.0;0.0;0.10150399804115295;-0.10540799796581268;1.09116792678833;0.0;0.0;0.0
641;-0.027327999472618103;0.02391199953854084;0.985759973526001;0.0634399950504303;-0.11321599781513214;1.1028800010681152;1.2424999475479126;3.2068750858306885;-7.577499866485596
644;0.0;0.0;0.0;0.08295999467372894;-0.10150399804115295;1.0989760160446167;0.0;0.0;0.0
646;0.0;0.0;0.0;0.07905599474906921;-0.11711999773979187;1.107759952545166;0.0;0.0;0.0
648;0.0;0.0;0.0;0.04782399907708168;-0.11711999773979187;1.115567922592163;0.0;0.0;0.0
650;-0.05050799995660782;0.02635199949145317;0.9799039959907532;0.06734399497509003;-0.0936959981918335;1.115567922592163;1.2424999475479126;2.996875047683716;-9.467499732971191
652;0.0;0.0;0.0;0.08295999467372894;-0.1210239976644516;1.0872639417648315;0.0;0.0;0.0
654;0.0;0.0;0.0;0.05563199892640114;-0.10150399804115295;1.0872639417648315;0.0;0.0;0.0
656;0.0;0.0;0.0;0.07515199482440948;-0.09759999811649323;1.0872639417648315;0.0;0.0;0.0
658;-0.06441599875688553;0.031964000314474106;0.9677039980888367;0.05563199892640114;-0.0936959981918335;1.0950720310211182;0.26249998807907104;2.296875;-11.707499504089355
661;0.0;0.0;0.0;0.09467199444770813;-0.10931199789047241;1.1028800010681152;0.0;0.0;0.0
663;0.0;0.0;0.0;0.05172799900174141;-0.10931199789047241;1.115567922592163;0.0;0.0;0.0
665;0.0;0.0;0.0;0.07905599474906921;-0.08588799834251404;1.0989760160446167;0.0;0.0;0.0
667;-0.058803997933864594;0.03513599932193756;0.9789279699325562;0.07124799489974976;-0.08979199826717377;1.1116639375686646;0.05250000208616257;0.6168749928474426;-14.297499656677246
669;0.0;0.0;0.0;0.07905599474906921;-0.07807999849319458;1.1194720268249512;0.0;0.0;0.0
671;0.0;0.0;0.0;0.07905599474906921;-0.08979199826717377;1.132159948348999;0.0;0.0;0.0
673;0.0;0.0;0.0;0.10931199789047241;-0.11711999773979187;1.1233760118484497;0.0;0.0;0.0
675;-0.03562399744987488;0.03367199748754501;0.9972279667854309;0.11321599781513214;-0.08979199826717377;1.1272799968719482;-0.017500000074505806;-1.0631248950958252;-15.487500190734863
678;0.0;0.0;0.0;0.08295999467372894;-0.09759999811649323;1.139967918395996;0.0;0.0;0.0
680;0.0;0.0;0.0;0.10540799796581268;-0.12492799758911133;1.1272799968719482;0.0;0.0;0.0
682;0.0;0.0;0.0;0.09857599437236786;-0.10931199789047241;1.139967918395996;0.0;0.0;0.0
684;-0.019763998687267303;0.026839999482035637;1.014307975769043;0.09857599437236786;-0.10931199789047241;1.1438720226287842;0.12250000238418579;-2.463124990463257;-15.137499809265137
686;0.0;0.0;0.0;0.11321599781513214;-0.08588799834251404;1.1477760076522827;0.0;0.0;0.0
688;0.0;0.0;0.0;0.09857599437236786;-0.11321599781513214;1.1272799968719482;0.0;0.0;0.0
690;0.0;0.0;0.0;0.13663999736309052;-0.10150399804115295;1.139967918395996;0.0;0.0;0.0
692;-0.009759999811649323;0.020739998668432236;1.0160160064697266;0.1210239976644516;-0.12492799758911133;1.132159948348999;-0.08749999850988388;-2.883125066757202;-15.067500114440918
695;0.0;0.0;0.0;0.0936959981918335;-0.08881600201129913;1.148751974105835;0.0;0.0;0.0
697;0.0;0.0;0.0;0.13176000118255615;-0.10833600163459778;1.1370400190353394;0.0;0.0;0.0
699;0.0;0.0;0.0;0.0936959981918335;-0.13176000118255615;1.1526559591293335;0.0;0.0;0.0
701;0.0021959999576210976;0.01878799870610237;1.0084519386291504;0.14737600088119507;-0.11614400148391724;1.132159948348999;-1.3475000858306885;-1.9731249809265137;-15.417499542236328
703;0.0;0.0;0.0;0.12785600125789642;-0.1239520013332367;1.1448479890823364;0.0;0.0;0.0
705;0.0;0.0;0.0;0.1395680010318756;-0.13176000118255615;1.1126400232315063;0.0;0.0;0.0
707;0.0;0.0;0.0;0.13566400110721588;-0.11614400148391724;1.1165440082550049;0.0;0.0;0.0
709;0.012199999764561653;0.01878799870610237;0.994055986404419;0.13566400110721588;-0.1239520013332367;1.124351978302002;-2.9574999809265137;0.546875;-15.977499961853027
712;0.0;0.0;0.0;0.12492799758911133;-0.09759999811649323;1.1233760118484497;0.0;0.0;0.0
714;0.0;0.0;0.0;0.14054399728775024;-0.12492799758911133;1.1116639375686646;0.0;0.0;0.0
716;0.0;0.0;0.0;0.14444799721240997;-0.10931199789047241;1.1194720268249512;0.0;0.0;0.0
718;0.011711999773979187;0.01903199963271618;0.9818559885025024;0.12883199751377106;-0.12492799758911133;1.1116639375686646;-4.147500038146973;3.626875162124634;-16.607500076293945
720;0.0;0.0;0.0;0.14444799721240997;-0.11321599781513214;1.1038559675216675;0.0;0.0;0.0
722;0.0;0.0;0.0;0.1327359974384308;-0.10540799796581268;1.1116639375686646;0.0;0.0;0.0
724;0.0;0.0;0.0;0.1210239976644516;-0.10931199789047241;1.115567922592163;0.0;0.0;0.0
726;0.01195599976927042;0.017079999670386314;0.9786840081214905;0.14444799721240997;-0.12492799758911133;1.1116639375686646;-4.287499904632568;4.536875247955322;-16.537500381469727
729;0.0;0.0;0.0;0.13176000118255615;-0.12004800140857697;1.1282559633255005;0.0;0.0;0.0
731;0.0;0.0;0.0;0.13176000118255615;-0.16299200057983398;1.1165440082550049;0.0;0.0;0.0
733;0.0;0.0;0.0;0.13566400110721588;-0.10833600163459778;1.1526559591293335;0.0;0.0;0.0
735;0.018543999642133713;0.012199999764561653;0.9877119660377502;0.1395680010318756;-0.11224000155925751;1.1165440082550049;-3.237499952316284;3.2768750190734863;-15.137499809265137
737;0.0;0.0;0.0;0.13176000118255615;-0.09272000193595886;1.1126400232315063;0.0;0.0;0.0
739;0.0;0.0;0.0;0.1239520013332367;-0.10833600163459778;1.1282559633255005;0.0;0.0;0.0
741;0.0;0.0;0.0;0.1239520013332367;-0.10052800178527832;1.1038559675216675;0.0;0.0;0.0
743;0.010003999806940556;0.016835998743772507;0.9864919781684875;0.11614400148391724;-0.10052800178527832;1.1282559633255005;-2.117499828338623;2.996875047683716;-13.59749984741211
746;0.0;0.0;0.0;0.1210239976644516;-0.11321599781513214;1.1233760118484497;0.0;0.0;0.0
748;0.0;0.0;0.0;0.10540799796581268;-0.11711999773979187;1.1116639375686646;0.0;0.0;0.0
750;0.0;0.0;0.0;0.09857599437236786;-0.0936959981918335;1.1272799968719482;0.0;0.0;0.0
752;-0.019763998687267303;0.01903199963271618;0.9906399846076965;0.11711999773979187;-0.1210239976644516;1.0950720310211182;0.05250000208616257;2.436875104904175;-13.2475004196167
754;0.0;0.0;0.0;0.07905599474906921;-0.12883199751377106;1.1233760118484497;0.0;0.0;0.0
756;0.0;0.0;0.0;0.05953599885106087;-0.14054399728775024;1.1116639375686646;0.0;0.0;0.0
758;0.0;0.0;0.0;0.09467199444770813;-0.11711999773979187;1.1028800010681152;0.0;0.0;0.0
760;-0.029523998498916626;0.019519999623298645;0.9869799613952637;0.07905599474906921;-0.10540799796581268;1.115567922592163;1.522499918937683;0.2668749988079071;-13.52750015258789
763;0.0;0.0;0.0;0.08198399841785431;-0.12004800140857697;1.124351978302002;0.0;0.0;0.0
765;0.0;0.0;0.0;0.10540799796581268;-0.11224000155925751;1.099951982498169;0.0;0.0;0.0
767;0.0;0.0;0.0;0.10931199789047241;-0.10443200170993805;1.1204479932785034;0.0;0.0;0.0
769;-0.023180000483989716;0.01903199963271618;0.9823439717292786;0.0936959981918335;-0.14737600088119507;1.1087360382080078;2.0824999809265137;-0.503125011920929;-14.087499618530273
771;0.0;0.0;0.0;0.11224000155925751;-0.10833600163459778;1.1126400232315063;0.0;0.0;0.0
773;0.0;0.0;0.0;0.09759999811649323;-0.11224000155925751;1.124351978302002;0.0;0.0;0.0
775;0.0;0.0;0.0;0.10931199789047241;-0.10052800178527832;1.1331360340118408;0.0;0.0;0.0
777;-0.018543999642133713;0.022935999557375908;0.9874680042266846;0.12492799758911133;-0.12004800140857697;1.1282559633255005;2.1525001525878906;-0.08312500268220901;-14.647500038146973
780;0.0;0.0;0.0;0.10638399422168732;-0.10150399804115295;1.139967918395996;0.0;0.0;0.0
782;0.0;0.0;0.0;0.11321599781513214;-0.08588799834251404;1.1360639333724976;0.0;0.0;0.0
784;0.0;0.0;0.0;0.10540799796581268;-0.08979199826717377;1.139967918395996;0.0;0.0;0.0
786;-0.010003999806940556;0.03440399840474129;1.0052800178527832;0.1327359974384308;-0.10540799796581268;1.132159948348999;1.9424999952316284;-0.5731250047683716;-14.577500343322754
788;0.0;0.0;0.0;0.10931199789047241;-0.07417599856853485;1.115567922592163;0.0;0.0;0.0
790;0.0;0.0;0.0;0.1210239976644516;-0.08979199826717377;1.132159948348999;0.0;0.0;0.0
792;0.0;0.0;0.0;0.12492799758911133;-0.1210239976644516;1.139967918395996;0.0;0.0;0.0
794;-0.007563999854028225;0.02757199853658676;1.0094280242919922;0.11419199407100677;-0.11321599781513214;1.1360639333724976;1.03249990940094;-1.6931250095367432;-14.017499923706055
797;0.0;0.0;0.0;0.10150399804115295;-0.12883199751377106;1.1360639333724976;0.0;0.0;0.0
799;0.0;0.0;0.0;0.0634399950504303;-0.10931199789047241;1.1477760076522827;0.0;0.0;0.0
801;0.0;0.0;0.0;0.1210239976644516;-0.11321599781513214;1.1194720268249512;0.0;0.0;0.0
803;-0.02513200044631958;0.008051999844610691;1.0084519386291504;0.12883199751377106;-0.13663999736309052;1.1360639333724976;-1.277500033378601;-3.653125047683716;-13.8774995803833
805;0.0;0.0;0.0;0.1210239976644516;-0.11321599781513214;1.139967918395996;0.0;0.0;0.0
807;0.0;0.0;0.0;0.13663999736309052;-0.11321599781513214;1.132159948348999;0.0;0.0;0.0
809;0.0;0.0;0.0;0.16787199676036835;-0.11321599781513214;1.1116639375686646;0.0;0.0;0.0
811;0.023423999547958374;0.024399999529123306;1.00381600856781;0.13663999736309052;-0.09759999811649323;1.1194720268249512;-3.447499990463257;-3.0931248664855957;-14.787500381469727
814;0.0;0.0;0.0;0.16396799683570862;-0.0936959981918335;1.1272799968719482;0.0;0.0;0.0
816;0.0;0.0;0.0;0.1600639969110489;-0.10931199789047241;1.1360639333724976;0.0;0.0;0.0
818;0.0;0.0;0.0;0.16787199676036835;-0.10150399804115295;1.0950720310211182;0.0;0.0;0.0
820;0.040748000144958496;0.03440399840474129;0.9886879920959473;0.1483519971370697;-0.08979199826717377;1.1272799968719482;-5.477499961853027;3.556874990463257;-15.767499923706055
822;0.0;0.0;0.0;0.12492799758911133;-0.08588799834251404;1.1272799968719482;0.0;0.0;0.0
824;0.0;0.0;0.0;0.15615999698638916;-0.14054399728775024;1.107759952545166;0.0;0.0;0.0
826;0.0;0.0;0.0;0.10931199789047241;-0.11711999773979187;1.09116792678833;0.0;0.0;0.0
828;0.016835998743772507;0.024399999529123306;0.9845399856567383;0.11711999773979187;-0.11711999773979187;1.1067839860916138;-5.897500038146973;6.426875114440918;-15.697500228881836
831;0.0;0.0;0.0;0.14054399728775024;-0.12883199751377106;1.1272799968719482;0.0;0.0;0.0
833;0.0;0.0;0.0;0.12883199751377106;-0.10540799796581268;1.0989760160446167;0.0;0.0;0.0
835;0.0;0.0;0.0;0.10247999429702759;-0.12883199751377106;1.1116639375686646;0.0;0.0;0.0
837;-0.0029279999434947968;0.01903199963271618;0.9645319581031799;0.09857599437236786;-0.12492799758911133;1.0989760160446167;-4.847499847412109;5.726875305175781;-14.4375
839;0.0;0.0;0.0;0.12492799758911133;-0.0936959981918335;1.0872639417648315;0.0;0.0;0.0
841;0.0;0.0;0.0;0.12883199751377106;-0.10150399804115295;1.0950720310211182;0.0;0.0;0.0
843;0.0;0.0;0.0;0.11711999773979187;-0.10931199789047241;1.0794559717178345;0.0;0.0;0.0
845;-0.012931999750435352;0.021715998649597168;0.9606279730796814;0.10540799796581268;-0.10931199789047241;1.0784800052642822;-2.257499933242798;4.116875171661377;-13.107500076293945
848;0.0;0.0;0.0;0.09467199444770813;-0.11711999773979187;1.0872639417648315;0.0;0.0;0.0
850;0.0;0.0;0.0;0.09857599437236786;-0.10150399804115295;1.0784800052642822;0.0;0.0;0.0
852;0.0;0.0;0.0;0.0907679945230484;-0.1210239976644516;1.09116792678833;0.0;0.0;0.0
854;-0.019519999623298645;0.022204000502824783;0.9594079852104187;0.10540799796581268;-0.10540799796581268;1.0872639417648315;0.612500011920929;3.0668749809265137;-12.757499694824219
856;0.0;0.0;0.0;0.09857599437236786;-0.10931199789047241;1.1116639375686646;0.0;0.0;0.0
858;0.0;0.0;0.0;0.11321599781513214;-0.11321599781513214;1.1116639375686646;0.0;0.0;0.0
860;0.0;0.0;0.0;0.14054399728775024;-0.11321599781513214;1.09116792678833;0.0;0.0;0.0
862;-0.014883999712765217;0.019519999623298645;0.9701439738273621;0.14444799721240997;-0.1210239976644516;1.0989760160446167;2.502500057220459;1.0368750095367432;-11.987500190734863
865;0.0;0.0;0.0;0.10247999429702759;-0.1210239976644516;1.1116639375686646;0.0;0.0;0.0
867;0.0;0.0;0.0;0.11028799414634705;-0.1483519971370697;1.0989760160446167;0.0;0.0;0.0
869;0.0;0.0;0.0;0.1210239976644516;-0.10931199789047241;1.1116639375686646;0.0;0.0;0.0
871;-0.0056119998916983604;0.014883999712765217;0.9830759763717651;0.10638399422168732;-0.11711999773979187;1.1272799968719482;2.642500162124634;0.7568749785423279;-11.77750015258789
873;0.0;0.0;0.0;0.11321599781513214;-0.12492799758911133;1.107759952545166;0.0;0.0;0.0
875;0.0;0.0;0.0;0.1327359974384308;-0.1210239976644516;1.107759952545166;0.0;0.0;0.0
877;0.0;0.0;0.0;0.10540799796581268;-0.11321599781513214;1.1233760118484497;0.0;0.0;0.0
879;-0.004879999905824661;0.017079999670386314;0.9925919771194458;0.1210239976644516;-0.12883199751377106;1.1116639375686646;1.8025000095367432;2.0868749618530273;-12.057499885559082
882;0.0;0.0;0.0;0.09759999811649323;-0.10931199789047241;1.115567922592163;0.0;0.0;0.0
884;0.0;0.0;0.0;0.11711999773979187;-0.11711999773979187;1.107759952545166;0.0;0.0;0.0
886;0.0;0.0;0.0;0.1210239976644516;-0.11321599781513214;1.1194720268249512;0.0;0.0;0.0
888;-0.00317199993878603;0.023667998611927032;0.9935680031776428;0.09857599437236786;-0.10931199789047241;1.1194720268249512;0.4025000035762787;2.7168750762939453;-12.897500038146973
890;0.0;0.0;0.0;0.12883199751377106;-0.11321599781513214;1.1272799968719482;0.0;0.0;0.0
892;0.0;0.0;0.0;0.1327359974384308;-0.11321599781513214;1.1116639375686646;0.0;0.0;0.0
894;0.0;0.0;0.0;0.12590399384498596;-0.1327359974384308;1.115567922592163;0.0;0.0;0.0
896;0.00634399987757206;0.02025200054049492;0.9952759742736816;0.14444799721240997;-0.10540799796581268;1.1272799968719482;-1.1375000476837158;2.366875171661377;-12.617500305175781
899;0.0;0.0;0.0;0.1327359974384308;-0.07417599856853485;1.1360639333724976;0.0;0.0;0.0
901;0.0;0.0;0.0;0.11711999773979187;-0.10931199789047241;1.1194720268249512;0.0;0.0;0.0
903;0.0;0.0;0.0;0.11321599781513214;-0.11711999773979187;1.09116792678833;0.0;0.0;0.0
905;0.006831999868154526;0.02025200054049492;0.9860039949417114;0.12492799758911133;-0.12492799758911133;1.107759952545166;-1.977500081062317;3.416875123977661;-12.197500228881836
907;0.0;0.0;0.0;0.10931199789047241;-0.1327359974384308;1.09116792678833;0.0;0.0;0.0
909;0.0;0.0;0.0;0.12883199751377106;-0.1210239976644516;1.1028800010681152;0.0;0.0;0.0
911;0.0;0.0;0.0;0.09759999811649323;-0.12883199751377106;1.0950720310211182;0.0;0.0;0.0
913;-0.010247999802231789;0.020983999595046043;0.9752680063247681;0.09857599437236786;-0.10931199789047241;1.1116639375686646;-1.6975001096725464;4.816874980926514;-12.1274995803833
916;0.0;0.0;0.0;0.10931199789047241;-0.11711999773979187;1.115567922592163;0.0;0.0;0.0
918;0.0;0.0;0.0;0.11711999773979187;-0.11711999773979187;1.1116639375686646;0.0;0.0;0.0
920;0.0;0.0;0.0;0.08686399459838867;-0.1327359974384308;1.1272799968719482;0.0;0.0;0.0
922;-0.014639999717473984;0.018055999651551247;0.9799039959907532;0.10931199789047241;-0.1210239976644516;1.1194720268249512;-0.5774999856948853;3.416875123977661;-11.77750015258789
924;0.0;0.0;0.0;0.10150399804115295;-0.10931199789047241;1.1116639375686646;0.0;0.0;0.0
926;0.0;0.0;0.0;0.12883199751377106;-0.12883199751377106;1.1194720268249512;0.0;0.0;0.0
928;0.0;0.0;0.0;0.10540799796581268;-0.1210239976644516;1.1272799968719482;0.0;0.0;0.0
930;-0.0004879999905824661;0.010979999788105488;0.9928359985351562;0.12492799758911133;-0.12492799758911133;1.1272799968719482;0.4025000035762787;2.436875104904175;-11.217499732971191
933;0.0;0.0;0.0;0.12883199751377106;-0.14054399728775024;1.1360639333724976;0.0;0.0;0.0
935;0.0;0.0;0.0;0.11321599781513214;-0.1210239976644516;1.1233760118484497;0.0;0.0;0.0
937;0.0;0.0;0.0;0.12883199751377106;-0.12883199751377106;1.139967918395996;0.0;0.0;0.0
939;0.006587999872863293;0.004879999905824661;0.9989359974861145;0.12883199751377106;-0.1327359974384308;1.139967918395996;1.5924999713897705;3.1368751525878906;-10.587499618530273
941;0.0;0.0;0.0;0.13663999736309052;-0.15225599706172943;1.1311839818954468;0.0;0.0;0.0
943;0.0;0.0;0.0;0.09759999811649323;-0.12883199751377106;1.1438720226287842;0.0;0.0;0.0
945;0.0;0.0;0.0;0.10150399804115295;-0.10931199789047241;1.156559944152832;0.0;0.0;0.0
947;-0.0024399999529123306;0.007319999858736992;1.0091840028762817;0.12492799758911133;-0.1210239976644516;1.1438720226287842;2.3625001907348633;4.186874866485596;-10.167499542236328
950;0.0;0.0;0.0;0.1327359974384308;-0.11711999773979187;1.132159948348999;0.0;0.0;0.0
952;0.0;0.0;0.0;0.10638399422168732;-0.12492799758911133;1.1360639333724976;0.0;0.0;0.0
954;0.0;0.0;0.0;0.11711999773979187;-0.10150399804115295;1.1233760118484497;0.0;0.0;0.0
956;-0.015371999703347683;0.01878799870610237;0.998691976070404;0.12883199751377106;-0.10540799796581268;1.1028800010681152;1.9424999952316284;4.256875038146973;-9.957499504089355
958;0.0;0.0;0.0;0.0936959981918335;-0.08979199826717377;1.1233760118484497;0.0;0.0;0.0
960;0.0;0.0;0.0;0.10247999429702759;-0.10540799796581268;1.1233760118484497;0.0;0.0;0.0
962;0.0;0.0;0.0;0.07124799489974976;-0.08588799834251404;1.0989760160446167;0.0;0.0;0.0
965;-0.02659599855542183;0.02537599951028824;0.985759973526001;0.0907679945230484;-0.07807999849319458;1.1360639333724976;1.662500023841858;4.256875038146973;-10.517499923706055
967;0.0;0.0;0.0;0.08686399459838867;-0.11321599781513214;1.1233760118484497;0.0;0.0;0.0
969;0.0;0.0;0.0;0.0907679945230484;-0.09759999811649323;1.0872639417648315;0.0;0.0;0.0
971;0.0;0.0;0.0;0.11321599781513214;-0.09759999811649323;1.1028800010681152;0.0;0.0;0.0
973;-0.026839999482035637;0.0331839993596077;0.9796599745750427;0.10150399804115295;-0.10150399804115295;1.0989760160446167;0.8925000429153442;3.486875057220459;-11.007499694824219
975;0.0;0.0;0.0;0.10638399422168732;-0.09759999811649323;1.0950720310211182;0.0;0.0;0.0
977;0.0;0.0;0.0;0.10540799796581268;-0.09759999811649323;1.1116639375686646;0.0;0.0;0.0
979;0.0;0.0;0.0;0.11711999773979187;-0.1327359974384308;1.0950720310211182;0.0;0.0;0.0
982;-0.014151999726891518;0.029523998498916626;0.9720959663391113;0.11711999773979187;-0.10931199789047241;1.0989760160446167;-0.1574999988079071;3.8368749618530273;-12.1274995803833
984;0.0;0.0;0.0;0.1327359974384308;-0.10540799796581268;1.1194720268249512;0.0;0.0;0.0
986;0.0;0.0;0.0;0.1483519971370697;-0.10150399804115295;1.1516799926757812;0.0;0.0;0.0
988;0.0;0.0;0.0;0.13663999736309052;-0.10540799796581268;1.107759952545166;0.0;0.0;0.0
990;0.007075999863445759;0.02147199958562851;0.982587993144989;0.15225599706172943;-0.14444799721240997;1.0989760160446167;-0.9975000023841858;4.396874904632568;-12.757499694824219
992;0.0;0.0;0.0;0.12492799758911133;-0.1327359974384308;1.1233760118484497;0.0;0.0;0.0
994;0.0;0.0;0.0;0.10540799796581268;-0.12492799758911133;1.1028800010681152;0.0;0.0;0.0
996;0.0;0.0;0.0;0.13663999736309052;-0.12883199751377106;1.1116639375686646;0.0;0.0;0.0
999;0.013663999736309052;0.017079999670386314;0.9750239849090576;0.11711999773979187;-0.1600639969110489;1.115567922592163;-1.627500057220459;6.776875019073486;-12.407500267028809
1001;0.0;0.0;0.0;0.12492799758911133;-0.12883199751377106;1.115567922592163;0.0;0.0;0.0
1003;0.0;0.0;0.0;0.10931199789047241;-0.10931199789047241;1.0950720310211182;0.0;0.0;0.0
1005;0.0;0.0;0.0;0.12883199751377106;-0.11321599781513214;1.139967918395996;0.0;0.0;0.0
1007;-0.004147999919950962;0.011467999778687954;0.9840520024299622;0.11711999773979187;-0.12492799758911133;1.1272799968719482;-0.6474999785423279;7.966875076293945;-11.84749984741211
1009;0.0;0.0;0.0;0.10150399804115295;-0.12883199751377106;1.0989760160446167;0.0;0.0;0.0
1011;0.0;0.0;0.0;0.10247999429702759;-0.12883199751377106;1.1272799968719482;0.0;0.0;0.0
1013;0.0;0.0;0.0;0.0907679945230484;-0.10150399804115295;1.107759952545166;0.0;0.0;0.0
1016;-0.02122800052165985;0.009027999825775623;0.9752680063247681;0.07905599474906921;-0.13663999736309052;1.0784800052642822;0.6825000047683716;7.82687520980835;-11.567500114440918
1018;0.0;0.0;0.0;0.07124799489974976;-0.11321599781513214;1.107759952545166;0.0;0.0;0.0
1020;0.0;0.0;0.0;0.09857599437236786;-0.12883199751377106;1.0989760160446167;0.0;0.0;0.0
1022;0.0;0.0;0.0;0.08686399459838867;-0.12883199751377106;1.0745760202407837;0.0;0.0;0.0
1024;-0.034648001194000244;0.007319999858736992;0.9772199988365173;0.07905599474906921;-0.11711999773979187;1.1116639375686646;2.2925000190734863;6.776875019073486;-11.917499542236328
1026;0.0;0.0;0.0;0.09467199444770813;-0.12883199751377106;1.1233760118484497;0.0;0.0;0.0
1028;0.0;0.0;0.0;0.08588799834251404;-0.11711999773979187;1.1028800010681152;0.0;0.0;0.0
1030;0.0;0.0;0.0;0.08588799834251404;-0.10931199789047241;1.1272799968719482;0.0;0.0;0.0
1033;-0.0287919994443655;0.013663999736309052;0.9860039949417114;0.08295999467372894;-0.14444799721240997;1.1311839818954468;2.992500066757202;5.306875228881836;-12.267499923706055
1035;0.0;0.0;0.0;0.10931199789047241;-0.1210239976644516;1.1360639333724976;0.0;0.0;0.0
1037;0.0;0.0;0.0;0.09467199444770813;-0.10931199789047241;1.139967918395996;0.0;0.0;0.0
1039;0.0;0.0;0.0;0.10638399422168732;-0.09759999811649323;1.1438720226287842;0.0;0.0;0.0
1041;-0.02025200054049492;0.024399999529123306;0.998691976070404;0.10540799796581268;-0.10931199789047241;1.132159948348999;2.2925000190734863;5.306875228881836;-12.477499961853027
1043;0.0;0.0;0.0;0.09467199444770813;-0.08588799834251404;1.1360639333724976;0.0;0.0;0.0
1045;0.0;0.0;0.0;0.06734399497509003;-0.09759999811649323;1.107759952545166;0.0;0.0;0.0
1047;0.0;0.0;0.0;0.09467199444770813;-0.10150399804115295;1.1360639333724976;0.0;0.0;0.0
1050;-0.031231999397277832;0.03269600123167038;1.0013760328292847;0.07515199482440948;-0.08979199826717377;1.1438720226287842;0.7524999976158142;6.286875247955322;-13.107500076293945
1052;0.0;0.0;0.0;0.06734399497509003;-0.09759999811649323;1.1604639291763306;0.0;0.0;0.0
1054;0.0;0.0;0.0;0.05563199892640114;-0.08588799834251404;1.115567922592163;0.0;0.0;0.0
1056;0.0;0.0;0.0;0.0634399950504303;-0.09759999811649323;1.1194720268249512;0.0;0.0;0.0
1058;-0.04928799718618393;0.040991999208927155;0.9994239807128906;0.07905599474906921;-0.08588799834251404;1.1233760118484497;-1.3475000858306885;5.796875;-14.4375
1060;0.0;0.0;0.0;0.05172799900174141;-0.08979199826717377;1.1233760118484497;0.0;0.0;0.0
1062;0.0;0.0;0.0;0.07905599474906921;-0.09759999811649323;1.1233760118484497;0.0;0.0;0.0
1064;0.0;0.0;0.0;0.08686399459838867;-0.08588799834251404;1.107759952545166;0.0;0.0;0.0
1067;-0.05709599703550339;0.03952799737453461;0.9903959631919861;0.08686399459838867;-0.10931199789047241;1.09116792678833;-4.427499771118164;5.866875171661377;-17.237499237060547
1069;0.0;0.0;0.0;0.08295999467372894;-0.0936959981918335;1.107759952545166;0.0;0.0;0.0
1071;0.0;0.0;0.0;0.08295999467372894;-0.0936959981918335;1.0872639417648315;0.0;0.0;0.0
1073;0.0;0.0;0.0;0.06734399497509003;-0.08588799834251404;1.0989760160446167;0.0;0.0;0.0
1075;-0.05245999991893768;0.03294000029563904;0.9703879952430725;0.05172799900174141;-0.07807999849319458;1.0872639417648315;-7.647500038146973;7.616875171661377;-20.8075008392334
1077;0.0;0.0;0.0;0.07124799489974976;-0.0936959981918335;1.09116792678833;0.0;0.0;0.0
1079;0.0;0.0;0.0;0.05563199892640114;-0.09759999811649323;1.09116792678833;0.0;0.0;0.0
1081;0.0;0.0;0.0;0.07905599474906921;-0.11321599781513214;1.0550559759140015;0.0;0.0;0.0
1084;-0.04879999905824661;0.02537599951028824;0.9476959705352783;0.07124799489974976;-0.12492799758911133;1.0589599609375;-9.327500343322754;10.836874961853027;-24.86750030517578
1086;0.0;0.0;0.0;0.04782399907708168;-0.11711999773979187;1.0745760202407837;0.0;0.0;0.0
1088;0.0;0.0;0.0;0.05563199892640114;-0.1327359974384308;1.083359956741333;0.0;0.0;0.0
1090;0.0;0.0;0.0;0.04782399907708168;-0.11711999773979187;1.0550559759140015;0.0;0.0;0.0
1092;-0.05782799795269966;0.014883999712765217;0.9481839537620544;0.0907679945230484;-0.10540799796581268;1.066767930984497;-8.34749984741211;11.186874389648438;-28.087499618530273
1094;0.0;0.0;0.0;0.07515199482440948;-0.09759999811649323;1.0794559717178345;0.0;0.0;0.0
1096;0.0;0.0;0.0;0.07905599474906921;-0.1210239976644516;1.066767930984497;0.0;0.0;0.0
1098;0.0;0.0;0.0;0.0907679945230484;-0.0936959981918335;1.0950720310211182;0.0;0.0;0.0
1101;-0.03879600018262863;0.017324000597000122;0.9491599798202515;0.10247999429702759;-0.1210239976644516;1.0784800052642822;-5.057499885559082;10.066874504089355;-30.747499465942383
1103;0.0;0.0;0.0;0.08686399459838867;-0.11321599781513214;1.0745760202407837;0.0;0.0;0.0
1105;0.0;0.0;0.0;0.08295999467372894;-0.10150399804115295;1.0872639417648315;0.0;0.0;0.0
1107;0.0;0.0;0.0;0.09857599437236786;-0.13663999736309052;1.0628639459609985;0.0;0.0;0.0
1109;-0.040748000144958496;0.02025200054049492;0.9606279730796814;0.06734399497509003;-0.11711999773979187;1.083359956741333;-0.8575000166893005;9.506875038146973;-32.35750198364258
1111;0.0;0.0;0.0;0.03611199930310249;-0.12883199751377106;1.107759952545166;0.0;0.0;0.0
1113;0.0;0.0;0.0;0.032207999378442764;-0.1210239976644516;1.1194720268249512;0.0;0.0;0.0
1115;0.0;0.0;0.0;0.06734399497509003;-0.11321599781513214;1.0950720310211182;0.0;0.0;0.0
1118;-0.06588000059127808;0.03879600018262863;0.9840520024299622;0.05953599885106087;-0.007807999849319458;1.1604639291763306;2.642500162124634;6.986875057220459;-34.03750228881836
1120;0.0;0.0;0.0;0.07905599474906921;-0.14444799721240997;1.1028800010681152;0.0;0.0;0.0
1122;0.0;0.0;0.0;0.08295999467372894;-0.08588799834251404;1.1438720226287842;0.0;0.0;0.0
1124;0.0;0.0;0.0;0.03611199930310249;-0.011711999773979187;1.1721760034561157;0.0;0.0;0.0
1126;-0.053435999900102615;0.054899998009204865;1.0111359357833862;0.07515199482440948;-0.0936959981918335;1.1438720226287842;1.9424999952316284;3.976875066757202;-36.69750213623047
1128;0.0;0.0;0.0;0.11711999773979187;-0.10150399804115295;1.1272799968719482;0.0;0.0;0.0
1130;0.0;0.0;0.0;0.0907679945230484;-0.04294399917125702;1.132159948348999;0.0;0.0;0.0
1133;0.0;0.0;0.0;0.07124799489974976;-0.11711999773979187;1.115567922592163;0.0;0.0;0.0
1135;-0.024156000465154648;0.052947998046875;1.0072319507598877;0.1327359974384308;-0.09759999811649323;1.139967918395996;-0.3675000071525574;5.026875019073486;-40.12750244140625
1137;0.0;0.0;0.0;0.14054399728775024;-0.10540799796581268;1.1233760118484497;0.0;0.0;0.0
1139;0.0;0.0;0.0;0.11321599781513214;-0.08979199826717377;1.1233760118484497;0.0;0.0;0.0
1141;0.0;0.0;0.0;0.10638399422168732;-0.10931199789047241;1.1272799968719482;0.0;0.0;0.0
1143;-0.00634399987757206;0.037087999284267426;0.9955199956893921;0.09467199444770813;-0.07807999849319458;1.1360639333724976;-0.7174999713897705;7.686874866485596;-39.21750259399414
1145;0.0;0.0;0.0;0.08686399459838867;-0.0936959981918335;1.1194720268249512;0.0;0.0;0.0
1147;0.0;0.0;0.0;0.0907679945230484;-0.08588799834251404;1.1028800010681152;0.0;0.0;0.0
1149;0.0;0.0;0.0;0.09467199444770813;-0.07417599856853485;1.1194720268249512;0.0;0.0;0.0
1152;-0.03391600027680397;0.0453839972615242;0.9818559885025024;0.07515199482440948;-0.03903999924659729;1.1067839860916138;0.612500011920929;7.82687520980835;-37.817501068115234
1154;0.0;0.0;0.0;0.05953599885106087;-0.08588799834251404;1.1272799968719482;0.0;0.0;0.0
1156;0.0;0.0;0.0;0.0907679945230484;-0.07417599856853485;1.0989760160446167;0.0;0.0;0.0
1158;0.0;0.0;0.0;0.08295999467372894;-0.058559998869895935;1.115567922592163;0.0;0.0;0.0
1160;-0.04367600008845329;0.06197600066661835;0.9872239828109741;0.07905599474906921;-0.07807999849319458;1.139967918395996;1.2424999475479126;5.866875171661377;-37.6775016784668
1162;0.0;0.0;0.0;0.0936959981918335;-0.03903999924659729;1.1233760118484497;0.0;0.0;0.0
1164;0.0;0.0;0.0;0.07905599474906921;-0.07417599856853485;1.1233760118484497;0.0;0.0;0.0
1166;0.0;0.0;0.0;0.09467199444770813;-0.0663679987192154;1.1272799968719482;0.0;0.0;0.0
1169;-0.031964000314474106;0.06173199787735939;0.9864919781684875;0.11028799414634705;-0.08198399841785431;1.1233760118484497;1.1725000143051147;6.566874980926514;-38.02750015258789
1171;0.0;0.0;0.0;0.0907679945230484;-0.09759999811649323;1.1116639375686646;0.0;0.0;0.0
1173;0.0;0.0;0.0;0.0634399950504303;-0.07417599856853485;1.1233760118484497;0.0;0.0;0.0
1175;0.0;0.0;0.0;0.0907679945230484;-0.07417599856853485;1.1233760118484497;0.0;0.0;0.0
1177;-0.03513599932193756;0.048555999994277954;0.9925919771194458;0.07905599474906921;-0.08198399841785431;1.1360639333724976;2.1525001525878906;10.276874542236328;-38.097503662109375
1180;0.0;0.0;0.0;0.05563199892640114;-0.08198399841785431;1.1643680334091187;0.0;0.0;0.0
1181;0.0;0.0;0.0;0.06734399497509003;-0.062463998794555664;1.1516799926757812;0.0;0.0;0.0
1184;0.0;0.0;0.0;0.0634399950504303;-0.04684799909591675;1.1604639291763306;0.0;0.0;0.0
1186;-0.058803997933864594;0.06783200055360794;1.0196759700775146;0.03611199930310249;-0.04684799909591675;1.1760799884796143;3.4125001430511475;11.046875;-36.417503356933594
1188;0.0;0.0;0.0;0.05563199892640114;-0.05075199902057648;1.1604639291763306;0.0;0.0;0.0
1190;0.0;0.0;0.0;0.04782399907708168;-0.05075199902057648;1.139967918395996;0.0;0.0;0.0
1192;0.0;0.0;0.0;0.0634399950504303;-0.04684799909591675;1.1555839776992798;0.0;0.0;0.0
1194;-0.07173600047826767;0.07930000126361847;1.0313879251480103;0.03611199930310249;-0.05075199902057648;1.1721760034561157;3.9725000858306885;7.616875171661377;-32.497501373291016
1196;0.0;0.0;0.0;0.01659199967980385;-0.023423999547958374;1.1682720184326172;0.0;0.0;0.0
1198;0.0;0.0;0.0;0.07124799489974976;-0.03903999924659729;1.1682720184326172;0.0;0.0;0.0
1201;0.0;0.0;0.0;0.01268799975514412;-0.04294399917125702;1.1516799926757812;0.0;0.0;0.0
1203;-0.09174399822950363;0.08661999553442001;1.030900001525879;0.020495999604463577;-0.03513599932193756;1.1643680334091187;4.042500019073486;4.886875152587891;-28.997499465942383
1205;0.0;0.0;0.0;0.032207999378442764;-0.03903999924659729;1.1555839776992798;0.0;0.0;0.0
1207;0.0;0.0;0.0;0.01659199967980385;-0.011711999773979187;1.1682720184326172;0.0;0.0;0.0
1209;0.0;0.0;0.0;0.032207999378442764;-0.031231999397277832;1.1555839776992798;0.0;0.0;0.0
1211;-0.10174799710512161;0.10443200170993805;1.0265079736709595;0.028303999453783035;-0.011711999773979187;1.156559944152832;3.202500104904175;3.486875057220459;-26.827499389648438
1213;0.0;0.0;0.0;0.01268799975514412;-0.015615999698638916;1.1360639333724976;0.0;0.0;0.0
1215;0.0;0.0;0.0;0.04001599922776222;-0.019519999623298645;1.1643680334091187;0.0;0.0;0.0
1218;0.0;0.0;0.0;0.032207999378442764;-0.03903999924659729;1.1682720184326172;0.0;0.0;0.0
1220;-0.0954039990901947;0.1134599968791008;1.0238239765167236;0.04391999915242195;-0.019519999623298645;1.1516799926757812;1.5924999713897705;1.8068751096725464;-24.9375
1222;0.0;0.0;0.0;0.020495999604463577;0.0;1.1477760076522827;0.0;0.0;0.0
1224;0.0;0.0;0.0;0.06734399497509003;-0.011711999773979187;1.1233760118484497;0.0;0.0;0.0
1226;0.0;0.0;0.0;0.06734399497509003;-0.03903999924659729;1.1477760076522827;0.0;0.0;0.0
1228;-0.0727119967341423;0.11858399957418442;1.013819932937622;0.07515199482440948;-0.007807999849319458;1.139967918395996;-0.3675000071525574;0.546875;-23.11750030517578
1230;0.0;0.0;0.0;0.04782399907708168;-0.007807999849319458;1.1311839818954468;0.0;0.0;0.0
1232;0.0;0.0;0.0;0.08295999467372894;-0.015615999698638916;1.1272799968719482;0.0;0.0;0.0
1235;0.0;0.0;0.0;0.07124799489974976;-0.007807999849319458;1.1194720268249512;0.0;0.0;0.0
1237;-0.05026400089263916;0.115167997777462;1.0062559843063354;0.08686399459838867;-0.05075199902057648;1.139967918395996;-1.7675000429153442;1.6668751239776611;-20.59749984741211
1239;0.0;0.0;0.0;0.09759999811649323;0.0;1.132159948348999;0.0;0.0;0.0
1241;0.0;0.0;0.0;0.10931199789047241;-0.03903999924659729;1.1233760118484497;0.0;0.0;0.0
1243;0.0;0.0;0.0;0.07124799489974976;-0.019519999623298645;1.1116639375686646;0.0;0.0;0.0
1245;-0.04270000010728836;0.1029679998755455;0.9938119649887085;0.07515199482440948;-0.019519999623298645;1.0989760160446167;-2.9574999809265137;3.556874990463257;-17.237499237060547
1247;0.0;0.0;0.0;0.05172799900174141;-0.03903999924659729;1.1194720268249512;0.0;0.0;0.0
1249;0.0;0.0;0.0;0.07905599474906921;-0.023423999547958374;1.0989760160446167;0.0;0.0;0.0
1252;0.0;0.0;0.0;0.07905599474906921;-0.03903999924659729;1.107759952545166;0.0;0.0;0.0
1254;-0.04904399812221527;0.09784399718046188;0.97843998670578;0.08686399459838867;-0.023423999547958374;1.0706720352172852;-3.307499885559082;4.606874942779541;-14.297499656677246
1256;0.0;0.0;0.0;0.08686399459838867;-0.05075199902057648;1.0950720310211182;0.0;0.0;0.0
1258;0.0;0.0;0.0;0.07124799489974976;-0.027327999472618103;1.0989760160446167;0.0;0.0;0.0
1260;0.0;0.0;0.0;0.07905599474906921;-0.03903999924659729;1.0989760160446167;0.0;0.0;0.0
1262;-0.04806799814105034;0.08881600201129913;0.974291980266571;0.04782399907708168;-0.04294399917125702;1.0950720310211182;-2.747499942779541;4.466875076293945;-11.007499694824219
1264;0.0;0.0;0.0;0.07515199482440948;-0.04684799909591675;1.107759952545166;0.0;0.0;0.0
1266;0.0;0.0;0.0;0.07515199482440948;-0.04684799909591675;1.1028800010681152;0.0;0.0;0.0
1269;0.0;0.0;0.0;0.05953599885106087;-0.062463998794555664;1.1233760118484497;0.0;0.0;0.0
1271;-0.053435999900102615;0.08003199845552444;0.9830759763717651;0.03611199930310249;-0.058559998869895935;1.1116639375686646;-1.2075001001358032;3.486875057220459;-6.667500019073486
1273;0.0;0.0;0.0;0.07515199482440948;-0.05075199902057648;1.1311839818954468;0.0;0.0;0.0
1275;0.0;0.0;0.0;0.08295999467372894;-0.058559998869895935;1.1272799968719482;0.0;0.0;0.0
1277;0.0;0.0;0.0;0.04391999915242195;-0.054655998945236206;1.132159948348999;0.0;0.0;0.0
1279;-0.0634399950504303;0.07320000231266022;0.9877119660377502;0.06734399497509003;-0.07807999849319458;1.107759952545166;0.1925000101327896;2.1568751335144043;-2.4674999713897705
1281;0.0;0.0;0.0;0.05172799900174141;-0.08198399841785431;1.132159948348999;0.0;0.0;0.0
1283;0.0;0.0;0.0;0.028303999453783035;-0.07027199864387512;1.1194720268249512;0.0;0.0;0.0
1286;0.0;0.0;0.0;0.04391999915242195;-0.058559998869895935;1.1194720268249512;0.0;0.0;0.0
1288;-0.07612799853086472;0.06441599875688553;0.9840520024299622;0.04001599922776222;-0.08198399841785431;1.1028800010681152;0.6825000047683716;1.736875057220459;0.4724999964237213
1290;0.0;0.0;0.0;0.04001599922776222;-0.07807999849319458;1.1194720268249512;0.0;0.0;0.0
1292;0.0;0.0;0.0;0.03611199930310249;-0.08198399841785431;1.0989760160446167;0.0;0.0;0.0
1294;0.0;0.0;0.0;0.020495999604463577;-0.08198399841785431;1.0950720310211182;0.0;0.0;0.0
1296;-0.08271599560976028;0.05538799986243248;0.9786840081214905;0.04391999915242195;-0.07417599856853485;1.0989760160446167;1.1024999618530273;0.7568749785423279;2.502500057220459
1298;0.0;0.0;0.0;0.04001599922776222;-0.07027199864387512;1.1233760118484497;0.0;0.0;0.0
1300;0.0;0.0;0.0;0.028303999453783035;-0.10540799796581268;1.0950720310211182;0.0;0.0;0.0
1303;0.0;0.0;0.0;0.04391999915242195;-0.0936959981918335;1.1028800010681152;0.0;0.0;0.0
1305;-0.07685999572277069;0.044895999133586884;0.9701439738273621;0.04001599922776222;-0.08979199826717377;1.0950720310211182;2.1525001525878906;-1.413124918937683;4.182499885559082
1307;0.0;0.0;0.0;0.05953599885106087;-0.07807999849319458;1.0989760160446167;0.0;0.0;0.0
1309;0.0;0.0;0.0;0.04782399907708168;-0.07807999849319458;1.0989760160446167;0.0;0.0;0.0
1311;0.0;0.0;0.0;0.0907679945230484;-0.12492799758911133;1.0989760160446167;0.0;0.0;0.0
1313;-0.06295199692249298;0.03660000115633011;0.9713639616966248;0.07515199482440948;-0.11711999773979187;1.09116792678833;3.9725000858306885;-3.513124942779541;5.022500038146973
1315;0.0;0.0;0.0;0.07124799489974976;-0.0936959981918335;1.1116639375686646;0.0;0.0;0.0
1317;0.0;0.0;0.0;0.09467199444770813;-0.08979199826717377;1.107759952545166;0.0;0.0;0.0
1320;0.0;0.0;0.0;0.0907679945230484;-0.08979199826717377;1.1067839860916138;0.0;0.0;0.0
1322;-0.04562800005078316;0.034648001194000244;0.9823439717292786;0.07515199482440948;-0.08588799834251404;1.0950720310211182;4.672500133514404;-4.773125171661377;5.582499980926514
1324;0.0;0.0;0.0;0.08588799834251404;-0.09272000193595886;1.1282559633255005;0.0;0.0;0.0
1326;0.0;0.0;0.0;0.07417599856853485;-0.0849120020866394;1.124351978302002;0.0;0.0;0.0
1328;0.0;0.0;0.0;0.08881600201129913;-0.12785600125789642;1.1165440082550049;0.0;0.0;0.0
1330;-0.03171999752521515;0.028303999453783035;0.9938119649887085;0.0936959981918335;-0.0849120020866394;1.132159948348999;3.9025001525878906;-4.353125095367432;5.932499885559082
1332;0.0;0.0;0.0;0.07807999849319458;-0.1239520013332367;1.1165440082550049;0.0;0.0;0.0
1334;0.0;0.0;0.0;0.0936959981918335;-0.13566400110721588;1.1204479932785034;0.0;0.0;0.0
1337;0.0;0.0;0.0;0.07417599856853485;-0.12785600125789642;1.1282559633255005;0.0;0.0;0.0
1339;-0.031964000314474106;0.01512799970805645;0.9974719882011414;0.058559998869895935;-0.13566400110721588;1.1204479932785034;2.642500162124634;-2.323124885559082;5.582499980926514
1341;0.0;0.0;0.0;0.07515199482440948;-0.1210239976644516;1.1116639375686646;0.0;0.0;0.0
1343;0.0;0.0;0.0;0.0907679945230484;-0.12883199751377106;1.1477760076522827;0.0;0.0;0.0
1345;0.0;0.0;0.0;0.05953599885106087;-0.1483519971370697;1.1194720268249512;0.0;0.0;0.0
1347;-0.047091998159885406;0.00317199993878603;0.9974719882011414;0.07515199482440948;-0.1210239976644516;1.139967918395996;1.7324999570846558;-0.22312501072883606;4.392499923706055
1349;0.0;0.0;0.0;0.08295999467372894;-0.13663999736309052;1.1516799926757812;0.0;0.0;0.0
1351;0.0;0.0;0.0;0.05563199892640114;-0.15225599706172943;1.1438720226287842;0.0;0.0;0.0
1354;0.0;0.0;0.0;0.0634399950504303;-0.14054399728775024;1.1116639375686646;0.0;0.0;0.0
1356;-0.058559998869895935;-0.005367999896407127;0.9972279667854309;0.08295999467372894;-0.13663999736309052;1.132159948348999;1.2424999475479126;0.12687499821186066;2.8525002002716064
1358;0.0;0.0;0.0;0.07807999849319458;-0.13566400110721588;1.1204479932785034;0.0;0.0;0.0
1360;0.0;0.0;0.0;0.05075199902057648;-0.14347200095653534;1.1448479890823364;0.0;0.0;0.0
1362;0.0;0.0;0.0;0.058559998869895935;-0.14737600088119507;1.1282559633255005;0.0;0.0;0.0
1364;-0.06148799881339073;-0.0056119998916983604;1.0013760328292847;0.03903999924659729;-0.12785600125789642;1.1282559633255005;1.3824999332427979;-0.013125000521540642;1.03249990940094
1367;0.0;0.0;0.0;0.04294399917125702;-0.12785600125789642;1.1282559633255005;0.0;0.0;0.0
1369;0.0;0.0;0.0;0.058559998869895935;-0.1239520013332367;1.124351978302002;0.0;0.0;0.0
1371;0.0;0.0;0.0;0.07027199864387512;-0.14347200095653534;1.1282559633255005;0.0;0.0;0.0
1373;-0.057339999824762344;-0.00024399999529123306;1.0040600299835205;0.08198399841785431;-0.1239520013332367;1.132159948348999;2.7825000286102295;-0.2931250035762787;-0.4375000298023224
1375;0.0;0.0;0.0;0.07515199482440948;-0.13663999736309052;1.1438720226287842;0.0;0.0;0.0
1377;0.0;0.0;0.0;0.0936959981918335;-0.16396799683570862;1.1438720226287842;0.0;0.0;0.0
1379;0.0;0.0;0.0;0.09467199444770813;-0.1600639969110489;1.1233760118484497;0.0;0.0;0.0
1381;-0.04318799823522568;-0.007075999863445759;1.0108920335769653;0.0634399950504303;-0.11321599781513214;1.1604639291763306;4.742500305175781;-1.4831249713897705;-0.4375000298023224
1384;0.0;0.0;0.0;0.10247999429702759;-0.09759999811649323;1.1438720226287842;0.0;0.0;0.0
1386;0.0;0.0;0.0;0.09467199444770813;-0.10150399804115295;1.1438720226287842;0.0;0.0;0.0
1388;0.0;0.0;0.0;0.08295999467372894;-0.14054399728775024;1.1360639333724976;0.0;0.0;0.0
1390;-0.038307998329401016;0.02757199853658676;1.0155279636383057;0.0907679945230484;-0.10150399804115295;1.1438720226287842;4.742500305175781;-0.503125011920929;-0.7174999713897705
1392;0.0;0.0;0.0;0.07905599474906921;-0.10150399804115295;1.1360639333724976;0.0;0.0;0.0
1394;0.0;0.0;0.0;0.04391999915242195;-0.09759999811649323;1.1477760076522827;0.0;0.0;0.0
1396;0.0;0.0;0.0;0.06734399497509003;-0.10150399804115295;1.1272799968719482;0.0;0.0;0.0
1398;-0.05709599703550339;0.029279999434947968;1.0035719871520996;0.05563199892640114;-0.12492799758911133;1.115567922592163;6.352499961853027;0.8968750238418579;-1.7675000429153442
1401;0.0;0.0;0.0;0.04001599922776222;-0.10540799796581268;1.107759952545166;0.0;0.0;0.0
1403;0.0;0.0;0.0;0.05563199892640114;-0.11711999773979187;1.107759952545166;0.0;0.0;0.0
1405;0.0;0.0;0.0;0.028303999453783035;-0.0936959981918335;1.1360639333724976;0.0;0.0;0.0
1407;-0.07515199482440948;0.02659599855542183;0.990884006023407;0.024399999529123306;-0.11711999773979187;1.1194720268249512;9.012499809265137;-0.013125000521540642;-2.3274998664855957
1409;0.0;0.0;0.0;0.027327999472618103;-0.10443200170993805;1.1165440082550049;0.0;0.0;0.0
1411;0.0;0.0;0.0;0.003903999924659729;-0.10052800178527832;1.1165440082550049;0.0;0.0;0.0
1413;0.0;0.0;0.0;0.04684799909591675;-0.10052800178527832;1.1448479890823364;0.0;0.0;0.0
1415;-0.09027999639511108;0.03952799737453461;0.9921039938926697;0.04294399917125702;-0.07710400223731995;1.1204479932785034;12.302499771118164;-3.7931249141693115;-2.5374999046325684
1417;0.0;0.0;0.0;0.05075199902057648;-0.09662400186061859;1.1126400232315063;0.0;0.0;0.0
1420;0.0;0.0;0.0;0.019519999623298645;-0.07320000231266022;1.1282559633255005;0.0;0.0;0.0
1422;0.0;0.0;0.0;0.04294399917125702;-0.049775999039411545;1.1087360382080078;0.0;0.0;0.0
1424;-0.08271599560976028;0.05245999991893768;0.9996680021286011;0.04684799909591675;-0.07710400223731995;1.140944004058838;14.542500495910645;-7.293125152587891;-2.607499837875366
1426;0.0;0.0;0.0;0.04294399917125702;-0.053679998964071274;1.140944004058838;0.0;0.0;0.0
1428;0.0;0.0;0.0;0.03513599932193756;-0.053679998964071274;1.156559944152832;0.0;0.0;0.0
1430;0.0;0.0;0.0;0.07807999849319458;-0.06539200246334076;1.165343999862671;0.0;0.0;0.0
1432;-0.06539200246334076;0.08271599560976028;1.0194319486618042;0.04684799909591675;-0.03415999934077263;1.1770559549331665;15.032500267028809;-9.393125534057617;-2.3274998664855957
1435;0.0;0.0;0.0;0.058559998869895935;-0.02635199949145317;1.1614400148391724;0.0;0.0;0.0
1437;0.0;0.0;0.0;0.08198399841785431;-0.049775999039411545;1.1770559549331665;0.0;0.0;0.0
1439;0.0;0.0;0.0;0.07807999849319458;-0.0302559994161129;1.1858400106430054;0.0;0.0;0.0
1441;-0.047335997223854065;0.10516399890184402;1.0416359901428223;0.08198399841785431;-0.010735999792814255;1.173151969909668;13.352499961853027;-9.533125877380371;-2.047499895095825
1443;0.0;0.0;0.0;0.07124799489974976;-0.019519999623298645;1.1721760034561157;0.0;0.0;0.0
1445;0.0;0.0;0.0;0.06734399497509003;-0.011711999773979187;1.1682720184326172;0.0;0.0;0.0
1447;0.0;0.0;0.0;0.08295999467372894;0.0;1.1682720184326172;0.0;0.0;0.0
1449;-0.0378200002014637;0.11882799863815308;1.0440759658813477;0.08295999467372894;-0.015615999698638916;1.1760799884796143;9.852499961853027;-7.643125057220459;-1.7675000429153442
1451;0.0;0.0;0.0;0.11028799414634705;-0.011711999773979187;1.1643680334091187;0.0;0.0;0.0
1454;0.0;0.0;0.0;0.09857599437236786;-0.003903999924659729;1.1360639333724976;0.0;0.0;0.0
1456;0.0;0.0;0.0;0.07905599474906921;-0.003903999924659729;1.1282559633255005;0.0;0.0;0.0
1458;-0.038307998329401016;0.12541599571704865;1.0196759700775146;0.07515199482440948;-0.007807999849319458;1.139967918395996;5.722500324249268;-3.7931249141693115;-2.047499895095825
1460;0.0;0.0;0.0;0.0663679987192154;-0.014639999717473984;1.1165440082550049;0.0;0.0;0.0
1462;0.0;0.0;0.0;0.0936959981918335;-0.049775999039411545;1.1282559633255005;0.0;0.0;0.0
1464;0.0;0.0;0.0;0.058559998869895935;-0.010735999792814255;1.1087360382080078;0.0;0.0;0.0
1466;-0.03952799737453461;0.11394799500703812;0.9928359985351562;0.08588799834251404;-0.03806399926543236;1.0960479974746704;3.202500104904175;-0.43312501907348633;-2.607499837875366
1469;0.0;0.0;0.0;0.07807999849319458;-0.0302559994161129;1.1038559675216675;0.0;0.0;0.0
1471;0.0;0.0;0.0;0.09759999811649323;-0.02635199949145317;1.0882400274276733;0.0;0.0;0.0
1473;0.0;0.0;0.0;0.08198399841785431;-0.049775999039411545;1.0843359231948853;0.0;0.0;0.0
1475;-0.04172400012612343;0.10174799710512161;0.9603840112686157;0.08979199826717377;-0.049775999039411545;1.0472480058670044;2.2225000858306885;1.0368750095367432;-2.3274998664855957
1477;0.0;0.0;0.0;0.07515199482440948;-0.04294399917125702;1.0589599609375;0.0;0.0;0.0
1479;0.0;0.0;0.0;0.07905599474906921;-0.03513599932193756;1.0589599609375;0.0;0.0;0.0
1481;0.0;0.0;0.0;0.10931199789047241;-0.031231999397277832;1.066767930984497;0.0;0.0;0.0
1483;-0.043431997299194336;0.09320800006389618;0.9359839558601379;0.05563199892640114;-0.03513599932193756;1.066767930984497;2.7125000953674316;1.8068751096725464;-1.977500081062317
1486;0.0;0.0;0.0;0.04391999915242195;-0.04684799909591675;1.0706720352172852;0.0;0.0;0.0
1488;0.0;0.0;0.0;0.07124799489974976;-0.03903999924659729;1.042367935180664;0.0;0.0;0.0
1490;0.0;0.0;0.0;0.0634399950504303;-0.007807999849319458;1.0706720352172852;0.0;0.0;0.0
1492;-0.04758000001311302;0.10077200084924698;0.9271999597549438;0.07124799489974976;0.003903999924659729;1.0306559801101685;4.182499885559082;2.296875;-1.277500033378601
1494;0.0;0.0;0.0;0.05953599885106087;-0.04294399917125702;1.066767930984497;0.0;0.0;0.0
1496;0.0;0.0;0.0;0.0634399950504303;-0.027327999472618103;1.0462720394134521;0.0;0.0;0.0
1498;0.0;0.0;0.0;0.07124799489974976;-0.011711999773979187;1.083359956741333;0.0;0.0;0.0
1500;-0.05245999991893768;0.11419199407100677;0.9311040043830872;0.05172799900174141;0.015615999698638916;1.0794559717178345;6.142499923706055;1.5268750190734863;-0.22750000655651093
1503;0.0;0.0;0.0;0.05563199892640114;0.003903999924659729;1.0745760202407837;0.0;0.0;0.0
1505;0.0;0.0;0.0;0.09759999811649323;-0.007807999849319458;1.0628639459609985;0.0;0.0;0.0
1507;0.0;0.0;0.0;0.07515199482440948;0.0;1.0872639417648315;0.0;0.0;0.0
1509;-0.058803997933864594;0.12419600039720535;0.9442799687385559;0.0634399950504303;-0.003903999924659729;1.0872639417648315;8.102499961853027;-1.5531249046325684;1.5924999713897705
1511;0.0;0.0;0.0;0.07905599474906921;0.007807999849319458;1.09116792678833;0.0;0.0;0.0
1513;0.0;0.0;0.0;0.05172799900174141;-0.015615999698638916;1.066767930984497;0.0;0.0;0.0
1515;0.0;0.0;0.0;0.0634399950504303;0.007807999849319458;1.0989760160446167;0.0;0.0;0.0
1517;-0.059779997915029526;0.13371199369430542;0.9684360027313232;0.07515199482440948;0.003903999924659729;1.1028800010681152;9.22249984741211;-4.283124923706055;3.8324999809265137
1520;0.0;0.0;0.0;0.06734399497509003;0.015615999698638916;1.1272799968719482;0.0;0.0;0.0
1522;0.0;0.0;0.0;0.05563199892640114;-0.019519999623298645;1.115567922592163;0.0;0.0;0.0
1524;0.0;0.0;0.0;0.05172799900174141;0.011711999773979187;1.1116639375686646;0.0;0.0;0.0
1526;-0.059779997915029526;0.14151999354362488;0.9882000088691711;0.07124799489974976;0.019519999623298645;1.1233760118484497;9.22249984741211;-5.473124980926514;5.512500286102295
1528;0.0;0.0;0.0;0.05563199892640114;-0.011711999773979187;1.1477760076522827;0.0;0.0;0.0
1530;0.0;0.0;0.0;0.06734399497509003;-0.015615999698638916;1.1194720268249512;0.0;0.0;0.0
1532;0.0;0.0;0.0;0.07905599474906921;0.003903999924659729;1.1438720226287842;0.0;0.0;0.0
1534;-0.06173199787735939;0.13590799272060394;0.9984479546546936;0.04001599922776222;-0.007807999849319458;1.1360639333724976;7.612500190734863;-4.913125038146973;6.492500305175781
1537;0.0;0.0;0.0;0.07515199482440948;0.003903999924659729;1.1360639333724976;0.0;0.0;0.0
1539;0.0;0.0;0.0;0.07905599474906921;-0.019519999623298645;1.1360639333724976;0.0;0.0;0.0
1541;0.0;0.0;0.0;0.07905599474906921;-0.007807999849319458;1.1438720226287842;0.0;0.0;0.0
1543;-0.05538799986243248;0.1290760040283203;1.0152839422225952;0.07515199482440948;0.0;1.1604639291763306;5.372499942779541;-3.7231249809265137;6.632500171661377
1545;0.0;0.0;0.0;0.08295999467372894;-0.03513599932193756;1.1477760076522827;0.0;0.0;0.0
1547;0.0;0.0;0.0;0.08295999467372894;0.003903999924659729;1.1643680334091187;0.0;0.0;0.0
1549;0.0;0.0;0.0;0.09857599437236786;0.0;1.1516799926757812;0.0;0.0;0.0
1551;-0.04562800005078316;0.12248799949884415;1.0289479494094849;0.08295999467372894;-0.011711999773979187;1.1721760034561157;1.9424999952316284;-1.5531249046325684;7.052500247955322
1554;0.0;0.0;0.0;0.07515199482440948;-0.03513599932193756;1.1555839776992798;0.0;0.0;0.0
1556;0.0;0.0;0.0;0.07124799489974976;-0.007807999849319458;1.1477760076522827;0.0;0.0;0.0
1558;0.0;0.0;0.0;0.07124799489974976;-0.007807999849319458;1.1848639249801636;0.0;0.0;0.0
1560;-0.049531999975442886;0.10784799605607986;1.0316319465637207;0.07515199482440948;-0.019519999623298645;1.1604639291763306;0.05250000208616257;0.8968750238418579;7.262500286102295
1562;0.0;0.0;0.0;0.04391999915242195;-0.04684799909591675;1.1721760034561157;0.0;0.0;0.0
1564;0.0;0.0;0.0;0.032207999378442764;-0.054655998945236206;1.1516799926757812;0.0;0.0;0.0
1566;0.0;0.0;0.0;0.05953599885106087;-0.054655998945236206;1.1643680334091187;0.0;0.0;0.0
1568;-0.06026799976825714;0.09198799729347229;1.026263952255249;0.07515199482440948;-0.04294399917125702;1.1477760076522827;-0.3675000071525574;1.176875114440918;7.682499885559082
1571;0.0;0.0;0.0;0.0634399950504303;-0.054655998945236206;1.1477760076522827;0.0;0.0;0.0
1573;0.0;0.0;0.0;0.07124799489974976;-0.058559998869895935;1.1516799926757812;0.0;0.0;0.0
1575;0.0;0.0;0.0;0.07515199482440948;-0.07807999849319458;1.1477760076522827;0.0;0.0;0.0
1577;-0.059779997915029526;0.07539600133895874;1.0169919729232788;0.07124799489974976;-0.058559998869895935;1.132159948348999;0.12250000238418579;-0.15312500298023224;7.612500190734863
1579;0.0;0.0;0.0;0.07124799489974976;-0.07807999849319458;1.1272799968719482;0.0;0.0;0.0
1581;0.0;0.0;0.0;0.07905599474906921;-0.07807999849319458;1.1360639333724976;0.0;0.0;0.0
1583;0.0;0.0;0.0;0.07905599474906921;-0.08979199826717377;1.1516799926757812;0.0;0.0;0.0
1585;-0.05392399802803993;0.05953599885106087;1.0089399814605713;0.05563199892640114;-0.0663679987192154;1.132159948348999;1.03249990940094;-0.7831249833106995;7.752500057220459
1588;0.0;0.0;0.0;0.08295999467372894;-0.07807999849319458;1.1194720268249512;0.0;0.0;0.0
1590;0.0;0.0;0.0;0.06734399497509003;-0.07027199864387512;1.1643680334091187;0.0;0.0;0.0
1592;0.0;0.0;0.0;0.07905599474906921;-0.07807999849319458;1.1438720226287842;0.0;0.0;0.0
1594;-0.05929199978709221;0.05514399707317352;1.0091840028762817;0.05172799900174141;-0.08588799834251404;1.132159948348999;1.9424999952316284;-3.3031249046325684;8.102499961853027
1596;0.0;0.0;0.0;0.07124799489974976;-0.08198399841785431;1.1760799884796143;0.0;0.0;0.0
1598;0.0;0.0;0.0;0.07515199482440948;-0.07417599856853485;1.139967918395996;0.0;0.0;0.0
1600;0.0;0.0;0.0;0.06734399497509003;-0.07417599856853485;1.1516799926757812;0.0;0.0;0.0
1602;-0.04636000096797943;0.06685599684715271;1.0235799551010132;0.10150399804115295;-0.04684799909591675;1.1477760076522827;1.7324999570846558;-6.033124923706055;9.22249984741211
1605;0.0;0.0;0.0;0.10247999429702759;-0.0663679987192154;1.1721760034561157;0.0;0.0;0.0
1607;0.0;0.0;0.0;0.0936959981918335;-0.058559998869895935;1.1721760034561157;0.0;0.0;0.0
1609;0.0;0.0;0.0;0.10931199789047241;-0.027327999472618103;1.1760799884796143;0.0;0.0;0.0
1611;-0.029523998498916626;0.08076399564743042;1.0318759679794312;0.07515199482440948;-0.03903999924659729;1.1760799884796143;0.1925000101327896;-6.803124904632568;9.852499961853027
1613;0.0;0.0;0.0;0.06734399497509003;-0.07027199864387512;1.139967918395996;0.0;0.0;0.0
1615;0.0;0.0;0.0;0.12883199751377106;-0.08198399841785431;1.1604639291763306;0.0;0.0;0.0
1617;0.0;0.0;0.0;0.08295999467372894;-0.04684799909591675;1.1477760076522827;0.0;0.0;0.0
1619;-0.023423999547958374;0.0802759975194931;1.02675199508667;0.10540799796581268;-0.07417599856853485;1.156559944152832;-2.1875;-4.983124732971191;10.132499694824219
1622;0.0;0.0;0.0;0.12492799758911133;-0.07807999849319458;1.1555839776992798;0.0;0.0;0.0
1624;0.0;0.0;0.0;0.11711999773979187;-0.07417599856853485;1.1643680334091187;0.0;0.0;0.0
1626;0.0;0.0;0.0;0.08686399459838867;-0.0663679987192154;1.1477760076522827;0.0;0.0;0.0
1628;-0.02781599946320057;0.07539600133895874;1.0257760286331177;0.10150399804115295;-0.062463998794555664;1.1438720226287842;-4.077499866485596;-3.653125047683716;10.272500038146973
1630;0.0;0.0;0.0;0.10540799796581268;-0.07807999849319458;1.1555839776992798;0.0;0.0;0.0
1632;0.0;0.0;0.0;0.08686399459838867;-0.07027199864387512;1.1477760076522827;0.0;0.0;0.0
1634;0.0;0.0;0.0;0.05953599885106087;-0.058559998869895935;1.1272799968719482;0.0;0.0;0.0
1636;-0.04001599922776222;0.06465999782085419;1.0116239786148071;0.08686399459838867;-0.0663679987192154;1.132159948348999;-4.707499980926514;-2.953125;10.762499809265137
1639;0.0;0.0;0.0;0.05563199892640114;-0.07027199864387512;1.1194720268249512;0.0;0.0;0.0
1641;0.0;0.0;0.0;0.03611199930310249;-0.08588799834251404;1.1233760118484497;0.0;0.0;0.0
1643;0.0;0.0;0.0;0.05953599885106087;-0.08198399841785431;1.1116639375686646;0.0;0.0;0.0
1645;-0.051239997148513794;0.05441199988126755;0.9891759753227234;0.04001599922776222;-0.0936959981918335;1.09116792678833;-3.6575000286102295;-3.8631248474121094;10.97249984741211
1647;0.0;0.0;0.0;0.06734399497509003;-0.08198399841785431;1.1116639375686646;0.0;0.0;0.0
1649;0.0;0.0;0.0;0.08686399459838867;-0.07807999849319458;1.083359956741333;0.0;0.0;0.0
1651;0.0;0.0;0.0;0.08686399459838867;-0.07417599856853485;1.0989760160446167;0.0;0.0;0.0
1653;-0.048555999994277954;0.04636000096797943;0.9659959673881531;0.0907679945230484;-0.0663679987192154;1.0706720352172852;-2.3274998664855957;-4.563125133514404;10.482500076293945
1656;0.0;0.0;0.0;0.10540799796581268;-0.08979199826717377;1.083359956741333;0.0;0.0;0.0
1658;0.0;0.0;0.0;0.0907679945230484;-0.07417599856853485;1.0784800052642822;0.0;0.0;0.0
1660;0.0;0.0;0.0;0.10540799796581268;-0.08588799834251404;1.0501760244369507;0.0;0.0;0.0
1662;-0.031231999397277832;0.054899998009204865;0.9442799687385559;0.09759999811649323;-0.07417599856853485;1.0589599609375;-1.2075001001358032;-4.42312479019165;10.202500343322754
1664;0.0;0.0;0.0;0.09467199444770813;-0.08198399841785431;1.0462720394134521;0.0;0.0;0.0
1666;0.0;0.0;0.0;0.11321599781513214;-0.058559998869895935;1.0589599609375;0.0;0.0;0.0
1668;0.0;0.0;0.0;0.10247999429702759;-0.062463998794555664;1.0628639459609985;0.0;0.0;0.0
1670;-0.017324000597000122;0.062463998794555664;0.9264679551124573;0.09467199444770813;-0.058559998869895935;1.0462720394134521;-0.017500000074505806;-1.0631248950958252;9.782500267028809
1673;0.0;0.0;0.0;0.08686399459838867;-0.07417599856853485;1.0540800094604492;0.0;0.0;0.0
1675;0.0;0.0;0.0;0.09857599437236786;-0.07807999849319458;1.0589599609375;0.0;0.0;0.0
1677;0.0;0.0;0.0;0.10540799796581268;-0.07417599856853485;1.0462720394134521;0.0;0.0;0.0
1679;-0.022935999557375908;0.06588000059127808;0.9271999597549438;0.08686399459838867;-0.07417599856853485;1.0628639459609985;1.1024999618530273;0.19687500596046448;10.482500076293945
1681;0.0;0.0;0.0;0.09467199444770813;-0.07417599856853485;1.042367935180664;0.0;0.0;0.0
1683;0.0;0.0;0.0;0.0907679945230484;-0.03513599932193756;1.0462720394134521;0.0;0.0;0.0
1685;0.0;0.0;0.0;0.08686399459838867;-0.054655998945236206;1.0628639459609985;0.0;0.0;0.0
1687;-0.017079999670386314;0.06173199787735939;0.9242720007896423;0.10540799796581268;-0.12492799758911133;1.0218719244003296;1.9424999952316284;-1.0631248950958252;12.512499809265137
1690;0.0;0.0;0.0;0.10247999429702759;-0.08588799834251404;1.0140639543533325;0.0;0.0;0.0
1692;0.0;0.0;0.0;0.07905599474906921;-0.015615999698638916;1.0550559759140015;0.0;0.0;0.0
1694;0.0;0.0;0.0;0.11321599781513214;-0.03513599932193756;1.0589599609375;0.0;0.0;0.0
1696;-0.02147199958562851;0.07368800044059753;0.9176839590072632;0.10931199789047241;-0.054655998945236206;1.0628639459609985;4.532500267028809;-0.7831249833106995;13.772500038146973
1698;0.0;0.0;0.0;0.12883199751377106;-0.062463998794555664;1.0501760244369507;0.0;0.0;0.0
1700;0.0;0.0;0.0;0.1298079937696457;-0.07027199864387512;1.066767930984497;0.0;0.0;0.0
1702;0.0;0.0;0.0;0.12883199751377106;-0.07417599856853485;1.0628639459609985;0.0;0.0;0.0
1704;-0.004635999910533428;0.07807999849319458;0.9376919865608215;0.08295999467372894;-0.03513599932193756;1.0589599609375;4.672500133514404;-0.9931250214576721;15.522500038146973
1707;0.0;0.0;0.0;0.12883199751377106;-0.058559998869895935;1.0589599609375;0.0;0.0;0.0
1709;0.0;0.0;0.0;0.1210239976644516;-0.0663679987192154;1.042367935180664;0.0;0.0;0.0
1711;0.0;0.0;0.0;0.08295999467372894;-0.058559998869895935;1.066767930984497;0.0;0.0;0.0
1713;-0.015615999698638916;0.07685999572277069;0.9315919876098633;0.09467199444770813;-0.054655998945236206;1.0706720352172852;5.232500076293945;-0.15312500298023224;17.27250099182129
1715;0.0;0.0;0.0;0.11321599781513214;-0.08198399841785431;1.066767930984497;0.0;0.0;0.0
1717;0.0;0.0;0.0;0.10150399804115295;-0.04684799909591675;1.09116792678833;0.0;0.0;0.0
1719;0.0;0.0;0.0;0.09467199444770813;-0.054655998945236206;1.0628639459609985;0.0;0.0;0.0
1721;-0.018055999651551247;0.0773480013012886;0.9467200040817261;0.1327359974384308;-0.062463998794555664;1.09116792678833;6.84250020980835;-1.3431249856948853;19.232500076293945
1724;0.0;0.0;0.0;0.10540799796581268;-0.03513599932193756;1.0794559717178345;0.0;0.0;0.0
1726;0.0;0.0;0.0;0.1180959939956665;-0.07417599856853485;1.0872639417648315;0.0;0.0;0.0
1728;0.0;0.0;0.0;0.10540799796581268;-0.054655998945236206;1.0950720310211182;0.0;0.0;0.0
1730;-0.015859998762607574;0.07441999763250351;0.9620919823646545;0.0936959981918335;-0.0663679987192154;1.0989760160446167;7.892499923706055;-1.203125;21.40250015258789
1732;0.0;0.0;0.0;0.10540799796581268;-0.09272000193595886;1.1038559675216675;0.0;0.0;0.0
1734;0.0;0.0;0.0;0.10443200170993805;-0.049775999039411545;1.1204479932785034;0.0;0.0;0.0
1736;0.0;0.0;0.0;0.10150399804115295;-0.08100800216197968;1.132159948348999;0.0;0.0;0.0
1738;-0.018300000578165054;0.05563199892640114;0.9852719902992249;0.09759999811649323;-0.0849120020866394;1.1126400232315063;7.402500152587891;-2.393125057220459;23.362499237060547
1741;0.0;0.0;0.0;0.11224000155925751;-0.0849120020866394;1.1038559675216675;0.0;0.0;0.0
1743;0.0;0.0;0.0;0.07417599856853485;-0.08100800216197968;1.1165440082550049;0.0;0.0;0.0
1745;0.0;0.0;0.0;0.10443200170993805;-0.09272000193595886;1.1087360382080078;0.0;0.0;0.0
1747;-0.02659599855542183;0.03806399926543236;0.9921039938926697;0.10150399804115295;-0.08881600201129913;1.1165440082550049;4.742500305175781;-2.463124990463257;25.1825008392334
1749;0.0;0.0;0.0;0.06734399497509003;-0.08588799834251404;1.115567922592163;0.0;0.0;0.0
1751;0.0;0.0;0.0;0.0907679945230484;-0.11711999773979187;1.083359956741333;0.0;0.0;0.0
1753;0.0;0.0;0.0;0.08295999467372894;-0.10150399804115295;1.1116639375686646;0.0;0.0;0.0
1756;-0.031964000314474106;0.0331839993596077;0.9786840081214905;0.0907679945230484;-0.10540799796581268;1.107759952545166;2.3625001907348633;-0.503125011920929;24.692501068115234
1758;0.0;0.0;0.0;0.07515199482440948;-0.10931199789047241;1.0872639417648315;0.0;0.0;0.0
1760;0.0;0.0;0.0;0.11321599781513214;-0.1210239976644516;1.0872639417648315;0.0;0.0;0.0
1762;0.0;0.0;0.0;0.10540799796581268;-0.10931199789047241;1.1028800010681152;0.0;0.0;0.0
1764;-0.03294000029563904;0.028547998517751694;0.9662399888038635;0.07515199482440948;-0.11321599781513214;1.0872639417648315;0.5425000190734863;3.1368751525878906;23.362499237060547
1766;0.0;0.0;0.0;0.09759999811649323;-0.1395680010318756;1.0882400274276733;0.0;0.0;0.0
1768;0.0;0.0;0.0;0.08588799834251404;-0.10833600163459778;1.0804319381713867;0.0;0.0;0.0
1770;0.0;0.0;0.0;0.058559998869895935;-0.11224000155925751;1.099951982498169;0.0;0.0;0.0
1773;-0.03903999924659729;0.01903199963271618;0.9552599787712097;0.10443200170993805;-0.10052800178527832;1.0843359231948853;0.05250000208616257;4.606874942779541;22.52250099182129
1775;0.0;0.0;0.0;0.058559998869895935;-0.11224000155925751;1.0921440124511719;0.0;0.0;0.0
1777;0.0;0.0;0.0;0.0663679987192154;-0.13176000118255615;1.0716480016708374;0.0;0.0;0.0
1779;0.0;0.0;0.0;0.0663679987192154;-0.11614400148391724;1.0843359231948853;0.0;0.0;0.0
1781;-0.04391999915242195;0.019763998687267303;0.9594079852104187;0.09759999811649323;-0.12004800140857697;1.0677440166473389;1.5924999713897705;3.556874990463257;22.942501068115234
1783;0.0;0.0;0.0;0.11028799414634705;-0.1210239976644516;1.09116792678833;0.0;0.0;0.0
1785;0.0;0.0;0.0;0.09857599437236786;-0.12492799758911133;1.1067839860916138;0.0;0.0;0.0
1787;0.0;0.0;0.0;0.09467199444770813;-0.12492799758911133;1.0784800052642822;0.0;0.0;0.0
1790;-0.0331839993596077;0.009759999811649323;0.9545279741287231;0.08295999467372894;-0.12883199751377106;1.083359956741333;4.322500228881836;2.226875066757202;23.362499237060547
1792;0.0;0.0;0.0;0.09857599437236786;-0.1210239976644516;1.0745760202407837;0.0;0.0;0.0
1794;0.0;0.0;0.0;0.07905599474906921;-0.12492799758911133;1.0872639417648315;0.0;0.0;0.0
1796;0.0;0.0;0.0;0.11711999773979187;-0.1327359974384308;1.107759952545166;0.0;0.0;0.0
1798;-0.03611199930310249;0.00878399983048439;0.9596520066261292;0.08686399459838867;-0.12883199751377106;1.083359956741333;7.332499980926514;1.6668751239776611;23.642499923706055
1800;0.0;0.0;0.0;0.09662400186061859;-0.11224000155925751;1.0921440124511719;0.0;0.0;0.0
1802;0.0;0.0;0.0;0.0663679987192154;-0.10833600163459778;1.0882400274276733;0.0;0.0;0.0
1804;0.0;0.0;0.0;0.09759999811649323;-0.12004800140857697;1.0716480016708374;0.0;0.0;0.0
1807;-0.037087999284267426;0.01634800061583519;0.9569680094718933;0.09662400186061859;-0.11614400148391724;1.0882400274276733;9.082500457763672;1.4568750858306885;23.712499618530273
1809;0.0;0.0;0.0;0.10150399804115295;-0.09662400186061859;1.0843359231948853;0.0;0.0;0.0
1811;0.0;0.0;0.0;0.05075199902057648;-0.08881600201129913;1.0960479974746704;0.0;0.0;0.0
1813;0.0;0.0;0.0;0.058559998869895935;-0.10833600163459778;1.1204479932785034;0.0;0.0;0.0
1815;-0.04684799909591675;0.03513599932193756;0.966484010219574;0.08588799834251404;-0.10052800178527832;1.1126400232315063;10.6225004196167;1.2468750476837158;23.362499237060547
1817;0.0;0.0;0.0;0.07807999849319458;-0.09272000193595886;1.1282559633255005;0.0;0.0;0.0
1819;0.0;0.0;0.0;0.058559998869895935;-0.10443200170993805;1.099951982498169;0.0;0.0;0.0
1821;0.0;0.0;0.0;0.062463998794555664;-0.057583998888731;1.1087360382080078;0.0;0.0;0.0
1824;-0.044895999133586884;0.04172400012612343;0.9677039980888367;0.08588799834251404;-0.0849120020866394;1.0921440124511719;10.0625;-0.9931250214576721;23.15250015258789
1826;0.0;0.0;0.0;0.07807999849319458;-0.0849120020866394;1.1126400232315063;0.0;0.0;0.0
1828;0.0;0.0;0.0;0.10052800178527832;-0.0849120020866394;1.1165440082550049;0.0;0.0;0.0
1830;0.0;0.0;0.0;0.08198399841785431;-0.0849120020866394;1.1370400190353394;0.0;0.0;0.0
1832;-0.027327999472618103;0.048555999994277954;0.9913719892501831;0.12004800140857697;-0.08100800216197968;1.1370400190353394;9.082500457763672;-2.813124895095825;22.942501068115234
1834;0.0;0.0;0.0;0.10833600163459778;-0.06148799881339073;1.132159948348999;0.0;0.0;0.0
1836;0.0;0.0;0.0;0.12785600125789642;-0.08100800216197968;1.132159948348999;0.0;0.0;0.0
1838;0.0;0.0;0.0;0.11614400148391724;-0.06539200246334076;1.1370400190353394;0.0;0.0;0.0
1841;-0.0019519999623298645;0.05245999991893768;1.0113799571990967;0.1512800008058548;-0.09272000193595886;1.124351978302002;8.172499656677246;-2.5331249237060547;23.362499237060547
1843;0.0;0.0;0.0;0.12785600125789642;-0.08881600201129913;1.148751974105835;0.0;0.0;0.0
1845;0.0;0.0;0.0;0.1395680010318756;-0.10052800178527832;1.173151969909668;0.0;0.0;0.0
1847;0.0;0.0;0.0;0.0936959981918335;-0.10443200170993805;1.1692479848861694;0.0;0.0;0.0
1849;-0.0014639999717473984;0.04636000096797943;1.0250439643859863;0.10443200170993805;-0.09272000193595886;1.132159948348999;6.84250020980835;0.6868749856948853;23.782499313354492
1851;0.0;0.0;0.0;0.14347200095653534;-0.09662400186061859;1.132159948348999;0.0;0.0;0.0
1853;0.0;0.0;0.0;0.08588799834251404;-0.0849120020866394;1.1526559591293335;0.0;0.0;0.0
1855;0.0;0.0;0.0;0.10833600163459778;-0.09662400186061859;1.132159948348999;0.0;0.0;0.0
1858;-0.009271999821066856;0.03684400022029877;1.0106480121612549;0.10540799796581268;-0.10443200170993805;1.1614400148391724;4.882500171661377;3.2768750190734863;24.552499771118164
1860;0.0;0.0;0.0;0.10052800178527832;-0.10833600163459778;1.1448479890823364;0.0;0.0;0.0
1862;0.0;0.0;0.0;0.08588799834251404;-0.10443200170993805;1.1282559633255005;0.0;0.0;0.0
1864;0.0;0.0;0.0;0.08198399841785431;-0.06929600238800049;1.099951982498169;0.0;0.0;0.0
1866;-0.03391600027680397;0.03245199844241142;1.00381600856781;0.07027199864387512;-0.10443200170993805;1.1165440082550049;1.662500023841858;5.586874961853027;24.202499389648438
1868;0.0;0.0;0.0;0.062463998794555664;-0.09272000193595886;1.1204479932785034;0.0;0.0;0.0
1870;0.0;0.0;0.0;0.07027199864387512;-0.09662400186061859;1.1038559675216675;0.0;0.0;0.0
1872;0.0;0.0;0.0;0.07417599856853485;-0.10052800178527832;1.1165440082550049;0.0;0.0;0.0
1875;-0.05050799995660782;0.040991999208927155;0.98990797996521;0.0663679987192154;-0.07710400223731995;1.1165440082550049;-0.7174999713897705;7.336874961853027;22.452499389648438
1877;0.0;0.0;0.0;0.05075199902057648;-0.0849120020866394;1.1126400232315063;0.0;0.0;0.0
1879;0.0;0.0;0.0;0.062463998794555664;-0.07710400223731995;1.124351978302002;0.0;0.0;0.0
1881;0.0;0.0;0.0;0.07417599856853485;-0.09272000193595886;1.0843359231948853;0.0;0.0;0.0
1883;-0.05197199806571007;0.05026400089263916;0.9852719902992249;0.062463998794555664;-0.06539200246334076;1.124351978302002;-0.8575000166893005;7.336874961853027;20.842500686645508
1885;0.0;0.0;0.0;0.08198399841785431;-0.09272000193595886;1.0960479974746704;0.0;0.0;0.0
1887;0.0;0.0;0.0;0.054655998945236206;-0.08881600201129913;1.1038559675216675;0.0;0.0;0.0
1889;0.0;0.0;0.0;0.062463998794555664;-0.09272000193595886;1.0921440124511719;0.0;0.0;0.0
1892;-0.040748000144958496;0.05270399898290634;0.9781959652900696;0.09759999811649323;-0.07320000231266022;1.099951982498169;0.12250000238418579;6.006875038146973;20.77250099182129
1894;0.0;0.0;0.0;0.09272000193595886;-0.09272000193595886;1.0882400274276733;0.0;0.0;0.0
1896;0.0;0.0;0.0;0.08588799834251404;-0.10443200170993805;1.1038559675216675;0.0;0.0;0.0
1898;0.0;0.0;0.0;0.08979199826717377;-0.057583998888731;1.1204479932785034;0.0;0.0;0.0
1900;-0.03171999752521515;0.057339999824762344;0.974291980266571;0.08588799834251404;-0.04196799919009209;1.0921440124511719;0.8925000429153442;5.446875095367432;21.122499465942383
1902;0.0;0.0;0.0;0.09759999811649323;-0.049775999039411545;1.099951982498169;0.0;0.0;0.0
1904;0.0;0.0;0.0;0.0936959981918335;-0.09272000193595886;1.099951982498169;0.0;0.0;0.0
1906;0.0;0.0;0.0;0.07417599856853485;-0.08100800216197968;1.1165440082550049;0.0;0.0;0.0
1909;-0.03147599846124649;0.060999996960163116;0.9772199988365173;0.0663679987192154;-0.08100800216197968;1.140944004058838;1.3824999332427979;6.286875247955322;21.122499465942383
1911;0.0;0.0;0.0;0.09759999811649323;-0.049775999039411545;1.1282559633255005;0.0;0.0;0.0
1913;0.0;0.0;0.0;0.08198399841785431;-0.07320000231266022;1.099951982498169;0.0;0.0;0.0
1915;0.0;0.0;0.0;0.07807999849319458;-0.07710400223731995;1.1282559633255005;0.0;0.0;0.0
1917;-0.04294399917125702;0.06295199692249298;0.9903959631919861;0.054655998945236206;-0.08100800216197968;1.1126400232315063;2.0824999809265137;6.636875152587891;21.122499465942383
1919;0.0;0.0;0.0;0.08588799834251404;-0.09272000193595886;1.1448479890823364;0.0;0.0;0.0
1921;0.0;0.0;0.0;0.054655998945236206;-0.053679998964071274;1.1331360340118408;0.0;0.0;0.0
1923;0.0;0.0;0.0;0.07807999849319458;-0.08100800216197968;1.1282559633255005;0.0;0.0;0.0
1926;-0.05636399984359741;0.060999996960163116;0.9999119639396667;0.027327999472618103;-0.053679998964071274;1.132159948348999;2.8525002002716064;5.236875057220459;21.542499542236328
1928;0.0;0.0;0.0;0.054655998945236206;-0.07320000231266022;1.140944004058838;0.0;0.0;0.0
1930;0.0;0.0;0.0;0.019519999623298645;-0.07710400223731995;1.1331360340118408;0.0;0.0;0.0
1932;0.0;0.0;0.0;0.05075199902057648;-0.07320000231266022;1.124351978302002;0.0;0.0;0.0
1934;-0.07368800044059753;0.0605119988322258;1.0094280242919922;0.03513599932193756;-0.08100800216197968;1.1448479890823364;3.9025001525878906;2.926875114440918;21.6825008392334
1936;0.0;0.0;0.0;0.062463998794555664;-0.08881600201129913;1.156559944152832;0.0;0.0;0.0
1938;0.0;0.0;0.0;0.04294399917125702;-0.053679998964071274;1.1448479890823364;0.0;0.0;0.0
1941;0.0;0.0;0.0;0.054655998945236206;-0.07710400223731995;1.140944004058838;0.0;0.0;0.0
1943;-0.06954000145196915;0.06270799785852432;1.0216280221939087;0.04684799909591675;-0.07320000231266022;1.140944004058838;4.952499866485596;0.6868749856948853;21.962499618530273
1945;0.0;0.0;0.0;0.03513599932193756;-0.07320000231266022;1.148751974105835;0.0;0.0;0.0
1947;0.0;0.0;0.0;0.03903999924659729;-0.057583998888731;1.1448479890823364;0.0;0.0;0.0
1949;0.0;0.0;0.0;0.03513599932193756;-0.057583998888731;1.1692479848861694;0.0;0.0;0.0
1951;-0.08173999935388565;0.059779997915029526;1.0201640129089355;0.019519999623298645;-0.053679998964071274;1.1526559591293335;6.5625;-0.9231250286102295;22.452499389648438
1953;0.0;0.0;0.0;0.007807999849319458;-0.06539200246334076;1.1448479890823364;0.0;0.0;0.0
1955;0.0;0.0;0.0;0.007807999849319458;-0.08100800216197968;1.1526559591293335;0.0;0.0;0.0
1957;0.0;0.0;0.0;0.04294399917125702;-0.06539200246334076;1.140944004058838;0.0;0.0;0.0
1960;-0.09491600096225739;0.0710039958357811;1.0187000036239624;0.015615999698638916;-0.053679998964071274;1.165343999862671;7.682499885559082;-2.253124952316284;22.802499771118164
1962;0.0;0.0;0.0;0.019519999623298645;-0.053679998964071274;1.140944004058838;0.0;0.0;0.0
1964;0.0;0.0;0.0;0.04684799909591675;-0.057583998888731;1.1282559633255005;0.0;0.0;0.0
1966;0.0;0.0;0.0;0.058559998869895935;-0.053679998964071274;1.132159948348999;0.0;0.0;0.0
1968;-0.07441999763250351;0.07124799489974976;1.0113799571990967;0.031231999397277832;-0.07710400223731995;1.1526559591293335;6.492500305175781;-2.813124895095825;21.122499465942383
1970;0.0;0.0;0.0;0.07807999849319458;-0.049775999039411545;1.1331360340118408;0.0;0.0;0.0
1972;0.0;0.0;0.0;0.054655998945236206;-0.07320000231266022;1.1370400190353394;0.0;0.0;0.0
1975;0.0;0.0;0.0;0.0663679987192154;-0.06148799881339073;1.140944004058838;0.0;0.0;0.0
1977;-0.05660799890756607;0.07320000231266022;1.0084519386291504;0.062463998794555664;-0.053679998964071274;1.1614400148391724;4.672500133514404;-0.43312501907348633;19.792499542236328
1979;0.0;0.0;0.0;0.054655998945236206;-0.07320000231266022;1.124351978302002;0.0;0.0;0.0
1981;0.0;0.0;0.0;0.04294399917125702;-0.045871999114751816;1.132159948348999;0.0;0.0;0.0
1983;0.0;0.0;0.0;0.0663679987192154;-0.07320000231266022;1.148751974105835;0.0;0.0;0.0
1985;-0.05831599980592728;0.07515199482440948;1.020651936531067;0.05075199902057648;-0.08100800216197968;1.1526559591293335;2.7825000286102295;0.6168749928474426;19.162500381469727
1987;0.0;0.0;0.0;0.03903999924659729;-0.06148799881339073;1.1614400148391724;0.0;0.0;0.0
1990;0.0;0.0;0.0;0.054655998945236206;-0.0849120020866394;1.1448479890823364;0.0;0.0;0.0
1992;0.0;0.0;0.0;0.027327999472618103;-0.057583998888731;1.140944004058838;0.0;0.0;0.0
1994;-0.06709999591112137;0.06612399965524673;1.0216280221939087;0.05075199902057648;-0.09662400186061859;1.140944004058838;0.1925000101327896;-0.7131249904632568;18.392499923706055
1996;0.0;0.0;0.0;0.054655998945236206;-0.06539200246334076;1.1692479848861694;0.0;0.0;0.0
1998;0.0;0.0;0.0;0.05075199902057648;-0.11614400148391724;1.1614400148391724;0.0;0.0;0.0
2000;0.0;0.0;0.0;0.04684799909591675;-0.08100800216197968;1.1692479848861694;0.0;0.0;0.0
2002;-0.06490399688482285;0.049531999975442886;1.020651936531067;0.054655998945236206;-0.10052800178527832;1.1370400190353394;-2.3975000381469727;-1.0631248950958252;16.292499542236328
2004;0.0;0.0;0.0;0.07027199864387512;-0.06929600238800049;1.140944004058838;0.0;0.0;0.0
2006;0.0;0.0;0.0;0.08198399841785431;-0.11614400148391724;1.148751974105835;0.0;0.0;0.0
2009;0.0;0.0;0.0;0.07807999849319458;-0.10833600163459778;1.148751974105835;0.0;0.0;0.0
2011;-0.06368400156497955;0.03855200111865997;1.0213840007781982;0.07027199864387512;-0.10833600163459778;1.148751974105835;-4.497499942779541;-0.2931250035762787;13.702500343322754
2013;0.0;0.0;0.0;0.04684799909591675;-0.12785600125789642;1.148751974105835;0.0;0.0;0.0
2015;0.0;0.0;0.0;0.05075199902057648;-0.10443200170993805;1.156559944152832;0.0;0.0;0.0
2017;0.0;0.0;0.0;0.0663679987192154;-0.10833600163459778;1.1282559633255005;0.0;0.0;0.0
2019;-0.06465999782085419;0.025863999500870705;1.0174800157546997;0.054655998945236206;-0.1395680010318756;1.140944004058838;-5.617499828338623;-0.503125011920929;11.392499923706055
2021;0.0;0.0;0.0;0.04294399917125702;-0.10052800178527832;1.1526559591293335;0.0;0.0;0.0
2023;0.0;0.0;0.0;0.04294399917125702;-0.12004800140857697;1.1282559633255005;0.0;0.0;0.0
2026;0.0;0.0;0.0;0.08198399841785431;-0.10443200170993805;1.1126400232315063;0.0;0.0;0.0
2028;-0.05245999991893768;0.023180000483989716;1.0052800178527832;0.0663679987192154;-0.10443200170993805;1.1087360382080078;-6.317500114440918;-2.1831250190734863;9.22249984741211
2030;0.0;0.0;0.0;0.08198399841785431;-0.11224000155925751;1.1165440082550049;0.0;0.0;0.0
2032;0.0;0.0;0.0;0.08588799834251404;-0.11224000155925751;1.099951982498169;0.0;0.0;0.0
2034;0.0;0.0;0.0;0.08198399841785431;-0.10052800178527832;1.099951982498169;0.0;0.0;0.0
2036;-0.025863999500870705;0.019519999623298645;0.9869799613952637;0.10150399804115295;-0.11614400148391724;1.1038559675216675;-5.967499732971191;-2.6731250286102295;8.242500305175781
2038;0.0;0.0;0.0;0.1210239976644516;-0.11711999773979187;1.09116792678833;0.0;0.0;0.0
2040;0.0;0.0;0.0;0.10931199789047241;-0.10931199789047241;1.0872639417648315;0.0;0.0;0.0
2043;0.0;0.0;0.0;0.08686399459838867;-0.11711999773979187;1.0989760160446167;0.0;0.0;0.0
2045;-0.013419999741017818;0.019519999623298645;0.9752680063247681;0.11711999773979187;-0.11711999773979187;1.107759952545166;-4.357500076293945;-2.6031248569488525;8.592499732971191
2047;0.0;0.0;0.0;0.11711999773979187;-0.10931199789047241;1.083359956741333;0.0;0.0;0.0
2049;0.0;0.0;0.0;0.11711999773979187;-0.11321599781513214;1.0950720310211182;0.0;0.0;0.0
2051;0.0;0.0;0.0;0.1210239976644516;-0.10150399804115295;1.107759952545166;0.0;0.0;0.0
2053;-0.015615999698638916;0.025863999500870705;0.9713639616966248;0.10540799796581268;-0.10150399804115295;1.0745760202407837;-1.9075000286102295;-3.3731250762939453;9.572500228881836
2055;0.0;0.0;0.0;0.10540799796581268;-0.10052800178527832;1.107759952545166;0.0;0.0;0.0
2057;0.0;0.0;0.0;0.0849120020866394;-0.09662400186061859;1.1126400232315063;0.0;0.0;0.0
2060;0.0;0.0;0.0;0.10443200170993805;-0.08881600201129913;1.1038559675216675;0.0;0.0;0.0
2062;-0.022204000502824783;0.04123599827289581;0.9703879952430725;0.11224000155925751;-0.057583998888731;1.0960479974746704;0.4025000035762787;-4.983124732971191;10.762499809265137
2064;0.0;0.0;0.0;0.11224000155925751;-0.09272000193595886;1.075551986694336;0.0;0.0;0.0
2066;0.0;0.0;0.0;0.1239520013332367;-0.06929600238800049;1.1126400232315063;0.0;0.0;0.0
2068;0.0;0.0;0.0;0.12004800140857697;-0.06929600238800049;1.099951982498169;0.0;0.0;0.0
2070;-0.010735999792814255;0.054899998009204865;0.9762439727783203;0.10150399804115295;-0.08100800216197968;1.0716480016708374;1.03249990940094;-6.103125095367432;11.952500343322754
2072;0.0;0.0;0.0;0.1239520013332367;-0.06929600238800049;1.1126400232315063;0.0;0.0;0.0
2074;0.0;0.0;0.0;0.13566400110721588;-0.08100800216197968;1.1126400232315063;0.0;0.0;0.0
2077;0.0;0.0;0.0;0.10833600163459778;-0.08881600201129913;1.1165440082550049;0.0;0.0;0.0
2079;0.0019519999623298645;0.0651479959487915;0.9830759763717651;0.14347200095653534;-0.053679998964071274;1.0921440124511719;0.8225000500679016;-5.613124847412109;13.282500267028809
2081;0.0;0.0;0.0;0.11711999773979187;-0.06148799881339073;1.1165440082550049;0.0;0.0;0.0
2083;0.0;0.0;0.0;0.11224000155925751;-0.06539200246334076;1.1282559633255005;0.0;0.0;0.0
2085;0.0;0.0;0.0;0.1239520013332367;-0.06929600238800049;1.124351978302002;0.0;0.0;0.0
2087;0.0009759999811649323;0.0697840005159378;0.994055986404419;0.1210239976644516;-0.06148799881339073;1.1204479932785034;-0.1574999988079071;-4.143125057220459;14.96250057220459
2089;0.0;0.0;0.0;0.12883199751377106;-0.062463998794555664;1.1360639333724976;0.0;0.0;0.0
2091;0.0;0.0;0.0;0.11321599781513214;-0.03513599932193756;1.1311839818954468;0.0;0.0;0.0
2094;0.0;0.0;0.0;0.0907679945230484;-0.05075199902057648;1.1194720268249512;0.0;0.0;0.0
2096;-0.010491999797523022;0.07027199864387512;0.9952759742736816;0.12492799758911133;-0.054655998945236206;1.1116639375686646;-1.4875000715255737;-3.3031249046325684;16.15250015258789
2098;0.0;0.0;0.0;0.10638399422168732;-0.10150399804115295;1.1233760118484497;0.0;0.0;0.0
2100;0.0;0.0;0.0;0.0907679945230484;-0.058559998869895935;1.1272799968719482;0.0;0.0;0.0
2102;0.0;0.0;0.0;0.08979199826717377;-0.0663679987192154;1.1194720268249512;0.0;0.0;0.0
2104;-0.01634800061583519;0.06661199778318405;0.9977160096168518;0.09759999811649323;-0.04294399917125702;1.1272799968719482;-3.0974998474121094;-2.393125057220459;16.572500228881836
2106;0.0;0.0;0.0;0.10540799796581268;-0.07710400223731995;1.1331360340118408;0.0;0.0;0.0
2108;0.0;0.0;0.0;0.11224000155925751;-0.07710400223731995;1.1282559633255005;0.0;0.0;0.0
2111;0.0;0.0;0.0;0.09759999811649323;-0.07710400223731995;1.1370400190353394;0.0;0.0;0.0
2113;-0.01878799870610237;0.058559998869895935;0.9957639575004578;0.0936959981918335;-0.057583998888731;1.140944004058838;-4.707499980926514;-1.3431249856948853;16.362499237060547
2115;0.0;0.0;0.0;0.12004800140857697;-0.09662400186061859;1.132159948348999;0.0;0.0;0.0
2117;0.0;0.0;0.0;0.09662400186061859;-0.0849120020866394;1.1282559633255005;0.0;0.0;0.0
2119;0.0;0.0;0.0;0.09759999811649323;-0.10443200170993805;1.124351978302002;0.0;0.0;0.0
2121;-0.018543999642133713;0.044895999133586884;0.9947879910469055;0.08588799834251404;-0.10833600163459778;1.124351978302002;-5.477499961853027;-0.8531250357627869;16.15250015258789
2124;0.0;0.0;0.0;0.11614400148391724;-0.10833600163459778;1.124351978302002;0.0;0.0;0.0
2125;0.0;0.0;0.0;0.08588799834251404;-0.10052800178527832;1.1087360382080078;0.0;0.0;0.0
2128;0.0;0.0;0.0;0.11614400148391724;-0.06929600238800049;1.1165440082550049;0.0;0.0;0.0
2130;-0.019519999623298645;0.03294000029563904;0.9891759753227234;0.11321599781513214;-0.09662400186061859;1.1126400232315063;-5.477499961853027;-0.503125011920929;16.082500457763672
2132;0.0;0.0;0.0;0.08979199826717377;-0.10052800178527832;1.0960479974746704;0.0;0.0;0.0
2134;0.0;0.0;0.0;0.10540799796581268;-0.10833600163459778;1.1204479932785034;0.0;0.0;0.0
2136;0.0;0.0;0.0;0.1395680010318756;-0.10833600163459778;1.1038559675216675;0.0;0.0;0.0
2138;-0.02147199958562851;0.02635199949145317;0.982587993144989;0.09759999811649323;-0.13566400110721588;1.0921440124511719;-4.917500019073486;-0.9931250214576721;16.15250015258789
2141;0.0;0.0;0.0;0.10150399804115295;-0.08881600201129913;1.1126400232315063;0.0;0.0;0.0
2142;0.0;0.0;0.0;0.07417599856853485;-0.11224000155925751;1.1038559675216675;0.0;0.0;0.0
2145;0.0;0.0;0.0;0.09662400186061859;-0.10052800178527832;1.1087360382080078;0.0;0.0;0.0
2147;-0.028547998517751694;0.02659599855542183;0.9794159531593323;0.054655998945236206;-0.10833600163459778;1.1038559675216675;-4.147500038146973;-2.1131248474121094;16.15250015258789
2149;0.0;0.0;0.0;0.08588799834251404;-0.11224000155925751;1.1038559675216675;0.0;0.0;0.0
2151;0.0;0.0;0.0;0.07807999849319458;-0.13176000118255615;1.1087360382080078;0.0;0.0;0.0
2153;0.0;0.0;0.0;0.08979199826717377;-0.11224000155925751;1.1087360382080078;0.0;0.0;0.0
2155;-0.03001200035214424;0.022204000502824783;0.9779520034790039;0.0936959981918335;-0.11614400148391724;1.1038559675216675;-3.5874998569488525;-3.583124876022339;15.522500038146973
2158;0.0;0.0;0.0;0.10150399804115295;-0.12004800140857697;1.1087360382080078;0.0;0.0;0.0
2160;0.0;0.0;0.0;0.10833600163459778;-0.11614400148391724;1.0921440124511719;0.0;0.0;0.0
2162;0.0;0.0;0.0;0.12004800140857697;-0.14347200095653534;1.0794559717178345;0.0;0.0;0.0
2164;-0.026108000427484512;0.01195599976927042;0.9674599766731262;0.08588799834251404;-0.13176000118255615;1.0794559717178345;-3.307499885559082;-3.583124876022339;13.772500038146973
2166;0.0;0.0;0.0;0.10931199789047241;-0.13566400110721588;1.0804319381713867;0.0;0.0;0.0
2168;0.0;0.0;0.0;0.10443200170993805;-0.15908800065517426;1.0716480016708374;0.0;0.0;0.0
2170;0.0;0.0;0.0;0.08588799834251404;-0.14347200095653534;1.0921440124511719;0.0;0.0;0.0
2172;-0.01878799870610237;0.005123999901115894;0.9608719944953918;0.10443200170993805;-0.13176000118255615;1.075551986694336;-2.817499876022339;-3.0931248664855957;11.952500343322754
2175;0.0;0.0;0.0;0.08979199826717377;-0.13566400110721588;1.0794559717178345;0.0;0.0;0.0
2177;0.0;0.0;0.0;0.10833600163459778;-0.14347200095653534;1.075551986694336;0.0;0.0;0.0
2179;0.0;0.0;0.0;0.11614400148391724;-0.12004800140857697;1.099951982498169;0.0;0.0;0.0
2181;-0.011711999773979187;0.004879999905824661;0.949891984462738;0.1239520013332367;-0.11614400148391724;1.0843359231948853;-2.117499828338623;-2.1831250190734863;10.97249984741211
2183;0.0;0.0;0.0;0.0936959981918335;-0.10443200170993805;1.0677440166473389;0.0;0.0;0.0
2185;0.0;0.0;0.0;0.11614400148391724;-0.12785600125789642;1.0677440166473389;0.0;0.0;0.0
2187;0.0;0.0;0.0;0.12004800140857697;-0.11224000155925751;1.0716480016708374;0.0;0.0;0.0
2189;-0.007563999854028225;0.014639999717473984;0.9423279762268066;0.10150399804115295;-0.12785600125789642;1.0843359231948853;-0.7174999713897705;-1.203125;10.482500076293945
2192;0.0;0.0;0.0;0.10443200170993805;-0.08881600201129913;1.0599359273910522;0.0;0.0;0.0
2194;0.0;0.0;0.0;0.10150399804115295;-0.09662400186061859;1.0716480016708374;0.0;0.0;0.0
2196;0.0;0.0;0.0;0.11711999773979187;-0.09272000193595886;1.075551986694336;0.0;0.0;0.0
2198;-0.008539999835193157;0.02635199949145317;0.9442799687385559;0.10833600163459778;-0.11614400148391724;1.0638400316238403;1.1725000143051147;-0.7831249833106995;10.552499771118164
2200;0.0;0.0;0.0;0.08588799834251404;-0.10052800178527832;1.0716480016708374;0.0;0.0;0.0
2202;0.0;0.0;0.0;0.11224000155925751;-0.10443200170993805;1.0960479974746704;0.0;0.0;0.0
2204;0.0;0.0;0.0;0.11224000155925751;-0.11614400148391724;1.1038559675216675;0.0;0.0;0.0
2206;-0.014639999717473984;0.043431997299194336;0.9535520076751709;0.0936959981918335;-0.10052800178527832;1.099951982498169;3.0625;-2.253124952316284;11.8125
2209;0.0;0.0;0.0;0.10540799796581268;-0.08979199826717377;1.0872639417648315;0.0;0.0;0.0
2211;0.0;0.0;0.0;0.09857599437236786;-0.0663679987192154;1.0784800052642822;0.0;0.0;0.0
2213;0.0;0.0;0.0;0.1210239976644516;-0.058559998869895935;1.115567922592163;0.0;0.0;0.0
2215;-0.015371999703347683;0.05831599980592728;0.9708759784698486;0.09467199444770813;-0.0663679987192154;1.1116639375686646;4.042500019073486;-4.773125171661377;13.632499694824219
2217;0.0;0.0;0.0;0.1210239976644516;-0.07807999849319458;1.1028800010681152;0.0;0.0;0.0
2219;0.0;0.0;0.0;0.10931199789047241;-0.07807999849319458;1.1516799926757812;0.0;0.0;0.0
2221;0.0;0.0;0.0;0.09857599437236786;-0.07807999849319458;1.1311839818954468;0.0;0.0;0.0
2223;-0.010247999802231789;0.06954000145196915;0.9928359985351562;0.12492799758911133;-0.05075199902057648;1.1028800010681152;3.692500114440918;-5.683125019073486;15.032500267028809
2226;0.0;0.0;0.0;0.11321599781513214;-0.062463998794555664;1.139967918395996;0.0;0.0;0.0
2228;0.0;0.0;0.0;0.1180959939956665;-0.062463998794555664;1.1360639333724976;0.0;0.0;0.0
2230;0.0;0.0;0.0;0.07515199482440948;-0.062463998794555664;1.139967918395996;0.0;0.0;0.0
2232;-0.012931999750435352;0.06661199778318405;1.006011962890625;0.10931199789047241;-0.054655998945236206;1.1438720226287842;2.432500123977661;-3.8631248474121094;15.3125
2234;0.0;0.0;0.0;0.09857599437236786;-0.0663679987192154;1.1311839818954468;0.0;0.0;0.0
2236;0.0;0.0;0.0;0.07124799489974976;-0.07417599856853485;1.139967918395996;0.0;0.0;0.0
2238;0.0;0.0;0.0;0.0907679945230484;-0.08198399841785431;1.1311839818954468;0.0;0.0;0.0
2240;-0.027327999472618103;0.05538799986243248;1.0160160064697266;0.07515199482440948;-0.062463998794555664;1.139967918395996;1.3125;-1.2731249332427979;14.47249984741211
2243;0.0;0.0;0.0;0.08588799834251404;-0.10443200170993805;1.1370400190353394;0.0;0.0;0.0
2245;0.0;0.0;0.0;0.07807999849319458;-0.10443200170993805;1.148751974105835;0.0;0.0;0.0
2247;0.0;0.0;0.0;0.0663679987192154;-0.06929600238800049;1.1331360340118408;0.0;0.0;0.0
2249;-0.04196799919009209;0.04367600008845329;1.024067997932434;0.062463998794555664;-0.07320000231266022;1.1858400106430054;0.4724999964237213;0.12687499821186066;13.002500534057617
2251;0.0;0.0;0.0;0.062463998794555664;-0.08881600201129913;1.1614400148391724;0.0;0.0;0.0
2253;0.0;0.0;0.0;0.0663679987192154;-0.09272000193595886;1.1614400148391724;0.0;0.0;0.0
2255;0.0;0.0;0.0;0.07027199864387512;-0.08100800216197968;1.1282559633255005;0.0;0.0;0.0
2257;-0.0453839972615242;0.042211998254060745;1.0330959558486938;0.0663679987192154;-0.08100800216197968;1.1614400148391724;-0.29750001430511475;0.05687499791383743;11.602499961853027
2260;0.0;0.0;0.0;0.0663679987192154;-0.07710400223731995;1.1448479890823364;0.0;0.0;0.0
2262;0.0;0.0;0.0;0.07417599856853485;-0.057583998888731;1.180959939956665;0.0;0.0;0.0
2264;0.0;0.0;0.0;0.03513599932193756;-0.057583998888731;1.140944004058838;0.0;0.0;0.0
2266;-0.05197199806571007;0.053435999900102615;1.026263952255249;0.08588799834251404;-0.057583998888731;1.1614400148391724;-1.1375000476837158;-0.013125000521540642;10.412500381469727
2268;0.0;0.0;0.0;0.058559998869895935;-0.045871999114751816;1.1614400148391724;0.0;0.0;0.0
2270;0.0;0.0;0.0;0.054655998945236206;-0.045871999114751816;1.156559944152832;0.0;0.0;0.0
2272;0.0;0.0;0.0;0.07027199864387512;-0.06539200246334076;1.140944004058838;0.0;0.0;0.0
2274;-0.05831599980592728;0.07807999849319458;1.0187000036239624;0.04684799909591675;-0.053679998964071274;1.1126400232315063;-1.7675000429153442;-2.253124952316284;9.502500534057617
2277;0.0;0.0;0.0;0.06734399497509003;-0.03513599932193756;1.1438720226287842;0.0;0.0;0.0
2279;0.0;0.0;0.0;0.05953599885106087;-0.03903999924659729;1.115567922592163;0.0;0.0;0.0
2281;0.0;0.0;0.0;0.08686399459838867;-0.03903999924659729;1.156559944152832;0.0;0.0;0.0
2283;-0.04758000001311302;0.09052399545907974;1.0086959600448608;0.07515199482440948;-0.027327999472618103;1.1272799968719482;-2.3274998664855957;-5.333125114440918;8.802499771118164
2285;0.0;0.0;0.0;0.1210239976644516;-0.03903999924659729;1.139967918395996;0.0;0.0;0.0
2287;0.0;0.0;0.0;0.11028799414634705;-0.04294399917125702;1.1516799926757812;0.0;0.0;0.0
2289;0.0;0.0;0.0;0.08686399459838867;-0.03903999924659729;1.1233760118484497;0.0;0.0;0.0
2291;-0.02391199953854084;0.08808399736881256;1.0016199350357056;0.08295999467372894;-0.0663679987192154;1.1233760118484497;-3.237499952316284;-7.083125114440918;8.802499771118164
2294;0.0;0.0;0.0;0.11224000155925751;-0.06148799881339073;1.0960479974746704;0.0;0.0;0.0
2296;0.0;0.0;0.0;0.13176000118255615;-0.049775999039411545;1.1448479890823364;0.0;0.0;0.0
2298;0.0;0.0;0.0;0.11614400148391724;-0.057583998888731;1.1370400190353394;0.0;0.0;0.0
2300;-0.003415999934077263;0.0849120020866394;0.9913719892501831;0.10443200170993805;-0.07710400223731995;1.1204479932785034;-4.987499713897705;-5.963124752044678;9.432499885559082
2302;0.0;0.0;0.0;0.14347200095653534;-0.06148799881339073;1.124351978302002;0.0;0.0;0.0
2304;0.0;0.0;0.0;0.11614400148391724;-0.06148799881339073;1.1087360382080078;0.0;0.0;0.0
2306;0.0;0.0;0.0;0.11614400148391724;-0.04196799919009209;1.1126400232315063;0.0;0.0;0.0
2308;0.0056119998916983604;0.07930000126361847;0.9860039949417114;0.11614400148391724;-0.049775999039411545;1.1087360382080078;-7.367499828338623;-3.513124942779541;10.552499771118164
2311;0.0;0.0;0.0;0.12004800140857697;-0.045871999114751816;1.132159948348999;0.0;0.0;0.0
2313;0.0;0.0;0.0;0.10833600163459778;-0.0849120020866394;1.1204479932785034;0.0;0.0;0.0
2315;0.0;0.0;0.0;0.10833600163459778;-0.07710400223731995;1.1038559675216675;0.0;0.0;0.0
2317;0.0009759999811649323;0.07368800044059753;0.98990797996521;0.14737600088119507;-0.057583998888731;1.140944004058838;-9.327500343322754;-1.6231249570846558;12.022500038146973
2319;0.0;0.0;0.0;0.12004800140857697;-0.08100800216197968;1.1331360340118408;0.0;0.0;0.0
2321;0.0;0.0;0.0;0.12785600125789642;-0.07710400223731995;1.1204479932785034;0.0;0.0;0.0
2323;0.0;0.0;0.0;0.10443200170993805;-0.07710400223731995;1.1165440082550049;0.0;0.0;0.0
2325;-0.00317199993878603;0.057339999824762344;0.98990797996521;0.11614400148391724;-0.10052800178527832;1.1048319339752197;-10.587499618530273;-0.9931250214576721;14.052499771118164
2328;0.0;0.0;0.0;0.0936959981918335;-0.07320000231266022;1.0960479974746704;0.0;0.0;0.0
2330;0.0;0.0;0.0;0.1395680010318756;-0.09272000193595886;1.1204479932785034;0.0;0.0;0.0
2332;0.0;0.0;0.0;0.10931199789047241;-0.08100800216197968;1.1204479932785034;0.0;0.0;0.0
2334;-0.006831999868154526;0.038307998329401016;0.9879559874534607;0.10833600163459778;-0.09662400186061859;1.132159948348999;-10.657500267028809;-0.9931250214576721;15.802499771118164
2336;0.0;0.0;0.0;0.10540799796581268;-0.11224000155925751;1.1126400232315063;0.0;0.0;0.0
2338;0.0;0.0;0.0;0.10833600163459778;-0.11614400148391724;1.140944004058838;0.0;0.0;0.0
2340;0.0;0.0;0.0;0.10833600163459778;-0.13566400110721588;1.124351978302002;0.0;0.0;0.0
2342;-0.008539999835193157;0.02122800052165985;0.985759973526001;0.10443200170993805;-0.10052800178527832;1.0921440124511719;-10.167499542236328;-1.2731249332427979;16.712499618530273
2345;0.0;0.0;0.0;0.10931199789047241;-0.12785600125789642;1.124351978302002;0.0;0.0;0.0
2347;0.0;0.0;0.0;0.10833600163459778;-0.11224000155925751;1.0960479974746704;0.0;0.0;0.0
2349;0.0;0.0;0.0;0.10931199789047241;-0.11224000155925751;1.0960479974746704;0.0;0.0;0.0
2351;-0.0029279999434947968;0.00878399983048439;0.9791719913482666;0.1239520013332367;-0.1395680010318756;1.1204479932785034;-9.397500038146973;-1.6931250095367432;16.852500915527344
