Timestamp(ms);LG-Accel x(g);LG-Accel y(g);LG-Accel z(g);HG-Accel x(g);HG-Accel y(g);HG-Accel z(g);Gyro x(dps);Gyro y(dps);Gyro z(dps)
81;0.0;0.0;0.0;0.2332639992237091;-0.10443200170993805;1.0599359273910522;0.0;0.0;0.0
83;0.0;0.0;0.0;0.2723039984703064;-0.09272000193595886;1.0843359231948853;0.0;0.0;0.0
85;0.0;0.0;0.0;0.22155199944972992;-0.10833600163459778;1.0960479974746704;0.0;0.0;0.0
88;0.0;0.0;0.0;0.25278398394584656;-0.08881600201129913;1.0677440166473389;0.0;0.0;0.0
90;0.0;0.0;0.0;0.24887999892234802;-0.10833600163459778;1.083359956741333;0.0;0.0;0.0
92;0.0;0.0;0.0;0.27327999472618103;-0.0878399983048439;1.0804319381713867;0.0;0.0;0.0
94;0.0;0.0;0.0;0.2693759799003601;-0.08393599838018417;1.0843359231948853;0.0;0.0;0.0
96;0.0;0.0;0.0;0.2420479953289032;-0.08393599838018417;1.0599359273910522;0.0;0.0;0.0
98;0.130295991897583;0.03928399831056595;0.9545279741287231;0.2420479953289032;-0.09955199807882309;1.1048319339752197;0.0;0.0;0.0
100;0.0;0.0;0.0;0.2576639950275421;-0.09955199807882309;1.0970239639282227;0.0;0.0;0.0
102;0.0;0.0;0.0;0.2654719948768616;-0.10345599800348282;1.0804319381713867;0.0;0.0;0.0
105;0.0;0.0;0.0;0.22252799570560455;-0.13859200477600098;1.1048319339752197;0.0;0.0;0.0
107;0.12029200047254562;0.02903600037097931;0.9620919823646545;0.24595199525356293;-0.09564799815416336;1.0892159938812256;0.0;0.0;0.0
109;0.0;0.0;0.0;0.22252799570560455;-0.1424959897994995;1.0892159938812256;0.0;0.0;0.0
111;0.0;0.0;0.0;0.2654719948768616;-0.12297599762678146;1.0931199789047241;0.0;0.0;0.0
113;0.0;0.0;0.0;0.22643199563026428;-0.10345599800348282;1.1009279489517212;0.0;0.0;0.0
115;0.12053599953651428;0.01878799870610237;0.9703879952430725;0.24595199525356293;-0.09955199807882309;1.085312008857727;0.0;0.0;0.0
117;0.0;0.0;0.0;0.230335995554924;-0.115167997777462;1.1048319339752197;0.0;0.0;0.0
119;0.0;0.0;0.0;0.24595199525356293;-0.09564799815416336;1.1126400232315063;0.0;0.0;0.0
122;0.0;0.0;0.0;0.2420479953289032;-0.10345599800348282;1.1214239597320557;0.0;0.0;0.0
124;0.12297599762678146;0.02122800052165985;0.9706319570541382;0.26156800985336304;-0.10345599800348282;1.0970239639282227;0.0;0.0;0.0
126;0.0;0.0;0.0;0.24887999892234802;-0.12297599762678146;1.101904034614563;0.0;0.0;0.0
128;0.0;0.0;0.0;0.28011199831962585;-0.0878399983048439;1.134112000465393;0.0;0.0;0.0
130;0.0;0.0;0.0;0.25278398394584656;-0.10345599800348282;1.10971200466156;0.0;0.0;0.0
132;0.12785600125789642;0.03757599741220474;0.9799039959907532;0.24887999892234802;-0.10735999792814255;1.1175199747085571;0.0;0.0;0.0
134;0.0;0.0;0.0;0.2723039984703064;-0.1268799901008606;1.126304030418396;0.0;0.0;0.0
136;0.0;0.0;0.0;0.25278398394584656;-0.09955199807882309;1.126304030418396;0.0;0.0;0.0
139;0.0;0.0;0.0;0.2723039984703064;-0.10735999792814255;1.1302080154418945;0.0;0.0;0.0
141;0.12712399661540985;0.04025999829173088;0.9906399846076965;0.2723039984703064;-0.09564799815416336;1.0892159938812256;1.115625023841858;1.5356249809265137;0.9756250381469727
143;0.0;0.0;0.0;0.2566879987716675;-0.10735999792814255;1.1302080154418945;0.0;0.0;0.0
145;0.0;0.0;0.0;0.2683999836444855;-0.11907199770212173;1.122399926185608;0.0;0.0;0.0
147;0.0;0.0;0.0;0.22545599937438965;-0.10735999792814255;1.1302080154418945;0.0;0.0;0.0
149;0.12175599485635757;0.029523998498916626;0.9889319539070129;0.2332639992237091;-0.13468798995018005;1.126304030418396;1.2556250095367432;1.7456250190734863;1.0456249713897705
151;0.0;0.0;0.0;0.24887999892234802;-0.09955199807882309;1.1302080154418945;0.0;0.0;0.0
153;0.0;0.0;0.0;0.2332639992237091;-0.115167997777462;1.126304030418396;0.0;0.0;0.0
156;0.0;0.0;0.0;0.2566879987716675;-0.13468798995018005;1.1175199747085571;0.0;0.0;0.0
158;0.11589999496936798;0.01878799870610237;0.9906399846076965;0.2723039984703064;-0.12297599762678146;1.134112000465393;1.6756250858306885;2.445625066757202;0.06562499701976776
160;0.0;0.0;0.0;0.260591983795166;-0.11028799414634705;1.134112000465393;0.0;0.0;0.0
162;0.0;0.0;0.0;0.23716799914836884;-0.12199999392032623;1.1175199747085571;0.0;0.0;0.0
164;0.0;0.0;0.0;0.24107199907302856;-0.10638399422168732;1.1380159854888916;0.0;0.0;0.0
166;0.12639199197292328;0.024887999519705772;1.0008879899978638;0.22935999929904938;-0.10638399422168732;1.1546080112457275;1.7456250190734863;2.0956249237060547;-0.3543750047683716
168;0.0;0.0;0.0;0.24887999892234802;-0.09467199444770813;1.150704026222229;0.0;0.0;0.0
170;0.0;0.0;0.0;0.22935999929904938;-0.08295999467372894;1.134112000465393;0.0;0.0;0.0
173;0.0;0.0;0.0;0.22545599937438965;-0.09857599437236786;1.1302080154418945;0.0;0.0;0.0
175;0.12151199579238892;0.0331839993596077;1.0074759721755981;0.22935999929904938;-0.11419199407100677;1.1175199747085571;1.115625023841858;0.5556250214576721;-0.0043750000186264515
177;0.0;0.0;0.0;0.2566879987716675;-0.11907199770212173;1.150704026222229;0.0;0.0;0.0
179;0.0;0.0;0.0;0.2566879987716675;-0.11126399785280228;1.1302080154418945;0.0;0.0;0.0
181;0.0;0.0;0.0;0.26449599862098694;-0.10345599800348282;1.122399926185608;0.0;0.0;0.0
183;0.12614800035953522;0.04001599922776222;1.009671926498413;0.2566879987716675;-0.09564799815416336;1.1458239555358887;-0.1443749964237213;-0.8443750143051147;-0.07437500357627869
185;0.0;0.0;0.0;0.24887999892234802;-0.09955199807882309;1.1302080154418945;0.0;0.0;0.0
187;0.0;0.0;0.0;0.25278398394584656;-0.09174399822950363;1.122399926185608;0.0;0.0;0.0
190;0.0;0.0;0.0;0.2840159833431244;-0.09955199807882309;1.122399926185608;0.0;0.0;0.0
192;0.12785600125789642;0.04196799919009209;1.0001559257507324;0.24887999892234802;-0.10345599800348282;1.1136159896850586;-1.4743750095367432;-1.4743750095367432;0.27562499046325684
194;0.0;0.0;0.0;0.260591983795166;-0.09564799815416336;1.1058080196380615;0.0;0.0;0.0
196;0.0;0.0;0.0;0.23716799914836884;-0.0878399983048439;1.1136159896850586;0.0;0.0;0.0
198;0.0;0.0;0.0;0.2332639992237091;-0.11907199770212173;1.122399926185608;0.0;0.0;0.0
200;0.12053599953651428;0.03415999934077263;0.9872239828109741;0.25278398394584656;-0.12297599762678146;1.1058080196380615;-2.3843750953674316;-1.1243749856948853;0.34562498331069946
203;0.0;0.0;0.0;0.24107199907302856;-0.09564799815416336;1.0931199789047241;0.0;0.0;0.0
204;0.0;0.0;0.0;0.2449759989976883;-0.115167997777462;1.101904034614563;0.0;0.0;0.0
207;0.0;0.0;0.0;0.24107199907302856;-0.10735999792814255;1.0775039196014404;0.0;0.0;0.0
209;0.12443999946117401;0.02513200044631958;0.9750239849090576;0.2332639992237091;-0.10735999792814255;1.101904034614563;-2.5243749618530273;-0.6343749761581421;0.13562500476837158
211;0.0;0.0;0.0;0.2332639992237091;-0.10735999792814255;1.1058080196380615;0.0;0.0;0.0
213;0.0;0.0;0.0;0.20983999967575073;-0.09564799815416336;1.097999930381775;0.0;0.0;0.0
215;0.0;0.0;0.0;0.25278398394584656;-0.09174399822950363;1.097999930381775;0.0;0.0;0.0
217;0.11882799863815308;0.025863999500870705;0.9667279720306396;0.22935999929904938;-0.10345599800348282;1.073599934577942;-1.544374942779541;-0.6343749761581421;-0.3543750047683716
219;0.0;0.0;0.0;0.24107199907302856;-0.0878399983048439;1.0814080238342285;0.0;0.0;0.0
222;0.0;0.0;0.0;0.22545599937438965;-0.11126399785280228;1.0775039196014404;0.0;0.0;0.0
224;0.0;0.0;0.0;0.2840159833431244;-0.11126399785280228;1.101904034614563;0.0;0.0;0.0
226;0.1268799901008606;0.03415999934077263;0.9686799645423889;0.25278398394584656;-0.10345599800348282;1.085312008857727;-0.4943750202655792;-0.4243750274181366;-0.5643749833106995
228;0.0;0.0;0.0;0.2566879987716675;-0.10735999792814255;1.10971200466156;0.0;0.0;0.0
230;0.0;0.0;0.0;0.2683999836444855;-0.09564799815416336;1.097999930381775;0.0;0.0;0.0
232;0.0;0.0;0.0;0.24107199907302856;-0.10345599800348282;1.101904034614563;0.0;0.0;0.0
234;0.13298000395298004;0.03562399744987488;0.9708759784698486;0.2723039984703064;-0.10735999792814255;1.085312008857727;0.34562498331069946;0.34562498331069946;-0.21437500417232513
237;0.0;0.0;0.0;0.2683999836444855;-0.115167997777462;1.097999930381775;0.0;0.0;0.0
239;0.0;0.0;0.0;0.2566879987716675;-0.11907199770212173;1.085312008857727;0.0;0.0;0.0
241;0.0;0.0;0.0;0.260591983795166;-0.115167997777462;1.1136159896850586;0.0;0.0;0.0
243;0.13053999841213226;0.032207999378442764;0.9752680063247681;0.2449759989976883;-0.09955199807882309;1.1175199747085571;0.90562504529953;1.2556250095367432;-0.07437500357627869
245;0.0;0.0;0.0;0.24107199907302856;-0.10345599800348282;1.1058080196380615;0.0;0.0;0.0
247;0.0;0.0;0.0;0.25278398394584656;-0.09955199807882309;1.1136159896850586;0.0;0.0;0.0
249;0.0;0.0;0.0;0.24107199907302856;-0.0878399983048439;1.097999930381775;0.0;0.0;0.0
251;0.12883199751377106;0.034648001194000244;0.9811239838600159;0.2332639992237091;-0.13859200477600098;1.0931199789047241;0.90562504529953;1.955625057220459;-0.0043750000186264515
253;0.0;0.0;0.0;0.2683999836444855;-0.09955199807882309;1.1175199747085571;0.0;0.0;0.0
255;0.0;0.0;0.0;0.260591983795166;-0.12297599762678146;1.101904034614563;0.0;0.0;0.0
258;0.0;0.0;0.0;0.2449759989976883;-0.06831999868154526;1.1136159896850586;0.0;0.0;0.0
260;0.12321999669075012;0.037331998348236084;0.9833199977874756;0.25278398394584656;-0.10345599800348282;1.0931199789047241;0.4156250059604645;1.2556250095367432;0.34562498331069946
262;0.0;0.0;0.0;0.23716799914836884;-0.09174399822950363;1.134112000465393;0.0;0.0;0.0
264;0.0;0.0;0.0;0.25278398394584656;-0.0878399983048439;1.1058080196380615;0.0;0.0;0.0
266;0.0;0.0;0.0;0.25278398394584656;-0.11126399785280228;1.1175199747085571;0.0;0.0;0.0
268;0.12712399661540985;0.04001599922776222;0.9828319549560547;0.24887999892234802;-0.09955199807882309;1.0892159938812256;0.2056250125169754;1.0456249713897705;0.4856249988079071
271;0.0;0.0;0.0;0.2332639992237091;-0.09955199807882309;1.0931199789047241;0.0;0.0;0.0
273;0.0;0.0;0.0;0.24887999892234802;-0.1268799901008606;1.101904034614563;0.0;0.0;0.0
275;0.0;0.0;0.0;0.2723039984703064;-0.11907199770212173;1.0931199789047241;0.0;0.0;0.0
277;0.12199999392032623;0.03001200035214424;0.9730719923973083;0.2566879987716675;-0.09955199807882309;1.0931199789047241;0.8356250524520874;0.9756250381469727;0.6956250071525574
279;0.0;0.0;0.0;0.22545599937438965;-0.12199999392032623;1.1136159896850586;0.0;0.0;0.0
281;0.0;0.0;0.0;0.22545599937438965;-0.1180959939956665;1.1136159896850586;0.0;0.0;0.0
283;0.0;0.0;0.0;0.23716799914836884;-0.1180959939956665;1.101904034614563;0.0;0.0;0.0
285;0.1193159967660904;0.02659599855542183;0.9791719913482666;0.25278398394584656;-0.11419199407100677;1.1175199747085571;2.025624990463257;1.115625023841858;0.06562499701976776
287;0.0;0.0;0.0;0.2176479995250702;-0.12590399384498596;1.1058080196380615;0.0;0.0;0.0
290;0.0;0.0;0.0;0.24107199907302856;-0.08295999467372894;1.1380159854888916;0.0;0.0;0.0
292;0.0;0.0;0.0;0.23716799914836884;-0.10638399422168732;1.10971200466156;0.0;0.0;0.0
294;0.12809999287128448;0.03245199844241142;0.9955199956893921;0.23716799914836884;-0.09857599437236786;1.134112000465393;1.7456250190734863;1.7456250190734863;-0.4243750274181366
296;0.0;0.0;0.0;0.2566879987716675;-0.09955199807882309;1.1175199747085571;0.0;0.0;0.0
298;0.0;0.0;0.0;0.22935999929904938;-0.0878399983048439;1.134112000465393;0.0;0.0;0.0
300;0.0;0.0;0.0;0.25278398394584656;-0.09564799815416336;1.1302080154418945;0.0;0.0;0.0
302;0.12029200047254562;0.03171999752521515;1.00381600856781;0.23716799914836884;-0.11126399785280228;1.150704026222229;0.90562504529953;1.7456250190734863;-0.4943750202655792
305;0.0;0.0;0.0;0.25278398394584656;-0.09955199807882309;1.1419199705123901;0.0;0.0;0.0
307;0.0;0.0;0.0;0.2723039984703064;-0.09174399822950363;1.1380159854888916;0.0;0.0;0.0
309;0.0;0.0;0.0;0.23716799914836884;-0.09174399822950363;1.126304030418396;0.0;0.0;0.0
311;0.12614800035953522;0.03903999924659729;1.0072319507598877;0.22935999929904938;-0.10345599800348282;1.1546080112457275;-0.21437500417232513;0.9756250381469727;-0.28437501192092896
313;0.0;0.0;0.0;0.2332639992237091;-0.09564799815416336;1.1302080154418945;0.0;0.0;0.0
315;0.0;0.0;0.0;0.23716799914836884;-0.0878399983048439;1.1380159854888916;0.0;0.0;0.0
317;0.0;0.0;0.0;0.24887999892234802;-0.08003199845552444;1.1184959411621094;0.0;0.0;0.0
319;0.12175599485635757;0.04123599827289581;1.0006439685821533;0.2449759989976883;-0.0878399983048439;1.1302080154418945;-0.984375;-0.21437500417232513;0.13562500476837158
322;0.0;0.0;0.0;0.24887999892234802;-0.09174399822950363;1.1175199747085571;0.0;0.0;0.0
324;0.0;0.0;0.0;0.21374399960041046;-0.07612799853086472;1.1175199747085571;0.0;0.0;0.0
326;0.0;0.0;0.0;0.22155199944972992;-0.10345599800348282;1.1136159896850586;0.0;0.0;0.0
328;0.11736399680376053;0.03415999934077263;0.9916160106658936;0.2566879987716675;-0.09564799815416336;1.1058080196380615;-1.1943750381469727;-1.0543749332427979;0.06562499701976776
330;0.0;0.0;0.0;0.2176479995250702;-0.11126399785280228;1.1058080196380615;0.0;0.0;0.0
332;0.0;0.0;0.0;0.2723039984703064;-0.08393599838018417;1.101904034614563;0.0;0.0;0.0
334;0.0;0.0;0.0;0.2332639992237091;-0.11907199770212173;1.126304030418396;0.0;0.0;0.0
336;0.1285879909992218;0.035868000239133835;0.985759973526001;0.2176479995250702;-0.115167997777462;1.1302080154418945;-0.984375;-0.4243750274181366;-0.07437500357627869
339;0.0;0.0;0.0;0.2566879987716675;-0.0878399983048439;1.10971200466156;0.0;0.0;0.0
341;0.0;0.0;0.0;0.25278398394584656;-0.10735999792814255;1.1136159896850586;0.0;0.0;0.0
343;0.0;0.0;0.0;0.24887999892234802;-0.10735999792814255;1.10971200466156;0.0;0.0;0.0
345;0.12931999564170837;0.03440399840474129;0.9869799613952637;0.2449759989976883;-0.0878399983048439;1.101904034614563;-0.5643749833106995;0.27562499046325684;0.27562499046325684
347;0.0;0.0;0.0;0.2449759989976883;-0.07612799853086472;1.0931199789047241;0.0;0.0;0.0
349;0.0;0.0;0.0;0.26449599862098694;-0.10735999792814255;1.101904034614563;0.0;0.0;0.0
351;0.0;0.0;0.0;0.2332639992237091;-0.09174399822950363;1.1136159896850586;0.0;0.0;0.0
353;0.12712399661540985;0.0348920002579689;0.9801479578018188;0.25278398394584656;-0.11126399785280228;1.1058080196380615;0.13562500476837158;0.06562499701976776;0.6256250143051147
356;0.0;0.0;0.0;0.2566879987716675;-0.10735999792814255;1.101904034614563;0.0;0.0;0.0
358;0.0;0.0;0.0;0.2449759989976883;-0.10345599800348282;1.101904034614563;0.0;0.0;0.0
360;0.0;0.0;0.0;0.24107199907302856;-0.09564799815416336;1.097999930381775;0.0;0.0;0.0
362;0.12956400215625763;0.04123599827289581;0.9755119681358337;0.24107199907302856;-0.09564799815416336;1.0931199789047241;0.9756250381469727;-0.4243750274181366;1.0456249713897705
364;0.0;0.0;0.0;0.27620798349380493;-0.07222399860620499;1.101904034614563;0.0;0.0;0.0
366;0.0;0.0;0.0;0.24107199907302856;-0.10735999792814255;1.101904034614563;0.0;0.0;0.0
368;0.0;0.0;0.0;0.24107199907302856;-0.09174399822950363;1.10971200466156;0.0;0.0;0.0
370;0.13298000395298004;0.04294399917125702;0.9713639616966248;0.2332639992237091;-0.09955199807882309;1.097999930381775;2.025624990463257;-0.1443749964237213;1.7456250190734863
373;0.0;0.0;0.0;0.23716799914836884;-0.10345599800348282;1.0892159938812256;0.0;0.0;0.0
375;0.0;0.0;0.0;0.24107199907302856;-0.10735999792814255;1.1058080196380615;0.0;0.0;0.0
377;0.0;0.0;0.0;0.23716799914836884;-0.10735999792814255;1.0931199789047241;0.0;0.0;0.0
379;0.12517200410366058;0.04196799919009209;0.9757559895515442;0.22155199944972992;-0.11126399785280228;1.101904034614563;2.655625104904175;1.2556250095367432;2.025624990463257
381;0.0;0.0;0.0;0.2176479995250702;-0.09955199807882309;1.101904034614563;0.0;0.0;0.0
383;0.0;0.0;0.0;0.2176479995250702;-0.11126399785280228;1.1136159896850586;0.0;0.0;0.0
385;0.0;0.0;0.0;0.2176479995250702;-0.11126399785280228;1.10971200466156;0.0;0.0;0.0
387;0.10931199789047241;0.03147599846124649;0.9864919781684875;0.23716799914836884;-0.09955199807882309;1.10971200466156;2.515625;1.605625033378601;1.6756250858306885
390;0.0;0.0;0.0;0.22935999929904938;-0.09174399822950363;1.1419199705123901;0.0;0.0;0.0
392;0.0;0.0;0.0;0.2683999836444855;-0.09174399822950363;1.126304030418396;0.0;0.0;0.0
394;0.0;0.0;0.0;0.24107199907302856;-0.07612799853086472;1.134112000465393;0.0;0.0;0.0
396;0.1163880005478859;0.029523998498916626;0.9964959621429443;0.25278398394584656;-0.08393599838018417;1.146799921989441;1.2556250095367432;1.2556250095367432;0.90562504529953
398;0.0;0.0;0.0;0.24107199907302856;-0.10345599800348282;1.0892159938812256;0.0;0.0;0.0
400;0.0;0.0;0.0;0.22935999929904938;-0.08393599838018417;1.1175199747085571;0.0;0.0;0.0
402;0.0;0.0;0.0;0.22545599937438965;-0.10735999792814255;1.1136159896850586;0.0;0.0;0.0
404;0.11467999964952469;0.02635199949145317;0.9813680052757263;0.24107199907302856;-0.11126399785280228;1.1136159896850586;0.2056250125169754;0.27562499046325684;0.765625
407;0.0;0.0;0.0;0.2332639992237091;-0.0878399983048439;1.1058080196380615;0.0;0.0;0.0
409;0.0;0.0;0.0;0.260591983795166;-0.115167997777462;1.0931199789047241;0.0;0.0;0.0
411;0.0;0.0;0.0;0.2723039984703064;-0.07612799853086472;1.1136159896850586;0.0;0.0;0.0
413;0.12663599848747253;0.03611199930310249;0.9747799634933472;0.2683999836444855;-0.08393599838018417;1.10971200466156;0.4856249988079071;0.06562499701976776;0.34562498331069946
415;0.0;0.0;0.0;0.2566879987716675;-0.0878399983048439;1.1058080196380615;0.0;0.0;0.0
417;0.0;0.0;0.0;0.2566879987716675;-0.07222399860620499;1.1058080196380615;0.0;0.0;0.0
419;0.0;0.0;0.0;0.26449599862098694;-0.08393599838018417;1.10971200466156;0.0;0.0;0.0
421;0.13541999459266663;0.05075199902057648;0.9779520034790039;0.25278398394584656;-0.09955199807882309;1.126304030418396;1.115625023841858;0.765625;0.4856249988079071
424;0.0;0.0;0.0;0.24107199907302856;-0.0605119988322258;1.097999930381775;0.0;0.0;0.0
426;0.0;0.0;0.0;0.2449759989976883;-0.0878399983048439;1.126304030418396;0.0;0.0;0.0
428;0.0;0.0;0.0;0.22545599937438965;-0.07222399860620499;1.1175199747085571;0.0;0.0;0.0
430;0.12419600039720535;0.05172799900174141;0.9864919781684875;0.2332639992237091;-0.08393599838018417;1.134112000465393;1.2556250095367432;1.3256250619888306;0.90562504529953
432;0.0;0.0;0.0;0.24107199907302856;-0.10345599800348282;1.1175199747085571;0.0;0.0;0.0
434;0.0;0.0;0.0;0.23716799914836884;-0.09955199807882309;1.1058080196380615;0.0;0.0;0.0
436;0.0;0.0;0.0;0.2683999836444855;-0.08003199845552444;1.1136159896850586;0.0;0.0;0.0
438;0.12541599571704865;0.04879999905824661;0.9938119649887085;0.24107199907302856;-0.09174399822950363;1.122399926185608;0.90562504529953;0.765625;1.4656250476837158
441;0.0;0.0;0.0;0.260591983795166;-0.09564799815416336;1.1175199747085571;0.0;0.0;0.0
443;0.0;0.0;0.0;0.2566879987716675;-0.115167997777462;1.1214239597320557;0.0;0.0;0.0
445;0.0;0.0;0.0;0.23716799914836884;-0.09564799815416336;1.1380159854888916;0.0;0.0;0.0
447;0.12346399575471878;0.04050400108098984;0.9943000078201294;0.24887999892234802;-0.13859200477600098;1.10971200466156;0.34562498331069946;-0.0043750000186264515;1.8856250047683716
449;0.0;0.0;0.0;0.22935999929904938;-0.09564799815416336;1.126304030418396;0.0;0.0;0.0
451;0.0;0.0;0.0;0.24887999892234802;-0.12297599762678146;1.10971200466156;0.0;0.0;0.0
453;0.0;0.0;0.0;0.25278398394584656;-0.09955199807882309;1.126304030418396;0.0;0.0;0.0
455;0.12639199197292328;0.03562399744987488;0.9943000078201294;0.2449759989976883;-0.0878399983048439;1.1175199747085571;-0.0043750000186264515;-0.984375;1.8156250715255737
458;0.0;0.0;0.0;0.25278398394584656;-0.09955199807882309;1.1058080196380615;0.0;0.0;0.0
460;0.0;0.0;0.0;0.22545599937438965;-0.09564799815416336;1.1175199747085571;0.0;0.0;0.0
462;0.0;0.0;0.0;0.2566879987716675;-0.09955199807882309;1.10971200466156;0.0;0.0;0.0
464;0.12541599571704865;0.0378200002014637;0.9906399846076965;0.2332639992237091;-0.09174399822950363;1.101904034614563;0.06562499701976776;-1.0543749332427979;1.8856250047683716
466;0.0;0.0;0.0;0.24887999892234802;-0.0878399983048439;1.1302080154418945;0.0;0.0;0.0
468;0.0;0.0;0.0;0.260591983795166;-0.09174399822950363;1.122399926185608;0.0;0.0;0.0
470;0.0;0.0;0.0;0.2449759989976883;-0.07612799853086472;1.1136159896850586;0.0;0.0;0.0
472;0.1298079937696457;0.04270000010728836;0.9918599724769592;0.24887999892234802;-0.08003199845552444;1.1458239555358887;0.06562499701976776;-0.21437500417232513;1.7456250190734863
475;0.0;0.0;0.0;0.26449599862098694;-0.0878399983048439;1.10971200466156;0.0;0.0;0.0
477;0.0;0.0;0.0;0.23716799914836884;-0.08393599838018417;1.10971200466156;0.0;0.0;0.0
479;0.0;0.0;0.0;0.24887999892234802;-0.10735999792814255;1.0931199789047241;0.0;0.0;0.0
481;0.1320039927959442;0.04928799718618393;0.990884006023407;0.24107199907302856;-0.07222399860620499;1.10971200466156;0.27562499046325684;0.06562499701976776;2.0956249237060547
483;0.0;0.0;0.0;0.2566879987716675;-0.09955199807882309;1.1419199705123901;0.0;0.0;0.0
485;0.0;0.0;0.0;0.25278398394584656;-0.08393599838018417;1.1175199747085571;0.0;0.0;0.0
487;0.0;0.0;0.0;0.23716799914836884;-0.08393599838018417;1.126304030418396;0.0;0.0;0.0
489;0.1227319985628128;0.049775999039411545;0.9913719892501831;0.2449759989976883;-0.07612799853086472;1.1214239597320557;0.90562504529953;-0.07437500357627869;2.3056249618530273
492;0.0;0.0;0.0;0.22935999929904938;-0.0878399983048439;1.1184959411621094;0.0;0.0;0.0
494;0.0;0.0;0.0;0.24887999892234802;-0.0878399983048439;1.097999930381775;0.0;0.0;0.0
496;0.0;0.0;0.0;0.20983999967575073;-0.07612799853086472;1.126304030418396;0.0;0.0;0.0
498;0.12224400043487549;0.051239997148513794;0.9901520013809204;0.2566879987716675;-0.05660799890756607;1.126304030418396;1.5356249809265137;-0.21437500417232513;2.445625066757202
500;0.0;0.0;0.0;0.23716799914836884;-0.07222399860620499;1.1058080196380615;0.0;0.0;0.0
502;0.0;0.0;0.0;0.2449759989976883;-0.08393599838018417;1.1136159896850586;0.0;0.0;0.0
504;0.0;0.0;0.0;0.2566879987716675;-0.0605119988322258;1.0931199789047241;0.0;0.0;0.0
506;0.12541599571704865;0.05319199711084366;0.9874680042266846;0.26449599862098694;-0.06831999868154526;1.1136159896850586;1.6756250858306885;-0.4943750202655792;2.7956249713897705
509;0.0;0.0;0.0;0.23716799914836884;-0.0878399983048439;1.1136159896850586;0.0;0.0;0.0
511;0.0;0.0;0.0;0.2449759989976883;-0.09955199807882309;1.1302080154418945;0.0;0.0;0.0
513;0.0;0.0;0.0;0.260591983795166;-0.09174399822950363;1.101904034614563;0.0;0.0;0.0
515;0.12126799672842026;0.0558759979903698;0.9835639595985413;0.2683999836444855;-0.06831999868154526;1.097999930381775;1.3956249952316284;-0.4943750202655792;3.075624942779541
517;0.0;0.0;0.0;0.2723039984703064;-0.07905599474906921;1.101904034614563;0.0;0.0;0.0
519;0.0;0.0;0.0;0.25278398394584656;-0.09467199444770813;1.097999930381775;0.0;0.0;0.0
521;0.0;0.0;0.0;0.2449759989976883;-0.09467199444770813;1.0970239639282227;0.0;0.0;0.0
523;0.12321999669075012;0.05416800081729889;0.9786840081214905;0.24107199907302856;-0.07905599474906921;1.085312008857727;1.3956249952316284;0.06562499701976776;3.4256250858306885
526;0.0;0.0;0.0;0.2176479995250702;-0.07515199482440948;1.1136159896850586;0.0;0.0;0.0
528;0.0;0.0;0.0;0.24107199907302856;-0.08295999467372894;1.0814080238342285;0.0;0.0;0.0
530;0.0;0.0;0.0;0.21374399960041046;-0.08295999467372894;1.10971200466156;0.0;0.0;0.0
532;0.11834000051021576;0.043431997299194336;0.9801479578018188;0.2176479995250702;-0.08686399459838867;1.10971200466156;1.3256250619888306;0.4156250059604645;3.635625123977661
534;0.0;0.0;0.0;0.24107199907302856;-0.08295999467372894;1.1058080196380615;0.0;0.0;0.0
536;0.0;0.0;0.0;0.22545599937438965;-0.08686399459838867;1.122399926185608;0.0;0.0;0.0
538;0.0;0.0;0.0;0.2683999836444855;-0.0634399950504303;1.101904034614563;0.0;0.0;0.0
540;0.11834000051021576;0.040991999208927155;0.9818559885025024;0.25278398394584656;-0.09857599437236786;1.101904034614563;0.90562504529953;0.4156250059604645;3.145625114440918
543;0.0;0.0;0.0;0.23716799914836884;-0.09467199444770813;1.126304030418396;0.0;0.0;0.0
545;0.0;0.0;0.0;0.24887999892234802;-0.08295999467372894;1.1136159896850586;0.0;0.0;0.0
547;0.0;0.0;0.0;0.23716799914836884;-0.08686399459838867;1.10971200466156;0.0;0.0;0.0
549;0.12224400043487549;0.044652000069618225;0.985759973526001;0.2449759989976883;-0.0907679945230484;1.134112000465393;0.4156250059604645;-0.07437500357627869;2.7256250381469727
551;0.0;0.0;0.0;0.23716799914836884;-0.0878399983048439;1.122399926185608;0.0;0.0;0.0
553;0.0;0.0;0.0;0.2449759989976883;-0.07612799853086472;1.1136159896850586;0.0;0.0;0.0
555;0.0;0.0;0.0;0.2566879987716675;-0.09174399822950363;1.122399926185608;0.0;0.0;0.0
557;0.1285879909992218;0.05319199711084366;0.9874680042266846;0.26449599862098694;-0.08003199845552444;1.1175199747085571;0.06562499701976776;-0.4943750202655792;2.7956249713897705
560;0.0;0.0;0.0;0.260591983795166;-0.04879999905824661;1.101904034614563;0.0;0.0;0.0
562;0.0;0.0;0.0;0.24887999892234802;-0.04879999905824661;1.101904034614563;0.0;0.0;0.0
564;0.0;0.0;0.0;0.27620798349380493;-0.06441599875688553;1.0892159938812256;0.0;0.0;0.0
566;0.1349319964647293;0.06709999591112137;0.97843998670578;0.2566879987716675;-0.07222399860620499;1.0931199789047241;0.13562500476837158;-0.5643749833106995;3.215625047683716
568;0.0;0.0;0.0;0.2723039984703064;-0.07612799853086472;1.10971200466156;0.0;0.0;0.0
570;0.0;0.0;0.0;0.22545599937438965;-0.07222399860620499;1.10971200466156;0.0;0.0;0.0
572;0.0;0.0;0.0;0.2332639992237091;-0.10345599800348282;1.1175199747085571;0.0;0.0;0.0
574;0.13541999459266663;0.06563600152730942;0.9752680063247681;0.2449759989976883;-0.07222399860620499;1.0814080238342285;0.90562504529953;-0.4243750274181366;3.705625057220459
577;0.0;0.0;0.0;0.26449599862098694;-0.04879999905824661;1.10971200466156;0.0;0.0;0.0
579;0.0;0.0;0.0;0.260591983795166;-0.09564799815416336;1.097999930381775;0.0;0.0;0.0
581;0.0;0.0;0.0;0.260591983795166;-0.06831999868154526;1.097999930381775;0.0;0.0;0.0
583;0.13541999459266663;0.06197600066661835;0.9723399877548218;0.2723039984703064;-0.08393599838018417;1.0931199789047241;1.8856250047683716;-0.7743749618530273;4.335625171661377
585;0.0;0.0;0.0;0.24887999892234802;-0.07905599474906921;1.097999930381775;0.0;0.0;0.0
587;0.0;0.0;0.0;0.25278398394584656;-0.05953599885106087;1.101904034614563;0.0;0.0;0.0
589;0.0;0.0;0.0;0.2449759989976883;-0.07124799489974976;1.0814080238342285;0.0;0.0;0.0
591;0.1320039927959442;0.062219999730587006;0.9718520045280457;0.24107199907302856;-0.07515199482440948;1.101904034614563;2.515625;0.06562499701976776;4.615624904632568
594;0.0;0.0;0.0;0.2683999836444855;-0.07515199482440948;1.0892159938812256;0.0;0.0;0.0
596;0.0;0.0;0.0;0.260591983795166;-0.08295999467372894;1.10971200466156;0.0;0.0;0.0
598;0.0;0.0;0.0;0.25278398394584656;-0.05953599885106087;1.10971200466156;0.0;0.0;0.0
600;0.13176000118255615;0.054899998009204865;0.9725840091705322;0.2449759989976883;-0.09467199444770813;1.101904034614563;2.7956249713897705;1.3256250619888306;4.405624866485596
602;0.0;0.0;0.0;0.2723039984703064;-0.08393599838018417;1.097999930381775;0.0;0.0;0.0
604;0.0;0.0;0.0;0.260591983795166;-0.07612799853086472;1.0892159938812256;0.0;0.0;0.0
606;0.0;0.0;0.0;0.260591983795166;-0.06831999868154526;1.085312008857727;0.0;0.0;0.0
608;0.13224799931049347;0.05831599980592728;0.9745360016822815;0.22545599937438965;-0.0605119988322258;1.085312008857727;2.7956249713897705;1.115625023841858;4.405624866485596
611;0.0;0.0;0.0;0.24887999892234802;-0.07222399860620499;1.0931199789047241;0.0;0.0;0.0
613;0.0;0.0;0.0;0.25278398394584656;-0.07222399860620499;1.0648159980773926;0.0;0.0;0.0
615;0.0;0.0;0.0;0.2332639992237091;-0.06441599875688553;1.0814080238342285;0.0;0.0;0.0
617;0.12712399661540985;0.07490799576044083;0.9723399877548218;0.2332639992237091;-0.04879999905824661;1.1058080196380615;2.8656251430511475;1.3956249952316284;4.405624866485596
619;0.0;0.0;0.0;0.260591983795166;-0.02147199958562851;1.0892159938812256;0.0;0.0;0.0
621;0.0;0.0;0.0;0.2566879987716675;-0.0331839993596077;1.101904034614563;0.0;0.0;0.0
623;0.0;0.0;0.0;0.24107199907302856;-0.040991999208927155;1.10971200466156;0.0;0.0;0.0
625;0.13541999459266663;0.08881600201129913;0.9769759774208069;0.2449759989976883;-0.05270399898290634;1.101904034614563;3.075624942779541;1.955625057220459;4.265625
628;0.0;0.0;0.0;0.24107199907302856;-0.0331839993596077;1.0970239639282227;0.0;0.0;0.0
630;0.0;0.0;0.0;0.24887999892234802;-0.04879999905824661;1.10971200466156;0.0;0.0;0.0
632;0.0;0.0;0.0;0.2723039984703064;-0.05270399898290634;1.1302080154418945;0.0;0.0;0.0
634;0.1349319964647293;0.0878399983048439;0.9779520034790039;0.27620798349380493;-0.040991999208927155;1.1058080196380615;3.4256250858306885;1.3956249952316284;5.175624847412109
636;0.0;0.0;0.0;0.2723039984703064;-0.01268799975514412;1.126304030418396;0.0;0.0;0.0
638;0.0;0.0;0.0;0.24887999892234802;-0.032207999378442764;1.10971200466156;0.0;0.0;0.0
640;0.0;0.0;0.0;0.26449599862098694;-0.05563199892640114;1.1136159896850586;0.0;0.0;0.0
642;0.1407880038022995;0.09589199721813202;0.9842959642410278;0.2566879987716675;-0.04001599922776222;1.1058080196380615;3.145625114440918;1.3956249952316284;6.29562520980835
645;0.0;0.0;0.0;0.260591983795166;-0.028303999453783035;1.1428959369659424;0.0;0.0;0.0
647;0.0;0.0;0.0;0.24107199907302856;-0.04001599922776222;1.1136159896850586;0.0;0.0;0.0
649;0.0;0.0;0.0;0.23716799914836884;-0.04391999915242195;1.134112000465393;0.0;0.0;0.0
651;0.14225199818611145;0.09101200103759766;1.0011320114135742;0.2566879987716675;-0.032207999378442764;1.1380159854888916;2.585624933242798;2.8656251430511475;7.135624885559082
653;0.0;0.0;0.0;0.26449599862098694;-0.04879999905824661;1.1380159854888916;0.0;0.0;0.0
655;0.0;0.0;0.0;0.23716799914836884;-0.044895999133586884;1.182911992073059;0.0;0.0;0.0
657;0.0;0.0;0.0;0.22545599937438965;-0.0605119988322258;1.1663199663162231;0.0;0.0;0.0
660;0.12614800035953522;0.07685999572277069;1.0228480100631714;0.2449759989976883;-0.07222399860620499;1.1624159812927246;1.7456250190734863;2.025624990463257;8.045624732971191
662;0.0;0.0;0.0;0.2332639992237091;-0.04879999905824661;1.1624159812927246;0.0;0.0;0.0
664;0.0;0.0;0.0;0.26449599862098694;-0.0605119988322258;1.158511996269226;0.0;0.0;0.0
666;0.0;0.0;0.0;0.22155199944972992;-0.04879999905824661;1.182911992073059;0.0;0.0;0.0
668;0.12004800140857697;0.07344400137662888;1.0277279615402222;0.26449599862098694;-0.05660799890756607;1.150704026222229;0.6256250143051147;-0.8443750143051147;8.815624237060547
670;0.0;0.0;0.0;0.23716799914836884;-0.06734399497509003;1.1419199705123901;0.0;0.0;0.0
672;0.0;0.0;0.0;0.24107199907302856;-0.06734399497509003;1.1546080112457275;0.0;0.0;0.0
674;0.0;0.0;0.0;0.24887999892234802;-0.05953599885106087;1.150704026222229;0.0;0.0;0.0
677;0.1256600022315979;0.07149200141429901;1.014307975769043;0.24887999892234802;-0.08295999467372894;1.1302080154418945;0.13562500476837158;-3.224375009536743;9.86562442779541
679;0.0;0.0;0.0;0.24107199907302856;-0.0907679945230484;1.134112000465393;0.0;0.0;0.0
681;0.0;0.0;0.0;0.2449759989976883;-0.0634399950504303;1.146799921989441;0.0;0.0;0.0
683;0.0;0.0;0.0;0.2449759989976883;-0.09857599437236786;1.1428959369659424;0.0;0.0;0.0
685;0.11736399680376053;0.053435999900102615;1.0013760328292847;0.23716799914836884;-0.07905599474906921;1.126304030418396;0.90562504529953;-3.434375047683716;10.215624809265137
687;0.0;0.0;0.0;0.2332639992237091;-0.08686399459838867;1.126304030418396;0.0;0.0;0.0
689;0.0;0.0;0.0;0.24887999892234802;-0.0907679945230484;1.1136159896850586;0.0;0.0;0.0
691;0.0;0.0;0.0;0.26449599862098694;-0.10247999429702759;1.122399926185608;0.0;0.0;0.0
694;0.12639199197292328;0.03660000115633011;0.9994239807128906;0.2683999836444855;-0.11028799414634705;1.122399926185608;2.3756251335144043;-3.224375009536743;9.655624389648438
696;0.0;0.0;0.0;0.26449599862098694;-0.09467199444770813;1.146799921989441;0.0;0.0;0.0
698;0.0;0.0;0.0;0.2566879987716675;-0.08295999467372894;1.1624159812927246;0.0;0.0;0.0
700;0.0;0.0;0.0;0.28011199831962585;-0.11419199407100677;1.1419199705123901;0.0;0.0;0.0
702;0.1256600022315979;0.030988000333309174;1.0150399208068848;0.25278398394584656;-0.08295999467372894;1.158511996269226;3.075624942779541;-3.294374942779541;9.02562427520752
704;0.0;0.0;0.0;0.22155199944972992;-0.09564799815416336;1.146799921989441;0.0;0.0;0.0
706;0.0;0.0;0.0;0.2176479995250702;-0.12297599762678146;1.158511996269226;0.0;0.0;0.0
708;0.0;0.0;0.0;0.2566879987716675;-0.09955199807882309;1.150704026222229;0.0;0.0;0.0
711;0.11882799863815308;0.03660000115633011;1.0299240350723267;0.23716799914836884;-0.09564799815416336;1.158511996269226;2.3756251335144043;-3.5743749141693115;8.745624542236328
713;0.0;0.0;0.0;0.24887999892234802;-0.07612799853086472;1.1663199663162231;0.0;0.0;0.0
715;0.0;0.0;0.0;0.24887999892234802;-0.0878399983048439;1.1663199663162231;0.0;0.0;0.0
717;0.0;0.0;0.0;0.2449759989976883;-0.10735999792814255;1.134112000465393;0.0;0.0;0.0
719;0.12077999860048294;0.05075199902057648;1.0296800136566162;0.24107199907302856;-0.07222399860620499;1.1546080112457275;0.4856249988079071;-4.554375171661377;8.885624885559082
721;0.0;0.0;0.0;0.23716799914836884;-0.07515199482440948;1.1546080112457275;0.0;0.0;0.0
723;0.0;0.0;0.0;0.24107199907302856;-0.07905599474906921;1.126304030418396;0.0;0.0;0.0
725;0.0;0.0;0.0;0.2332639992237091;-0.05172799900174141;1.1428959369659424;0.0;0.0;0.0
728;0.1227319985628128;0.054655998945236206;1.0091840028762817;0.24887999892234802;-0.09467199444770813;1.122399926185608;-1.1943750381469727;-6.164374828338623;9.445624351501465
730;0.0;0.0;0.0;0.24107199907302856;-0.08686399459838867;1.1302080154418945;0.0;0.0;0.0
732;0.0;0.0;0.0;0.26449599862098694;-0.07905599474906921;1.1136159896850586;0.0;0.0;0.0
734;0.0;0.0;0.0;0.22545599937438965;-0.08686399459838867;1.101904034614563;0.0;0.0;0.0
736;0.1163880005478859;0.05319199711084366;0.9960079789161682;0.2566879987716675;-0.07905599474906921;1.1058080196380615;-2.034374952316284;-7.634375095367432;10.7056245803833
738;0.0;0.0;0.0;0.24887999892234802;-0.0907679945230484;1.097999930381775;0.0;0.0;0.0
740;0.0;0.0;0.0;0.25278398394584656;-0.11419199407100677;1.0726239681243896;0.0;0.0;0.0
742;0.0;0.0;0.0;0.26449599862098694;-0.07124799489974976;1.085312008857727;0.0;0.0;0.0
745;0.12419600039720535;0.05148399993777275;0.9669719934463501;0.24887999892234802;-0.08686399459838867;1.0648159980773926;-2.594374895095825;-8.404375076293945;11.265625
747;0.0;0.0;0.0;0.260591983795166;-0.07124799489974976;1.085312008857727;0.0;0.0;0.0
749;0.0;0.0;0.0;0.26449599862098694;-0.11028799414634705;1.0482239723205566;0.0;0.0;0.0
751;0.0;0.0;0.0;0.2566879987716675;-0.0907679945230484;1.060912013053894;0.0;0.0;0.0
753;0.13688400387763977;0.0348920002579689;0.9430599808692932;0.2449759989976883;-0.09467199444770813;1.044319987297058;-1.6843750476837158;-7.144374847412109;10.635624885559082
755;0.0;0.0;0.0;0.24887999892234802;-0.12590399384498596;1.0570080280303955;0.0;0.0;0.0
757;0.0;0.0;0.0;0.2332639992237091;-0.1180959939956665;1.0570080280303955;0.0;0.0;0.0
759;0.0;0.0;0.0;0.22935999929904938;-0.12199999392032623;1.0687199831008911;0.0;0.0;0.0
762;0.12321999669075012;0.022935999557375908;0.9362279772758484;0.22545599937438965;-0.1180959939956665;1.0238239765167236;0.06562499701976776;-5.95437479019165;10.42562484741211
764;0.0;0.0;0.0;0.22545599937438965;-0.12199999392032623;1.0648159980773926;0.0;0.0;0.0
766;0.0;0.0;0.0;0.260591983795166;-0.1180959939956665;1.073599934577942;0.0;0.0;0.0
768;0.0;0.0;0.0;0.260591983795166;-0.11419199407100677;1.060912013053894;0.0;0.0;0.0
770;0.12590399384498596;0.02903600037097931;0.9364719986915588;0.2723039984703064;-0.09857599437236786;1.0570080280303955;0.4856249988079071;-3.784374952316284;10.005624771118164
772;0.0;0.0;0.0;0.2683999836444855;-0.08686399459838867;1.0814080238342285;0.0;0.0;0.0
774;0.0;0.0;0.0;0.2332639992237091;-0.09857599437236786;1.0687199831008911;0.0;0.0;0.0
776;0.0;0.0;0.0;0.2566879987716675;-0.09467199444770813;1.085312008857727;0.0;0.0;0.0
779;0.13517600297927856;0.03635599836707115;0.9403759837150574;0.2449759989976883;-0.11028799414634705;1.0775039196014404;0.4856249988079071;-2.104374885559082;10.075624465942383
781;0.0;0.0;0.0;0.2449759989976883;-0.09857599437236786;1.0570080280303955;0.0;0.0;0.0
783;0.0;0.0;0.0;0.25278398394584656;-0.0907679945230484;1.060912013053894;0.0;0.0;0.0
785;0.0;0.0;0.0;0.22155199944972992;-0.10638399422168732;1.0570080280303955;0.0;0.0;0.0
787;0.1256600022315979;0.02781599946320057;0.9442799687385559;0.2449759989976883;-0.13371199369430542;1.0687199831008911;0.4156250059604645;-1.1943750381469727;9.795624732971191
789;0.0;0.0;0.0;0.2566879987716675;-0.10638399422168732;1.0775039196014404;0.0;0.0;0.0
791;0.0;0.0;0.0;0.2449759989976883;-0.09857599437236786;1.0814080238342285;0.0;0.0;0.0
793;0.0;0.0;0.0;0.27620798349380493;-0.08295999467372894;1.0687199831008911;0.0;0.0;0.0
796;0.14005599915981293;0.03001200035214424;0.9491599798202515;0.2683999836444855;-0.11028799414634705;1.0775039196014404;-0.28437501192092896;-0.4243750274181366;9.515625
798;0.0;0.0;0.0;0.23716799914836884;-0.09467199444770813;1.0726239681243896;0.0;0.0;0.0
800;0.0;0.0;0.0;0.27620798349380493;-0.10638399422168732;1.073599934577942;0.0;0.0;0.0
802;0.0;0.0;0.0;0.29572799801826477;-0.0907679945230484;1.0814080238342285;0.0;0.0;0.0
804;0.1390800029039383;0.039772000163793564;0.9562360048294067;0.22155199944972992;-0.07515199482440948;1.0931199789047241;-1.1943750381469727;0.6256250143051147;9.795624732971191
806;0.0;0.0;0.0;0.22545599937438965;-0.08393599838018417;1.085312008857727;0.0;0.0;0.0
808;0.0;0.0;0.0;0.260591983795166;-0.0878399983048439;1.0814080238342285;0.0;0.0;0.0
810;0.0;0.0;0.0;0.26449599862098694;-0.09955199807882309;1.085312008857727;0.0;0.0;0.0
813;0.12639199197292328;0.035868000239133835;0.9616039991378784;0.24107199907302856;-0.09174399822950363;1.0726239681243896;-1.894374966621399;1.115625023841858;10.145624160766602
815;0.0;0.0;0.0;0.260591983795166;-0.09955199807882309;1.10971200466156;0.0;0.0;0.0
817;0.0;0.0;0.0;0.260591983795166;-0.10735999792814255;1.0892159938812256;0.0;0.0;0.0
819;0.0;0.0;0.0;0.25278398394584656;-0.10735999792814255;1.0814080238342285;0.0;0.0;0.0
821;0.12883199751377106;0.02537599951028824;0.9650200009346008;0.260591983795166;-0.09564799815416336;1.0892159938812256;-1.894374966621399;0.90562504529953;10.075624465942383
823;0.0;0.0;0.0;0.2723039984703064;-0.13371199369430542;1.101904034614563;0.0;0.0;0.0
825;0.0;0.0;0.0;0.2566879987716675;-0.0907679945230484;1.0892159938812256;0.0;0.0;0.0
827;0.0;0.0;0.0;0.23716799914836884;-0.10247999429702759;1.085312008857727;0.0;0.0;0.0
830;0.13371199369430542;0.022204000502824783;0.9616039991378784;0.29182398319244385;-0.14151999354362488;1.0775039196014404;-1.4743750095367432;0.765625;10.005624771118164
832;0.0;0.0;0.0;0.24107199907302856;-0.11028799414634705;1.0931199789047241;0.0;0.0;0.0
834;0.0;0.0;0.0;0.26449599862098694;-0.11028799414634705;1.085312008857727;0.0;0.0;0.0
836;0.0;0.0;0.0;0.260591983795166;-0.11419199407100677;1.0931199789047241;0.0;0.0;0.0
838;0.13932399451732635;0.017324000597000122;0.9696559906005859;0.2449759989976883;-0.12590399384498596;1.0931199789047241;-0.7043749690055847;2.0956249237060547;9.655624389648438
840;0.0;0.0;0.0;0.25278398394584656;-0.12297599762678146;1.101904034614563;0.0;0.0;0.0
842;0.0;0.0;0.0;0.23716799914836884;-0.10735999792814255;1.1302080154418945;0.0;0.0;0.0
844;0.0;0.0;0.0;0.2566879987716675;-0.15030398964881897;1.1136159896850586;0.0;0.0;0.0
847;0.13688400387763977;0.009027999825775623;0.9845399856567383;0.24107199907302856;-0.13078400492668152;1.134112000465393;-0.28437501192092896;3.215625047683716;9.515625
849;0.0;0.0;0.0;0.28011199831962585;-0.11907199770212173;1.146799921989441;0.0;0.0;0.0
851;0.0;0.0;0.0;0.260591983795166;-0.115167997777462;1.134112000465393;0.0;0.0;0.0
853;0.0;0.0;0.0;0.26449599862098694;-0.14640000462532043;1.134112000465393;0.0;0.0;0.0
855;0.13346800208091736;0.007807999849319458;1.012355923652649;0.25278398394584656;-0.10735999792814255;1.1624159812927246;-0.3543750047683716;3.9156250953674316;8.9556245803833
857;0.0;0.0;0.0;0.24887999892234802;-0.11126399785280228;1.175104022026062;0.0;0.0;0.0
859;0.0;0.0;0.0;0.2449759989976883;-0.13078400492668152;1.1712000370025635;0.0;0.0;0.0
862;0.0;0.0;0.0;0.26449599862098694;-0.12297599762678146;1.1663199663162231;0.0;0.0;0.0
864;0.1290760040283203;0.010247999802231789;1.0435879230499268;0.23716799914836884;-0.10735999792814255;1.1946239471435547;-1.2643749713897705;3.215625047683716;8.325624465942383
866;0.0;0.0;0.0;0.2449759989976883;-0.11907199770212173;1.1868159770965576;0.0;0.0;0.0
868;0.0;0.0;0.0;0.24887999892234802;-0.09955199807882309;1.182911992073059;0.0;0.0;0.0
870;0.0;0.0;0.0;0.26449599862098694;-0.10345599800348282;1.1868159770965576;0.0;0.0;0.0
872;0.1210239976644516;0.006587999872863293;1.0557879209518433;0.22545599937438965;-0.10735999792814255;1.199504017829895;-2.9443750381469727;0.06562499701976776;7.905624866485596
874;0.0;0.0;0.0;0.24107199907302856;-0.13761599361896515;1.1624159812927246;0.0;0.0;0.0
876;0.0;0.0;0.0;0.22545599937438965;-0.12590399384498596;1.1624159812927246;0.0;0.0;0.0
879;0.0;0.0;0.0;0.2332639992237091;-0.13371199369430542;1.158511996269226;0.0;0.0;0.0
881;0.12639199197292328;0.010979999788105488;1.0360239744186401;0.26449599862098694;-0.0907679945230484;1.1663199663162231;-3.994374990463257;-3.924375057220459;7.345624923706055
883;0.0;0.0;0.0;0.25278398394584656;-0.11028799414634705;1.1419199705123901;0.0;0.0;0.0
885;0.0;0.0;0.0;0.26449599862098694;-0.12199999392032623;1.101904034614563;0.0;0.0;0.0
887;0.0;0.0;0.0;0.2566879987716675;-0.10247999429702759;1.1419199705123901;0.0;0.0;0.0
889;0.15396399796009064;0.0287919994443655;1.0077199935913086;0.29572799801826477;-0.07515199482440948;1.1419199705123901;-3.364375114440918;-5.95437479019165;7.415625095367432
891;0.0;0.0;0.0;0.2879199981689453;-0.09467199444770813;1.10971200466156;0.0;0.0;0.0
893;0.0;0.0;0.0;0.2840159833431244;-0.06734399497509003;1.146799921989441;0.0;0.0;0.0
896;0.0;0.0;0.0;0.25278398394584656;-0.10638399422168732;1.122399926185608;0.0;0.0;0.0
898;0.15908800065517426;0.047335997223854065;1.0077199935913086;0.28011199831962585;-0.07124799489974976;1.1419199705123901;-1.6143749952316284;-4.484375;7.905624866485596
900;0.0;0.0;0.0;0.2879199981689453;-0.08295999467372894;1.1302080154418945;0.0;0.0;0.0
902;0.0;0.0;0.0;0.2566879987716675;-0.07905599474906921;1.146799921989441;0.0;0.0;0.0
904;0.0;0.0;0.0;0.2566879987716675;-0.0907679945230484;1.1419199705123901;0.0;0.0;0.0
906;0.14444799721240997;0.06148799881339073;1.0106480121612549;0.260591983795166;-0.0634399950504303;1.1302080154418945;-0.4943750202655792;-2.804374933242798;8.885624885559082
908;0.0;0.0;0.0;0.2449759989976883;-0.08003199845552444;1.1546080112457275;0.0;0.0;0.0
910;0.0;0.0;0.0;0.24887999892234802;-0.08003199845552444;1.1380159854888916;0.0;0.0;0.0
913;0.0;0.0;0.0;0.24887999892234802;-0.08003199845552444;1.126304030418396;0.0;0.0;0.0
915;0.12761199474334717;0.062219999730587006;1.0094280242919922;0.2449759989976883;-0.09174399822950363;1.1380159854888916;0.13562500476837158;-2.874375104904175;9.095624923706055
917;0.0;0.0;0.0;0.2332639992237091;-0.08003199845552444;1.134112000465393;0.0;0.0;0.0
919;0.0;0.0;0.0;0.2332639992237091;-0.08393599838018417;1.1302080154418945;0.0;0.0;0.0
921;0.0;0.0;0.0;0.23716799914836884;-0.06441599875688553;1.122399926185608;0.0;0.0;0.0
923;0.13053999841213226;0.04928799718618393;1.001863956451416;0.23716799914836884;-0.0878399983048439;1.126304030418396;0.34562498331069946;-3.994374990463257;8.67562484741211
925;0.0;0.0;0.0;0.2683999836444855;-0.07222399860620499;1.10971200466156;0.0;0.0;0.0
927;0.0;0.0;0.0;0.2840159833431244;-0.08003199845552444;1.122399926185608;0.0;0.0;0.0
930;0.0;0.0;0.0;0.2723039984703064;-0.09564799815416336;1.134112000465393;0.0;0.0;0.0
932;0.13566400110721588;0.05319199711084366;0.9916160106658936;0.2566879987716675;-0.08003199845552444;1.126304030418396;0.34562498331069946;-4.834374904632568;8.255624771118164
934;0.0;0.0;0.0;0.22155199944972992;-0.07222399860620499;1.1302080154418945;0.0;0.0;0.0
936;0.0;0.0;0.0;0.22545599937438965;-0.06831999868154526;1.122399926185608;0.0;0.0;0.0
938;0.0;0.0;0.0;0.2566879987716675;-0.06831999868154526;1.1136159896850586;0.0;0.0;0.0
940;0.130295991897583;0.06709999591112137;0.982587993144989;0.260591983795166;-0.06441599875688553;1.10971200466156;-0.21437500417232513;-5.254374980926514;8.325624465942383
942;0.0;0.0;0.0;0.2332639992237091;-0.0907679945230484;1.085312008857727;0.0;0.0;0.0
944;0.0;0.0;0.0;0.2566879987716675;-0.05172799900174141;1.0892159938812256;0.0;0.0;0.0
947;0.0;0.0;0.0;0.22935999929904938;-0.0634399950504303;1.073599934577942;0.0;0.0;0.0
949;0.12931999564170837;0.07881199568510056;0.9598959684371948;0.2566879987716675;-0.05172799900174141;1.0687199831008911;-1.544374942779541;-5.884375095367432;9.095624923706055
951;0.0;0.0;0.0;0.2723039984703064;-0.05953599885106087;1.0531039237976074;0.0;0.0;0.0
953;0.0;0.0;0.0;0.2683999836444855;-0.024399999529123306;1.0531039237976074;0.0;0.0;0.0
955;0.0;0.0;0.0;0.2449759989976883;-0.03611199930310249;1.0247999429702759;0.0;0.0;0.0
957;0.14640000462532043;0.08759599924087524;0.9247599840164185;0.27620798349380493;-0.04001599922776222;1.019919991493225;-2.3843750953674316;-5.534375190734863;10.565624237060547
959;0.0;0.0;0.0;0.260591983795166;-0.04782399907708168;1.0326080322265625;0.0;0.0;0.0
961;0.0;0.0;0.0;0.28011199831962585;-0.05953599885106087;1.019919991493225;0.0;0.0;0.0
964;0.0;0.0;0.0;0.24887999892234802;-0.07905599474906921;1.0238239765167236;0.0;0.0;0.0
966;0.14761999249458313;0.07905599474906921;0.9006040096282959;0.2449759989976883;-0.05953599885106087;1.0082080364227295;-2.244374990463257;-2.664375066757202;12.035624504089355
968;0.0;0.0;0.0;0.2723039984703064;-0.0634399950504303;1.0287039279937744;0.0;0.0;0.0
970;0.0;0.0;0.0;0.2723039984703064;-0.08686399459838867;1.0404160022735596;0.0;0.0;0.0
972;0.0;0.0;0.0;0.28011199831962585;-0.0634399950504303;1.0247999429702759;0.0;0.0;0.0
974;0.1495719999074936;0.0634399950504303;0.8996279835700989;0.2683999836444855;-0.07905599474906921;1.0287039279937744;-1.6843750476837158;1.7456250190734863;12.52562427520752
976;0.0;0.0;0.0;0.2566879987716675;-0.08295999467372894;1.0326080322265625;0.0;0.0;0.0
978;0.0;0.0;0.0;0.260591983795166;-0.07124799489974976;1.0082080364227295;0.0;0.0;0.0
981;0.0;0.0;0.0;0.260591983795166;-0.0907679945230484;1.0287039279937744;0.0;0.0;0.0
983;0.140299990773201;0.05392399802803993;0.9086560010910034;0.23716799914836884;-0.07905599474906921;1.0482239723205566;-1.4743750095367432;4.895625114440918;12.875624656677246
985;0.0;0.0;0.0;0.24887999892234802;-0.07124799489974976;1.0404160022735596;0.0;0.0;0.0
987;0.0;0.0;0.0;0.2449759989976883;-0.07905599474906921;1.0326080322265625;0.0;0.0;0.0
989;0.0;0.0;0.0;0.2449759989976883;-0.07905599474906921;1.044319987297058;0.0;0.0;0.0
991;0.1268799901008606;0.05050799995660782;0.9193919897079468;0.23716799914836884;-0.07515199482440948;1.0404160022735596;-1.334375023841858;5.525625228881836;12.52562427520752
993;0.0;0.0;0.0;0.24887999892234802;-0.09857599437236786;1.0404160022735596;0.0;0.0;0.0
995;0.0;0.0;0.0;0.24107199907302856;-0.12199999392032623;1.0531039237976074;0.0;0.0;0.0
998;0.0;0.0;0.0;0.2449759989976883;-0.08686399459838867;1.0648159980773926;0.0;0.0;0.0
1000;0.12077999860048294;0.029523998498916626;0.925491988658905;0.26449599862098694;-0.10638399422168732;1.0726239681243896;0.06562499701976776;5.735625267028809;11.965624809265137
1002;0.0;0.0;0.0;0.2566879987716675;-0.12590399384498596;1.060912013053894;0.0;0.0;0.0
1004;0.0;0.0;0.0;0.2449759989976883;-0.12199999392032623;1.0814080238342285;0.0;0.0;0.0
1006;0.0;0.0;0.0;0.25278398394584656;-0.10638399422168732;1.0648159980773926;0.0;0.0;0.0
1008;0.1332239955663681;0.023180000483989716;0.954039990901947;0.22545599937438965;-0.09467199444770813;1.085312008857727;2.1656250953674316;6.505625247955322;11.335624694824219
1011;0.0;0.0;0.0;0.2840159833431244;-0.0907679945230484;1.0931199789047241;0.0;0.0;0.0
1012;0.0;0.0;0.0;0.2683999836444855;-0.08686399459838867;1.1136159896850586;0.0;0.0;0.0
1015;0.0;0.0;0.0;0.2449759989976883;-0.04782399907708168;1.1058080196380615;0.0;0.0;0.0
1017;0.14420399069786072;0.052947998046875;0.9618479609489441;0.2723039984703064;-0.05563199892640114;1.0648159980773926;4.265625;7.555624961853027;10.845624923706055
1019;0.0;0.0;0.0;0.27620798349380493;-0.06734399497509003;1.0814080238342285;0.0;0.0;0.0
1021;0.0;0.0;0.0;0.28011199831962585;-0.05953599885106087;1.097999930381775;0.0;0.0;0.0
1023;0.0;0.0;0.0;0.260591983795166;-0.04782399907708168;1.0931199789047241;0.0;0.0;0.0
1025;0.14298400282859802;0.07295599579811096;0.9750239849090576;0.25278398394584656;-0.07124799489974976;1.1058080196380615;5.735625267028809;8.885624885559082;11.61562442779541
1027;0.0;0.0;0.0;0.2566879987716675;-0.04782399907708168;1.10971200466156;0.0;0.0;0.0
1029;0.0;0.0;0.0;0.24887999892234802;-0.04001599922776222;1.1136159896850586;0.0;0.0;0.0
1032;0.0;0.0;0.0;0.2449759989976883;-0.07515199482440948;1.134112000465393;0.0;0.0;0.0
1034;0.14225199818611145;0.07173600047826767;0.9930799603462219;0.25278398394584656;-0.04782399907708168;1.1419199705123901;5.875625133514404;9.86562442779541;13.295624732971191
1036;0.0;0.0;0.0;0.2683999836444855;-0.07905599474906921;1.1380159854888916;0.0;0.0;0.0
1038;0.0;0.0;0.0;0.2683999836444855;-0.06734399497509003;1.150704026222229;0.0;0.0;0.0
1040;0.0;0.0;0.0;0.260591983795166;-0.09857599437236786;1.1624159812927246;0.0;0.0;0.0
1042;0.13859200477600098;0.05904799699783325;1.02675199508667;0.2683999836444855;-0.07905599474906921;1.182911992073059;4.895625114440918;9.86562442779541;14.625624656677246
1045;0.0;0.0;0.0;0.24887999892234802;-0.08686399459838867;1.207311987876892;0.0;0.0;0.0
1047;0.0;0.0;0.0;0.260591983795166;-0.0907679945230484;1.2034080028533936;0.0;0.0;0.0
1049;0.0;0.0;0.0;0.23716799914836884;-0.0634399950504303;1.2190239429473877;0.0;0.0;0.0
1051;0.1298079937696457;0.045871999114751816;1.0760400295257568;0.22935999929904938;-0.11028799414634705;1.207311987876892;2.2356250286102295;9.655624389648438;15.045624732971191
1053;0.0;0.0;0.0;0.2332639992237091;-0.13371199369430542;1.2112159729003906;0.0;0.0;0.0
1055;0.0;0.0;0.0;0.24887999892234802;-0.16103999316692352;1.207311987876892;0.0;0.0;0.0
1057;0.0;0.0;0.0;0.20203199982643127;-0.0907679945230484;1.2229279279708862;0.0;0.0;0.0
1059;0.11589999496936798;0.022935999557375908;1.0848239660263062;0.2723039984703064;-0.10638399422168732;1.1868159770965576;-2.034374952316284;6.29562520980835;15.325624465942383
1061;0.0;0.0;0.0;0.22545599937438965;-0.10638399422168732;1.175104022026062;0.0;0.0;0.0
1063;0.0;0.0;0.0;0.24107199907302856;-0.10247999429702759;1.182911992073059;0.0;0.0;0.0
1066;0.0;0.0;0.0;0.22545599937438965;-0.13371199369430542;1.1790080070495605;0.0;0.0;0.0
1068;0.11589999496936798;0.024887999519705772;1.0491999387741089;0.260591983795166;-0.12199999392032623;1.1624159812927246;-2.734375;-0.07437500357627869;14.27562427520752
1070;0.0;0.0;0.0;0.2449759989976883;-0.11028799414634705;1.134112000465393;0.0;0.0;0.0
1072;0.0;0.0;0.0;0.2176479995250702;-0.07124799489974976;1.1419199705123901;0.0;0.0;0.0
1074;0.0;0.0;0.0;0.2566879987716675;-0.12199999392032623;1.1302080154418945;0.0;0.0;0.0
1076;0.11736399680376053;0.024887999519705772;1.0160160064697266;0.26449599862098694;-0.10247999429702759;1.122399926185608;-1.4743750095367432;-4.904375076293945;13.855624198913574
1079;0.0;0.0;0.0;0.2479040026664734;-0.10247999429702759;1.134112000465393;0.0;0.0;0.0
1081;0.0;0.0;0.0;0.24399998784065247;-0.10638399422168732;1.097999930381775;0.0;0.0;0.0
1083;0.0;0.0;0.0;0.26742398738861084;-0.10247999429702759;1.126304030418396;0.0;0.0;0.0
1085;0.14005599915981293;0.0287919994443655;0.9903959631919861;0.2752319872379303;-0.09467199444770813;1.122399926185608;-0.1443749964237213;-4.134375095367432;13.295624732971191
1087;0.0;0.0;0.0;0.2635200023651123;-0.11028799414634705;1.122399926185608;0.0;0.0;0.0
1089;0.0;0.0;0.0;0.2752319872379303;-0.10638399422168732;1.10971200466156;0.0;0.0;0.0
1091;0.0;0.0;0.0;0.25571200251579285;-0.12199999392032623;1.126304030418396;0.0;0.0;0.0
1093;0.14883999526500702;0.01268799975514412;0.9952759742736816;0.3025600016117096;-0.13761599361896515;1.126304030418396;1.2556250095367432;-1.4043749570846558;13.155624389648438
1096;0.0;0.0;0.0;0.25278398394584656;-0.11028799414634705;1.122399926185608;0.0;0.0;0.0
1098;0.0;0.0;0.0;0.2449759989976883;-0.13761599361896515;1.146799921989441;0.0;0.0;0.0
1100;0.0;0.0;0.0;0.22935999929904938;-0.1298079937696457;1.150704026222229;0.0;0.0;0.0
1102;0.12761199474334717;0.003415999934077263;1.006500005722046;0.24887999892234802;-0.12590399384498596;1.126304030418396;2.7256250381469727;-0.6343749761581421;12.875624656677246
1104;0.0;0.0;0.0;0.260591983795166;-0.1180959939956665;1.1380159854888916;0.0;0.0;0.0
1106;0.0;0.0;0.0;0.22155199944972992;-0.14151999354362488;1.1302080154418945;0.0;0.0;0.0
1108;0.0;0.0;0.0;0.25278398394584656;-0.09857599437236786;1.1380159854888916;0.0;0.0;0.0
1110;0.12468399852514267;0.014639999717473984;1.0067440271377563;0.27620798349380493;-0.11028799414634705;1.1302080154418945;3.3556251525878906;-1.4743750095367432;12.245624542236328
1112;0.0;0.0;0.0;0.22935999929904938;-0.11028799414634705;1.1302080154418945;0.0;0.0;0.0
1115;0.0;0.0;0.0;0.24887999892234802;-0.11028799414634705;1.1419199705123901;0.0;0.0;0.0
1117;0.0;0.0;0.0;0.2879199981689453;-0.10638399422168732;1.1302080154418945;0.0;0.0;0.0
1119;0.1373720020055771;0.02513200044631958;1.0057679414749146;0.2840159833431244;-0.08686399459838867;1.126304030418396;3.2856249809265137;-1.894374966621399;11.475625038146973
1121;0.0;0.0;0.0;0.25278398394584656;-0.09857599437236786;1.150704026222229;0.0;0.0;0.0
1123;0.0;0.0;0.0;0.2683999836444855;-0.09857599437236786;1.122399926185608;0.0;0.0;0.0
1125;0.0;0.0;0.0;0.2449759989976883;-0.09857599437236786;1.10971200466156;0.0;0.0;0.0
1127;0.13590799272060394;0.03684400022029877;0.9960079789161682;0.25278398394584656;-0.0907679945230484;1.1302080154418945;3.145625114440918;-3.1543750762939453;11.545624732971191
1130;0.0;0.0;0.0;0.2840159833431244;-0.07905599474906921;1.126304030418396;0.0;0.0;0.0
1132;0.0;0.0;0.0;0.25278398394584656;-0.09857599437236786;1.0892159938812256;0.0;0.0;0.0
1134;0.0;0.0;0.0;0.24887999892234802;-0.09467199444770813;1.0687199831008911;0.0;0.0;0.0
1136;0.1320039927959442;0.04123599827289581;0.9698999524116516;0.24107199907302856;-0.09467199444770813;1.0775039196014404;3.4256250858306885;-4.134375095367432;11.895624160766602
1138;0.0;0.0;0.0;0.24887999892234802;-0.08686399459838867;1.0814080238342285;0.0;0.0;0.0
1140;0.0;0.0;0.0;0.2683999836444855;-0.08686399459838867;1.0531039237976074;0.0;0.0;0.0
1142;0.0;0.0;0.0;0.28011199831962585;-0.11028799414634705;1.0404160022735596;0.0;0.0;0.0
1144;0.13468798995018005;0.01756799966096878;0.9357399940490723;0.25278398394584656;-0.10247999429702759;1.0531039237976074;4.825624942779541;-4.064374923706055;11.545624732971191
1147;0.0;0.0;0.0;0.29572799801826477;-0.1180959939956665;1.0775039196014404;0.0;0.0;0.0
1149;0.0;0.0;0.0;0.2723039984703064;-0.11028799414634705;1.0687199831008911;0.0;0.0;0.0
1151;0.0;0.0;0.0;0.28011199831962585;-0.14151999354362488;1.0531039237976074;0.0;0.0;0.0
1153;0.152988001704216;0.010003999806940556;0.9308599829673767;0.28011199831962585;-0.11028799414634705;1.0648159980773926;6.505625247955322;-2.034374952316284;10.915624618530273
1155;0.0;0.0;0.0;0.2566879987716675;-0.10247999429702759;1.0775039196014404;0.0;0.0;0.0
1157;0.0;0.0;0.0;0.2566879987716675;-0.08686399459838867;1.0726239681243896;0.0;0.0;0.0
1159;0.0;0.0;0.0;0.25278398394584656;-0.10638399422168732;1.0648159980773926;0.0;0.0;0.0
1161;0.13517600297927856;0.022204000502824783;0.9452559947967529;0.23716799914836884;-0.10247999429702759;1.101904034614563;6.855625152587891;0.27562499046325684;10.42562484741211
1164;0.0;0.0;0.0;0.2332639992237091;-0.10638399422168732;1.101904034614563;0.0;0.0;0.0
1166;0.0;0.0;0.0;0.21374399960041046;-0.0907679945230484;1.085312008857727;0.0;0.0;0.0
1168;0.0;0.0;0.0;0.2723039984703064;-0.11028799414634705;1.0931199789047241;0.0;0.0;0.0
1170;0.12712399661540985;0.03660000115633011;0.9684360027313232;0.24107199907302856;-0.10638399422168732;1.0892159938812256;5.875625133514404;1.7456250190734863;9.725625038146973
1172;0.0;0.0;0.0;0.24107199907302856;-0.06734399497509003;1.097999930381775;0.0;0.0;0.0
1174;0.0;0.0;0.0;0.24107199907302856;-0.09467199444770813;1.1175199747085571;0.0;0.0;0.0
1176;0.0;0.0;0.0;0.2723039984703064;-0.07515199482440948;1.126304030418396;0.0;0.0;0.0
1178;0.12956400215625763;0.04660400003194809;0.9777079820632935;0.27620798349380493;-0.07124799489974976;1.1058080196380615;4.54562520980835;1.1856250762939453;10.42562484741211
1181;0.0;0.0;0.0;0.27620798349380493;-0.07515199482440948;1.0892159938812256;0.0;0.0;0.0
1183;0.0;0.0;0.0;0.2566879987716675;-0.06734399497509003;1.1136159896850586;0.0;0.0;0.0
1185;0.0;0.0;0.0;0.24107199907302856;-0.0907679945230484;1.1058080196380615;0.0;0.0;0.0
1187;0.13176000118255615;0.05270399898290634;0.9735599756240845;0.2566879987716675;-0.08686399459838867;1.10971200466156;3.8456249237060547;0.5556250214576721;11.405624389648438
1189;0.0;0.0;0.0;0.2449759989976883;-0.04782399907708168;1.0814080238342285;0.0;0.0;0.0
1191;0.0;0.0;0.0;0.2683999836444855;-0.07515199482440948;1.0931199789047241;0.0;0.0;0.0
1193;0.0;0.0;0.0;0.260591983795166;-0.08295999467372894;1.0814080238342285;0.0;0.0;0.0
1195;0.13419999182224274;0.050995998084545135;0.9677039980888367;0.2566879987716675;-0.09857599437236786;1.0931199789047241;3.775624990463257;0.9756250381469727;12.17562484741211
1198;0.0;0.0;0.0;0.24887999892234802;-0.10247999429702759;1.0648159980773926;0.0;0.0;0.0
1200;0.0;0.0;0.0;0.24887999892234802;-0.10247999429702759;1.0648159980773926;0.0;0.0;0.0
1202;0.0;0.0;0.0;0.2723039984703064;-0.09467199444770813;1.0531039237976074;0.0;0.0;0.0
1204;0.13102799654006958;0.03391600027680397;0.9481839537620544;0.25278398394584656;-0.12199999392032623;1.0648159980773926;4.755625247955322;1.7456250190734863;12.665624618530273
1206;0.0;0.0;0.0;0.260591983795166;-0.09857599437236786;1.060912013053894;0.0;0.0;0.0
1208;0.0;0.0;0.0;0.24887999892234802;-0.10247999429702759;1.0648159980773926;0.0;0.0;0.0
1210;0.0;0.0;0.0;0.2566879987716675;-0.1298079937696457;1.0531039237976074;0.0;0.0;0.0
1212;0.1290760040283203;0.028060000389814377;0.929639995098114;0.26449599862098694;-0.13761599361896515;1.060912013053894;7.065625190734863;3.075624942779541;12.245624542236328
1215;0.0;0.0;0.0;0.24107199907302856;-0.12297599762678146;1.0531039237976074;0.0;0.0;0.0
1217;0.0;0.0;0.0;0.26449599862098694;-0.11907199770212173;1.0687199831008911;0.0;0.0;0.0
1219;0.0;0.0;0.0;0.2332639992237091;-0.11126399785280228;1.0482239723205566;0.0;0.0;0.0
1221;0.12541599571704865;0.01781199872493744;0.9330559968948364;0.22935999929904938;-0.13078400492668152;1.060912013053894;10.005624771118164;5.735625267028809;11.335624694824219
1223;0.0;0.0;0.0;0.2566879987716675;-0.10735999792814255;1.0775039196014404;0.0;0.0;0.0
1225;0.0;0.0;0.0;0.26449599862098694;-0.10345599800348282;1.0931199789047241;0.0;0.0;0.0
1227;0.0;0.0;0.0;0.24887999892234802;-0.13468798995018005;1.097999930381775;0.0;0.0;0.0
1229;0.1298079937696457;0.013175999745726585;0.9503799676895142;0.2683999836444855;-0.10735999792814255;1.0814080238342285;12.105624198913574;9.095624923706055;10.145624160766602
1232;0.0;0.0;0.0;0.2332639992237091;-0.11419199407100677;1.101904034614563;0.0;0.0;0.0
1234;0.0;0.0;0.0;0.24107199907302856;-0.11419199407100677;1.1058080196380615;0.0;0.0;0.0
1236;0.0;0.0;0.0;0.23716799914836884;-0.1180959939956665;1.101904034614563;0.0;0.0;0.0
1238;0.12834399938583374;0.021959999576210976;0.9803919792175293;0.24107199907302856;-0.09857599437236786;1.1136159896850586;13.295624732971191;10.7056245803833;9.445624351501465
1240;0.0;0.0;0.0;0.2566879987716675;-0.08686399459838867;1.134112000465393;0.0;0.0;0.0
1242;0.0;0.0;0.0;0.25278398394584656;-0.08686399459838867;1.146799921989441;0.0;0.0;0.0
1244;0.0;0.0;0.0;0.2449759989976883;-0.11028799414634705;1.175104022026062;0.0;0.0;0.0
1246;0.12761199474334717;0.035868000239133835;1.0160160064697266;0.2449759989976883;-0.07905599474906921;1.150704026222229;13.295624732971191;10.635624885559082;9.375624656677246
1249;0.0;0.0;0.0;0.24887999892234802;-0.0907679945230484;1.158511996269226;0.0;0.0;0.0
1251;0.0;0.0;0.0;0.24887999892234802;-0.08295999467372894;1.1624159812927246;0.0;0.0;0.0
1253;0.0;0.0;0.0;0.24107199907302856;-0.06734399497509003;1.1712000370025635;0.0;0.0;0.0
1255;0.12248799949884415;0.04782399907708168;1.0379760265350342;0.25278398394584656;-0.11419199407100677;1.1790080070495605;11.895624160766602;9.095624923706055;9.935624122619629
1257;0.0;0.0;0.0;0.25278398394584656;-0.0907679945230484;1.146799921989441;0.0;0.0;0.0
1259;0.0;0.0;0.0;0.22935999929904938;-0.09467199444770813;1.146799921989441;0.0;0.0;0.0
1261;0.0;0.0;0.0;0.25278398394584656;-0.07515199482440948;1.1663199663162231;0.0;0.0;0.0
1263;0.12004800140857697;0.05441199988126755;1.0391960144042969;0.2449759989976883;-0.07515199482440948;1.150704026222229;10.005624771118164;6.645625114440918;10.915624618530273
1266;0.0;0.0;0.0;0.22545599937438965;-0.08003199845552444;1.146799921989441;0.0;0.0;0.0
1268;0.0;0.0;0.0;0.24107199907302856;-0.08393599838018417;1.158511996269226;0.0;0.0;0.0
1270;0.0;0.0;0.0;0.24107199907302856;-0.06831999868154526;1.150704026222229;0.0;0.0;0.0
1272;0.12419600039720535;0.04904399812221527;1.0326080322265625;0.2332639992237091;-0.08393599838018417;1.146799921989441;7.905624866485596;4.895625114440918;11.685624122619629
1274;0.0;0.0;0.0;0.23716799914836884;-0.0878399983048439;1.175104022026062;0.0;0.0;0.0
1276;0.0;0.0;0.0;0.24887999892234802;-0.09174399822950363;1.1624159812927246;0.0;0.0;0.0
1278;0.0;0.0;0.0;0.2566879987716675;-0.09564799815416336;1.1546080112457275;0.0;0.0;0.0
1280;0.13176000118255615;0.04147999733686447;1.0274839401245117;0.23716799914836884;-0.09174399822950363;1.1419199705123901;5.875625133514404;4.265625;12.035624504089355
1283;0.0;0.0;0.0;0.260591983795166;-0.09467199444770813;1.126304030418396;0.0;0.0;0.0
1285;0.0;0.0;0.0;0.205935999751091;-0.09857599437236786;1.126304030418396;0.0;0.0;0.0
1287;0.0;0.0;0.0;0.22545599937438965;-0.08686399459838867;1.134112000465393;0.0;0.0;0.0
1289;0.11394799500703812;0.04806799814105034;1.0045479536056519;0.20203199982643127;-0.0907679945230484;1.10971200466156;5.385624885559082;2.0956249237060547;12.4556245803833
1291;0.0;0.0;0.0;0.2449759989976883;-0.04001599922776222;1.101904034614563;0.0;0.0;0.0
1293;0.0;0.0;0.0;0.22935999929904938;-0.07905599474906921;1.1136159896850586;0.0;0.0;0.0
1295;0.0;0.0;0.0;0.24887999892234802;-0.07124799489974976;1.1136159896850586;0.0;0.0;0.0
1297;0.10638399422168732;0.062463998794555664;0.9879559874534607;0.24887999892234802;-0.07515199482440948;1.1136159896850586;6.155624866485596;-0.1443749964237213;12.385624885559082
1300;0.0;0.0;0.0;0.20203199982643127;-0.0634399950504303;1.0892159938812256;0.0;0.0;0.0
1302;0.0;0.0;0.0;0.2683999836444855;-0.08686399459838867;1.122399926185608;0.0;0.0;0.0
1304;0.0;0.0;0.0;0.24887999892234802;-0.05953599885106087;1.1136159896850586;0.0;0.0;0.0
1306;0.12931999564170837;0.06197600066661835;0.9821000099182129;0.2566879987716675;-0.0634399950504303;1.10971200466156;7.065625190734863;0.765625;11.965624809265137
1308;0.0;0.0;0.0;0.26449599862098694;-0.0907679945230484;1.097999930381775;0.0;0.0;0.0
1310;0.0;0.0;0.0;0.24887999892234802;-0.09857599437236786;1.1175199747085571;0.0;0.0;0.0
1312;0.0;0.0;0.0;0.20983999967575073;-0.07124799489974976;1.101904034614563;0.0;0.0;0.0
1314;0.12614800035953522;0.04318799823522568;0.9823439717292786;0.2332639992237091;-0.1180959939956665;1.097999930381775;7.135624885559082;2.3056249618530273;12.17562484741211
1317;0.0;0.0;0.0;0.24107199907302856;-0.11028799414634705;1.10971200466156;0.0;0.0;0.0
1319;0.0;0.0;0.0;0.22545599937438965;-0.10247999429702759;1.1175199747085571;0.0;0.0;0.0
1321;0.0;0.0;0.0;0.23716799914836884;-0.0907679945230484;1.1175199747085571;0.0;0.0;0.0
1323;0.10833600163459778;0.026108000427484512;0.990884006023407;0.2332639992237091;-0.12199999392032623;1.1136159896850586;7.345624923706055;2.1656250953674316;11.475625038146973
1325;0.0;0.0;0.0;0.25278398394584656;-0.1180959939956665;1.1136159896850586;0.0;0.0;0.0
1327;0.0;0.0;0.0;0.25278398394584656;-0.07905599474906921;1.126304030418396;0.0;0.0;0.0
1329;0.0;0.0;0.0;0.24107199907302856;-0.06734399497509003;1.122399926185608;0.0;0.0;0.0
1331;0.12151199579238892;0.04782399907708168;0.9974719882011414;0.2683999836444855;-0.07905599474906921;1.0970239639282227;6.855625152587891;1.3956249952316284;10.845624923706055
1334;0.0;0.0;0.0;0.2566879987716675;-0.06734399497509003;1.1136159896850586;0.0;0.0;0.0
1336;0.0;0.0;0.0;0.2683999836444855;-0.07515199482440948;1.1136159896850586;0.0;0.0;0.0
1338;0.0;0.0;0.0;0.2332639992237091;-0.05172799900174141;1.1175199747085571;0.0;0.0;0.0
1340;0.12029200047254562;0.07515199482440948;0.9860039949417114;0.22935999929904938;-0.05172799900174141;1.10971200466156;5.735625267028809;0.4856249988079071;11.055624961853027
1342;0.0;0.0;0.0;0.22935999929904938;-0.04391999915242195;1.085312008857727;0.0;0.0;0.0
1344;0.0;0.0;0.0;0.2449759989976883;-0.04001599922776222;1.0970239639282227;0.0;0.0;0.0
1346;0.0;0.0;0.0;0.24887999892234802;-0.0907679945230484;1.0814080238342285;0.0;0.0;0.0
1348;0.12346399575471878;0.08417999744415283;0.9667279720306396;0.2723039984703064;-0.04391999915242195;1.0726239681243896;5.245625019073486;0.27562499046325684;12.035624504089355
1351;0.0;0.0;0.0;0.23716799914836884;-0.06734399497509003;1.0892159938812256;0.0;0.0;0.0
1353;0.0;0.0;0.0;0.26449599862098694;-0.0634399950504303;1.073599934577942;0.0;0.0;0.0
1355;0.0;0.0;0.0;0.2566879987716675;-0.07905599474906921;1.0775039196014404;0.0;0.0;0.0
1357;0.134443998336792;0.07149200141429901;0.9513559937477112;0.2566879987716675;-0.07124799489974976;1.073599934577942;5.455625057220459;2.0956249237060547;13.225625038146973
1359;0.0;0.0;0.0;0.24887999892234802;-0.05953599885106087;1.0570080280303955;0.0;0.0;0.0
1361;0.0;0.0;0.0;0.2683999836444855;-0.09857599437236786;1.085312008857727;0.0;0.0;0.0
1363;0.0;0.0;0.0;0.2683999836444855;-0.08686399459838867;1.0814080238342285;0.0;0.0;0.0
1365;0.13663999736309052;0.05050799995660782;0.9467200040817261;0.260591983795166;-0.05953599885106087;1.085312008857727;6.225625038146973;4.54562520980835;13.715624809265137
1368;0.0;0.0;0.0;0.2332639992237091;-0.07222399860620499;1.085312008857727;0.0;0.0;0.0
1370;0.0;0.0;0.0;0.2723039984703064;-0.07612799853086472;1.085312008857727;0.0;0.0;0.0
1372;0.0;0.0;0.0;0.2566879987716675;-0.0605119988322258;1.0892159938812256;0.0;0.0;0.0
1374;0.1332239955663681;0.05416800081729889;0.9569680094718933;0.25278398394584656;-0.09174399822950363;1.0931199789047241;7.205625057220459;6.155624866485596;13.505624771118164
1376;0.0;0.0;0.0;0.2449759989976883;-0.08003199845552444;1.101904034614563;0.0;0.0;0.0
1378;0.0;0.0;0.0;0.24887999892234802;-0.05270399898290634;1.101904034614563;0.0;0.0;0.0
1380;0.0;0.0;0.0;0.22155199944972992;-0.06831999868154526;1.097999930381775;0.0;0.0;0.0
1382;0.11443600058555603;0.06612399965524673;0.9728279709815979;0.23716799914836884;-0.04879999905824661;1.0892159938812256;7.765625;6.925624847412109;12.875624656677246
1385;0.0;0.0;0.0;0.25278398394584656;-0.05953599885106087;1.097999930381775;0.0;0.0;0.0
1387;0.0;0.0;0.0;0.25278398394584656;-0.0634399950504303;1.1184959411621094;0.0;0.0;0.0
1389;0.0;0.0;0.0;0.22545599937438965;-0.0634399950504303;1.0970239639282227;0.0;0.0;0.0
1391;0.10638399422168732;0.07637199759483337;0.9803919792175293;0.21374399960041046;-0.0634399950504303;1.097999930381775;7.625625133514404;5.875625133514404;12.805624961853027
1393;0.0;0.0;0.0;0.22155199944972992;-0.06734399497509003;1.122399926185608;0.0;0.0;0.0
1395;0.0;0.0;0.0;0.2176479995250702;-0.0634399950504303;1.122399926185608;0.0;0.0;0.0
1397;0.0;0.0;0.0;0.22155199944972992;-0.06734399497509003;1.1380159854888916;0.0;0.0;0.0
1399;0.11028799414634705;0.07783599942922592;0.9877119660377502;0.26449599862098694;-0.04391999915242195;1.097999930381775;7.415625095367432;4.405624866485596;12.945624351501465
1402;0.0;0.0;0.0;0.20983999967575073;-0.05953599885106087;1.1058080196380615;0.0;0.0;0.0
1404;0.0;0.0;0.0;0.2449759989976883;-0.04001599922776222;1.1058080196380615;0.0;0.0;0.0
1406;0.0;0.0;0.0;0.24107199907302856;-0.0634399950504303;1.1175199747085571;0.0;0.0;0.0
1408;0.12443999946117401;0.0924759954214096;0.9933239817619324;0.25278398394584656;-0.032207999378442764;1.126304030418396;7.555624961853027;3.635625123977661;13.785624504089355
1410;0.0;0.0;0.0;0.2449759989976883;-0.04001599922776222;1.134112000465393;0.0;0.0;0.0
1412;0.0;0.0;0.0;0.24887999892234802;-0.024399999529123306;1.101904034614563;0.0;0.0;0.0
1414;0.0;0.0;0.0;0.2683999836444855;-0.01268799975514412;1.126304030418396;0.0;0.0;0.0
1416;0.12297599762678146;0.10931199789047241;0.9903959631919861;0.25278398394584656;-0.032207999378442764;1.10971200466156;8.255624771118164;3.9156250953674316;14.625624656677246
1419;0.0;0.0;0.0;0.3962559998035431;-0.20398399233818054;1.0570080280303955;0.0;0.0;0.0
1421;0.0;0.0;0.0;0.41577598452568054;-0.19227199256420135;1.085312008857727;0.0;0.0;0.0
1423;0.0;0.0;0.0;0.411871999502182;-0.1727519929409027;1.1058080196380615;0.0;0.0;0.0
1425;0.26669198274612427;-0.038307998329401016;0.962336003780365;0.3572160005569458;-0.12590399384498596;1.122399926185608;13.645624160766602;13.295624732971191;12.315624237060547
1427;0.0;0.0;0.0;0.3152479827404022;-0.11028799414634705;1.150704026222229;0.0;0.0;0.0
1429;0.0;0.0;0.0;0.2449759989976883;-0.07124799489974976;1.1663199663162231;0.0;0.0;0.0
1431;0.0;0.0;0.0;0.205935999751091;-0.05172799900174141;1.1868159770965576;0.0;0.0;0.0
1433;0.1320039927959442;0.05831599980592728;1.0321199893951416;0.13176000118255615;-0.004879999905824661;1.1956000328063965;19.80562400817871;24.1456241607666;10.565624237060547
1436;0.0;0.0;0.0;0.11224000155925751;0.0849120020866394;1.207311987876892;0.0;0.0;0.0
1438;0.0;0.0;0.0;0.054655998945236206;0.1239520013332367;1.2678239345550537;0.0;0.0;0.0
1440;0.0;0.0;0.0;0.07027199864387512;0.11614400148391724;1.248304009437561;0.0;0.0;0.0
1442;-0.029523998498916626;0.20569199323654175;1.108247995376587;0.1239520013332367;0.04196799919009209;1.2434239387512207;17.915624618530273;13.92562484741211;10.7056245803833
1444;0.0;0.0;0.0;0.18251200020313263;-0.06734399497509003;1.2356159687042236;0.0;0.0;0.0
1446;0.0;0.0;0.0;0.23716799914836884;-0.07905599474906921;1.2522079944610596;0.0;0.0;0.0
1448;0.0;0.0;0.0;0.35819199681282043;-0.2781600058078766;1.158511996269226;0.0;0.0;0.0
1451;0.15152399241924286;-0.013175999745726585;1.0799440145492554;0.4352959990501404;-0.3172000050544739;1.1546080112457275;10.7056245803833;-2.664375066757202;13.645624160766602
1453;0.0;0.0;0.0;0.4079679846763611;-0.29767999053001404;1.1712000370025635;0.0;0.0;0.0
1455;0.0;0.0;0.0;0.350383996963501;-0.3445279896259308;1.2151199579238892;0.0;0.0;0.0
1457;0.0;0.0;0.0;0.22545599937438965;-0.2820639908313751;1.256111979484558;0.0;0.0;0.0
1459;0.2000799924135208;-0.17128799855709076;1.0831159353256226;0.18641600012779236;-0.2781600058078766;1.2844159603118896;9.86562442779541;1.2556250095367432;10.915624618530273
1461;0.0;0.0;0.0;0.23716799914836884;-0.2508319914340973;1.2717279195785522;0.0;0.0;0.0
1463;0.0;0.0;0.0;0.24887999892234802;-0.2117919921875;1.2356159687042236;0.0;0.0;0.0
1465;0.0;0.0;0.0;0.2840159833431244;-0.16494399309158325;1.2190239429473877;0.0;0.0;0.0
1467;0.13224799931049347;-0.06685599684715271;1.1136159896850586;0.3425759971141815;-0.14151999354362488;1.199504017829895;0.8356250524520874;-7.074375152587891;8.11562442779541
1470;0.0;0.0;0.0;0.43139198422431946;-0.16884799301624298;1.1790080070495605;0.0;0.0;0.0
1472;0.0;0.0;0.0;0.423583984375;-0.12590399384498596;1.1624159812927246;0.0;0.0;0.0
1474;0.0;0.0;0.0;0.44310399889945984;-0.10638399422168732;1.1624159812927246;0.0;0.0;0.0
1476;0.2920680046081543;0.004391999915242195;1.0509079694747925;0.4001599848270416;-0.09467199444770813;1.1380159854888916;-4.834374904632568;3.775624990463257;6.715625286102295
1478;0.0;0.0;0.0;0.36209598183631897;-0.07124799489974976;1.101904034614563;0.0;0.0;0.0
1480;0.0;0.0;0.0;0.3425759971141815;-0.04782399907708168;1.0931199789047241;0.0;0.0;0.0
1482;0.0;0.0;0.0;0.29572799801826477;-0.04001599922776222;1.0531039237976074;0.0;0.0;0.0
1485;0.21789199113845825;0.07807999849319458;0.9677039980888367;0.27620798349380493;-0.024399999529123306;1.0326080322265625;-1.7543749809265137;18.05562400817871;10.215624809265137
1487;0.0;0.0;0.0;0.24107199907302856;-0.032207999378442764;1.0238239765167236;0.0;0.0;0.0
1489;0.0;0.0;0.0;0.19422399997711182;-0.03611199930310249;1.0082080364227295;0.0;0.0;0.0
1491;0.0;0.0;0.0;0.24107199907302856;-0.01659199967980385;0.9916160106658936;0.0;0.0;0.0
1493;0.10858000069856644;0.12663599848747253;0.8937720060348511;0.12785600125789642;0.11614400148391724;1.0404160022735596;11.265625;28.55562400817871;10.355624198913574
1495;0.0;0.0;0.0;0.007807999849319458;0.23716799914836884;1.0404160022735596;0.0;0.0;0.0
1497;0.0;0.0;0.0;0.09759999811649323;0.08100800216197968;1.0247999429702759;0.0;0.0;0.0
1499;0.0;0.0;0.0;-0.13176000118255615;0.35819199681282043;1.1624159812927246;0.0;0.0;0.0
1502;-0.16030800342559814;0.399183988571167;0.9637999534606934;-0.3699039816856384;0.5338720083236694;1.231711983680725;23.935625076293945;21.905624389648438;8.9556245803833
1504;0.0;0.0;0.0;-0.13566400110721588;0.11614400148391724;1.0892159938812256;0.0;0.0;0.0
1506;0.0;0.0;0.0;0.04294399917125702;-0.08295999467372894;1.0775039196014404;0.0;0.0;0.0
1508;0.0;0.0;0.0;0.1668960005044937;-0.18055999279022217;1.0726239681243896;0.0;0.0;0.0
1510;-0.09979599714279175;0.10321199893951416;0.9552599787712097;0.29182398319244385;-0.3718560039997101;0.9955199956893921;21.345624923706055;-22.754375457763672;13.92562484741211
1512;0.0;0.0;0.0;0.29572799801826477;-0.3484320044517517;1.019919991493225;0.0;0.0;0.0
1514;0.0;0.0;0.0;0.30353599786758423;-0.3835679888725281;1.0043039321899414;0.0;0.0;0.0
1516;0.0;0.0;0.0;0.2840159833431244;-0.3172000050544739;1.044319987297058;0.0;0.0;0.0
1519;0.16543199121952057;-0.2076440006494522;0.9015799760818481;0.2176479995250702;-0.2664479911327362;1.0687199831008911;26.035625457763672;-27.37437629699707;9.305624961853027
1521;0.0;0.0;0.0;0.2683999836444855;-0.20788799226284027;1.0892159938812256;0.0;0.0;0.0
1523;0.0;0.0;0.0;0.2840159833431244;-0.1180959939956665;1.1302080154418945;0.0;0.0;0.0
1525;0.0;0.0;0.0;0.3113439977169037;-0.08295999467372894;1.1546080112457275;0.0;0.0;0.0
1527;0.16665199398994446;-0.010735999792814255;0.9957639575004578;0.3230559825897217;-0.09467199444770813;1.1712000370025635;19.17562484741211;-16.66437530517578;4.475625038146973
1529;0.0;0.0;0.0;0.38844799995422363;-0.10247999429702759;1.1663199663162231;0.0;0.0;0.0
1531;0.0;0.0;0.0;0.3533119857311249;-0.05172799900174141;1.175104022026062;0.0;0.0;0.0
1533;0.0;0.0;0.0;0.33476799726486206;-0.07124799489974976;1.199504017829895;0.0;0.0;0.0
1536;0.23765599727630615;0.05319199711084366;1.0533479452133179;0.3230559825897217;-0.04782399907708168;1.2034080028533936;4.405624866485596;0.8356250524520874;2.3756251335144043
1538;0.0;0.0;0.0;0.2566879987716675;-0.037087999284267426;1.1790080070495605;0.0;0.0;0.0
1540;0.0;0.0;0.0;0.23716799914836884;-0.037087999284267426;1.1790080070495605;0.0;0.0;0.0
1542;0.0;0.0;0.0;0.1668960005044937;-0.0058559998869895935;1.1302080154418945;0.0;0.0;0.0
1544;0.0983319953083992;0.11370399594306946;1.0355359315872192;0.11614400148391724;-0.013663999736309052;1.1546080112457275;-4.76437520980835;5.595624923706055;5.525625228881836
1546;0.0;0.0;0.0;0.12785600125789642;0.0019519999623298645;1.126304030418396;0.0;0.0;0.0
1548;0.0;0.0;0.0;0.12004800140857697;0.0331839993596077;1.101904034614563;0.0;0.0;0.0
1550;0.0;0.0;0.0;0.13176000118255615;0.029279999434947968;1.097999930381775;0.0;0.0;0.0
1553;0.004879999905824661;0.15445199608802795;0.9781959652900696;0.14347200095653534;0.02537599951028824;1.0687199831008911;-7.774374961853027;-9.874375343322754;8.605624198913574
1555;0.0;0.0;0.0;0.19812799990177155;-0.004879999905824661;1.0892159938812256;0.0;0.0;0.0
1557;0.0;0.0;0.0;0.2449759989976883;-0.01659199967980385;1.0687199831008911;0.0;0.0;0.0
1559;0.0;0.0;0.0;0.2723039984703064;-0.05953599885106087;1.085312008857727;0.0;0.0;0.0
1561;0.11663199961185455;0.11980399489402771;0.9486719965934753;0.24887999892234802;-0.04391999915242195;1.0648159980773926;-10.784375190734863;-16.454376220703125;9.935624122619629
1563;0.0;0.0;0.0;0.29572799801826477;-0.07515199482440948;1.036512017250061;0.0;0.0;0.0
1565;0.0;0.0;0.0;0.3113439977169037;-0.08295999467372894;1.0404160022735596;0.0;0.0;0.0
1567;0.0;0.0;0.0;0.28011199831962585;-0.0907679945230484;1.0404160022735596;0.0;0.0;0.0
1570;0.1698240041732788;0.049531999975442886;0.9264679551124573;0.260591983795166;-0.11028799414634705;1.0482239723205566;-13.72437572479248;-10.084375381469727;12.17562484741211
1572;0.0;0.0;0.0;0.2566879987716675;-0.12590399384498596;1.060912013053894;0.0;0.0;0.0
1574;0.0;0.0;0.0;0.26449599862098694;-0.1180959939956665;1.0687199831008911;0.0;0.0;0.0
1576;0.0;0.0;0.0;0.24107199907302856;-0.12199999392032623;1.097999930381775;0.0;0.0;0.0
1578;0.13053999841213226;0.019763998687267303;0.9454999566078186;0.24887999892234802;-0.10638399422168732;1.0648159980773926;-14.984375953674316;-4.974374771118164;13.36562442779541
1580;0.0;0.0;0.0;0.22935999929904938;-0.10247999429702759;1.10971200466156;0.0;0.0;0.0
1582;0.0;0.0;0.0;0.2332639992237091;-0.0907679945230484;1.0970239639282227;0.0;0.0;0.0
1584;0.0;0.0;0.0;0.24107199907302856;-0.09857599437236786;1.097999930381775;0.0;0.0;0.0
1587;0.11199599504470825;0.03855200111865997;0.9750239849090576;0.22545599937438965;-0.08295999467372894;1.097999930381775;-15.614375114440918;-4.20437479019165;13.435625076293945
1589;0.0;0.0;0.0;0.19422399997711182;-0.07905599474906921;1.1136159896850586;0.0;0.0;0.0
1591;0.0;0.0;0.0;0.22935999929904938;-0.06734399497509003;1.0775039196014404;0.0;0.0;0.0
1593;0.0;0.0;0.0;0.2176479995250702;-0.08686399459838867;1.0726239681243896;0.0;0.0;0.0
1595;0.09589199721813202;0.04513999819755554;0.9635559916496277;0.19812799990177155;-0.12199999392032623;1.0775039196014404;-14.704375267028809;-5.674375057220459;13.785624504089355
1597;0.0;0.0;0.0;0.20983999967575073;-0.11028799414634705;1.060912013053894;0.0;0.0;0.0
1599;0.0;0.0;0.0;0.22545599937438965;-0.09467199444770813;1.0491999387741089;0.0;0.0;0.0
1601;0.0;0.0;0.0;0.21374399960041046;-0.12199999392032623;1.044319987297058;0.0;0.0;0.0
1604;0.09930799901485443;0.024887999519705772;0.9315919876098633;0.22935999929904938;-0.1180959939956665;1.044319987297058;-10.994375228881836;-6.51437520980835;13.085624694824219
1606;0.0;0.0;0.0;0.2449759989976883;-0.12590399384498596;1.0531039237976074;0.0;0.0;0.0
1608;0.0;0.0;0.0;0.2723039984703064;-0.12199999392032623;1.0482239723205566;0.0;0.0;0.0
1610;0.0;0.0;0.0;0.2566879987716675;-0.1454239934682846;1.036512017250061;0.0;0.0;0.0
1612;0.13249199092388153;0.0017079999670386314;0.9201239943504333;0.2683999836444855;-0.14151999354362488;1.0531039237976074;-6.024374961853027;-5.184374809265137;11.685624122619629
1614;0.0;0.0;0.0;0.26449599862098694;-0.14151999354362488;1.036512017250061;0.0;0.0;0.0
1616;0.0;0.0;0.0;0.26449599862098694;-0.12199999392032623;1.0326080322265625;0.0;0.0;0.0
1618;0.0;0.0;0.0;0.26449599862098694;-0.12590399384498596;1.019919991493225;0.0;0.0;0.0
1621;0.14469200372695923;0.00317199993878603;0.9164639711380005;0.2566879987716675;-0.13371199369430542;1.0531039237976074;-1.2643749713897705;-2.104374885559082;10.7056245803833
1623;0.0;0.0;0.0;0.22935999929904938;-0.13371199369430542;1.036512017250061;0.0;0.0;0.0
1625;0.0;0.0;0.0;0.2683999836444855;-0.13371199369430542;1.0570080280303955;0.0;0.0;0.0
1627;0.0;0.0;0.0;0.2332639992237091;-0.1180959939956665;1.0531039237976074;0.0;0.0;0.0
1629;0.12443999946117401;0.010003999806940556;0.9271999597549438;0.2449759989976883;-0.1298079937696457;1.0687199831008911;2.515625;2.585624933242798;9.165624618530273
1631;0.0;0.0;0.0;0.2176479995250702;-0.12590399384498596;1.0814080238342285;0.0;0.0;0.0
1633;0.0;0.0;0.0;0.25278398394584656;-0.11419199407100677;1.0892159938812256;0.0;0.0;0.0
1635;0.0;0.0;0.0;0.23716799914836884;-0.0907679945230484;1.097999930381775;0.0;0.0;0.0
1638;0.12321999669075012;0.02391199953854084;0.9579439759254456;0.24107199907302856;-0.09857599437236786;1.0892159938812256;5.245625019073486;6.505625247955322;7.205625057220459
1640;0.0;0.0;0.0;0.29182398319244385;-0.11028799414634705;1.1136159896850586;0.0;0.0;0.0
1642;0.0;0.0;0.0;0.24107199907302856;-0.12199999392032623;1.126304030418396;0.0;0.0;0.0
1644;0.0;0.0;0.0;0.2566879987716675;-0.10247999429702759;1.1380159854888916;0.0;0.0;0.0
1646;0.12883199751377106;0.024399999529123306;0.9962520003318787;0.27620798349380493;-0.11028799414634705;1.150704026222229;6.505625247955322;7.555624961853027;6.225625038146973
1648;0.0;0.0;0.0;0.260591983795166;-0.12590399384498596;1.150704026222229;0.0;0.0;0.0
1650;0.0;0.0;0.0;0.22935999929904938;-0.09467199444770813;1.158511996269226;0.0;0.0;0.0
1652;0.0;0.0;0.0;0.260591983795166;-0.11419199407100677;1.1712000370025635;0.0;0.0;0.0
1655;0.13859200477600098;0.024399999529123306;1.0462720394134521;0.260591983795166;-0.1298079937696457;1.2112159729003906;5.035624980926514;7.555624961853027;5.945624828338623
1657;0.0;0.0;0.0;0.24887999892234802;-0.1180959939956665;1.1946239471435547;0.0;0.0;0.0
1659;0.0;0.0;0.0;0.2683999836444855;-0.06734399497509003;1.2112159729003906;0.0;0.0;0.0
1661;0.0;0.0;0.0;0.23716799914836884;-0.09857599437236786;1.207311987876892;0.0;0.0;0.0
1663;0.13127200305461884;0.04123599827289581;1.0789679288864136;0.23716799914836884;-0.09467199444770813;1.2190239429473877;0.9756250381469727;5.875625133514404;6.785624980926514
1665;0.0;0.0;0.0;0.2332639992237091;-0.09857599437236786;1.2112159729003906;0.0;0.0;0.0
1667;0.0;0.0;0.0;0.2449759989976883;-0.07905599474906921;1.2034080028533936;0.0;0.0;0.0
1669;0.0;0.0;0.0;0.22545599937438965;-0.08686399459838867;1.2151199579238892;0.0;0.0;0.0
1672;0.11443600058555603;0.05245999991893768;1.0782359838485718;0.2449759989976883;-0.0907679945230484;1.199504017829895;-3.224375009536743;1.1856250762939453;7.695624828338623
1674;0.0;0.0;0.0;0.2566879987716675;-0.0634399950504303;1.199504017829895;0.0;0.0;0.0
1676;0.0;0.0;0.0;0.205935999751091;-0.07124799489974976;1.182911992073059;0.0;0.0;0.0
1678;0.0;0.0;0.0;0.22155199944972992;-0.0634399950504303;1.175104022026062;0.0;0.0;0.0
1680;0.11370399594306946;0.05709599703550339;1.0572519302368164;0.24887999892234802;-0.0907679945230484;1.158511996269226;-5.95437479019165;-5.604374885559082;8.67562484741211
1682;0.0;0.0;0.0;0.22155199944972992;-0.05563199892640114;1.1624159812927246;0.0;0.0;0.0
1684;0.0;0.0;0.0;0.24107199907302856;-0.1180959939956665;1.150704026222229;0.0;0.0;0.0
1687;0.0;0.0;0.0;0.260591983795166;-0.10247999429702759;1.1175199747085571;0.0;0.0;0.0
1689;0.11834000051021576;0.03635599836707115;1.0172359943389893;0.2449759989976883;-0.09857599437236786;1.1175199747085571;-7.004374980926514;-10.714375495910645;9.375624656677246
1691;0.0;0.0;0.0;0.2566879987716675;-0.11028799414634705;1.0970239639282227;0.0;0.0;0.0
1693;0.0;0.0;0.0;0.24107199907302856;-0.13761599361896515;1.101904034614563;0.0;0.0;0.0
1695;0.0;0.0;0.0;0.2723039984703064;-0.11028799414634705;1.085312008857727;0.0;0.0;0.0
1697;0.13566400110721588;0.006831999868154526;0.9728279709815979;0.25278398394584656;-0.13371199369430542;1.0726239681243896;-6.304375171661377;-11.904375076293945;9.02562427520752
1699;0.0;0.0;0.0;0.2566879987716675;-0.12590399384498596;1.0570080280303955;0.0;0.0;0.0
1701;0.0;0.0;0.0;0.24887999892234802;-0.12199999392032623;1.0687199831008911;0.0;0.0;0.0
1704;0.0;0.0;0.0;0.25278398394584656;-0.1454239934682846;1.060912013053894;0.0;0.0;0.0
1706;0.13541999459266663;-0.012199999764561653;0.9403759837150574;0.25278398394584656;-0.15323199331760406;1.0892159938812256;-3.924375057220459;-10.434375762939453;8.325624465942383
1708;0.0;0.0;0.0;0.260591983795166;-0.15323199331760406;1.060912013053894;0.0;0.0;0.0
1710;0.0;0.0;0.0;0.2449759989976883;-0.14151999354362488;1.0648159980773926;0.0;0.0;0.0
1712;0.0;0.0;0.0;0.2723039984703064;-0.15323199331760406;1.0726239681243896;0.0;0.0;0.0
1714;0.1349319964647293;-0.020495999604463577;0.9454999566078186;0.28011199831962585;-0.13761599361896515;1.0892159938812256;-1.824375033378601;-6.654375076293945;6.505625247955322
1716;0.0;0.0;0.0;0.2840159833431244;-0.16884799301624298;1.0726239681243896;0.0;0.0;0.0
1718;0.0;0.0;0.0;0.2840159833431244;-0.16494399309158325;1.097999930381775;0.0;0.0;0.0
1721;0.0;0.0;0.0;0.2566879987716675;-0.14151999354362488;1.073599934577942;0.0;0.0;0.0
1723;0.1424959897994995;-0.014151999726891518;0.9555040001869202;0.2449759989976883;-0.15323199331760406;1.085312008857727;-1.1243749856948853;-3.994374990463257;5.455625057220459
1725;0.0;0.0;0.0;0.23716799914836884;-0.1424959897994995;1.0931199789047241;0.0;0.0;0.0
1727;0.0;0.0;0.0;0.25278398394584656;-0.13468798995018005;1.0687199831008911;0.0;0.0;0.0
1729;0.0;0.0;0.0;0.25278398394584656;-0.11907199770212173;1.0775039196014404;0.0;0.0;0.0
1731;0.12419600039720535;-0.00634399987757206;0.9550159573554993;0.22545599937438965;-0.17372798919677734;1.10971200466156;-0.7743749618530273;-3.6443750858306885;4.895625114440918
1733;0.0;0.0;0.0;0.25278398394584656;-0.1542080044746399;1.0687199831008911;0.0;0.0;0.0
1735;0.0;0.0;0.0;0.25278398394584656;-0.16201600432395935;1.0931199789047241;0.0;0.0;0.0
1738;0.0;0.0;0.0;0.2449759989976883;-0.15811198949813843;1.0892159938812256;0.0;0.0;0.0
1740;0.1332239955663681;-0.020739998668432236;0.9596520066261292;0.260591983795166;-0.16591998934745789;1.1058080196380615;-0.4243750274181366;-2.174375057220459;3.8456249237060547
1742;0.0;0.0;0.0;0.27620798349380493;-0.15323199331760406;1.0892159938812256;0.0;0.0;0.0
1744;0.0;0.0;0.0;0.2332639992237091;-0.14932799339294434;1.1058080196380615;0.0;0.0;0.0
1746;0.0;0.0;0.0;0.29572799801826477;-0.16884799301624298;1.101904034614563;0.0;0.0;0.0
1748;0.14737600088119507;-0.029767999425530434;0.9672159552574158;0.260591983795166;-0.1298079937696457;1.101904034614563;-0.21437500417232513;-0.0043750000186264515;2.7256250381469727
1750;0.0;0.0;0.0;0.2449759989976883;-0.14151999354362488;1.1419199705123901;0.0;0.0;0.0
1752;0.0;0.0;0.0;0.260591983795166;-0.1571359932422638;1.1136159896850586;0.0;0.0;0.0
1755;0.0;0.0;0.0;0.27620798349380493;-0.1571359932422638;1.10971200466156;0.0;0.0;0.0
1757;0.1390800029039383;-0.02147199958562851;0.9872239828109741;0.26449599862098694;-0.1454239934682846;1.134112000465393;-0.3543750047683716;1.4656250476837158;1.0456249713897705
1759;0.0;0.0;0.0;0.26449599862098694;-0.12199999392032623;1.1175199747085571;0.0;0.0;0.0
1761;0.0;0.0;0.0;0.2449759989976883;-0.1298079937696457;1.126304030418396;0.0;0.0;0.0
1763;0.0;0.0;0.0;0.2683999836444855;-0.13371199369430542;1.122399926185608;0.0;0.0;0.0
1765;0.13590799272060394;-0.0021959999576210976;0.9984479546546936;0.2879199981689453;-0.13761599361896515;1.134112000465393;-1.1943750381469727;-0.4243750274181366;-0.0043750000186264515
1767;0.0;0.0;0.0;0.260591983795166;-0.11419199407100677;1.1302080154418945;0.0;0.0;0.0
1769;0.0;0.0;0.0;0.27620798349380493;-0.11419199407100677;1.1136159896850586;0.0;0.0;0.0
1772;0.0;0.0;0.0;0.29572799801826477;-0.11419199407100677;1.1175199747085571;0.0;0.0;0.0
1774;0.15030398964881897;0.010003999806940556;0.9925919771194458;0.27620798349380493;-0.11028799414634705;1.1058080196380615;-2.3843750953674316;-3.5743749141693115;0.13562500476837158
1776;0.0;0.0;0.0;0.2723039984703064;-0.10638399422168732;1.10971200466156;0.0;0.0;0.0
1778;0.0;0.0;0.0;0.30353599786758423;-0.1180959939956665;1.101904034614563;0.0;0.0;0.0
1780;0.0;0.0;0.0;0.2723039984703064;-0.11028799414634705;1.0892159938812256;0.0;0.0;0.0
1782;0.16909199953079224;0.020983999595046043;0.9786840081214905;0.2840159833431244;-0.09857599437236786;1.085312008857727;-3.1543750762939453;-4.484375;1.0456249713897705
1784;0.0;0.0;0.0;0.29572799801826477;-0.1180959939956665;1.085312008857727;0.0;0.0;0.0
1786;0.0;0.0;0.0;0.2996319830417633;-0.13371199369430542;1.085312008857727;0.0;0.0;0.0
1789;0.0;0.0;0.0;0.29182398319244385;-0.12199999392032623;1.0892159938812256;0.0;0.0;0.0
1791;0.16250400245189667;0.012931999750435352;0.9625799655914307;0.2879199981689453;-0.13761599361896515;1.073599934577942;-2.874375104904175;-3.294374942779541;1.5356249809265137
1793;0.0;0.0;0.0;0.29475200176239014;-0.12199999392032623;1.0687199831008911;0.0;0.0;0.0
1795;0.0;0.0;0.0;0.26742398738861084;-0.11028799414634705;1.10971200466156;0.0;0.0;0.0
1797;0.0;0.0;0.0;0.2479040026664734;-0.1180959939956665;1.0892159938812256;0.0;0.0;0.0
1799;0.1571359932422638;0.007563999854028225;0.9684360027313232;0.2635200023651123;-0.1180959939956665;1.1175199747085571;-1.6143749952316284;-2.804374933242798;1.3956249952316284
1801;0.0;0.0;0.0;0.2869440019130707;-0.11028799414634705;1.1380159854888916;0.0;0.0;0.0
1803;0.0;0.0;0.0;0.2791360020637512;-0.11419199407100677;1.146799921989441;0.0;0.0;0.0
1806;0.0;0.0;0.0;0.27132800221443176;-0.11028799414634705;1.150704026222229;0.0;0.0;0.0
1808;0.14859600365161896;0.02000799961388111;1.012355923652649;0.2479040026664734;-0.09857599437236786;1.1624159812927246;-1.4743750095367432;-1.9643750190734863;1.3256250619888306
1810;0.0;0.0;0.0;0.25278398394584656;-0.10638399422168732;1.175104022026062;0.0;0.0;0.0
1812;0.0;0.0;0.0;0.24887999892234802;-0.08686399459838867;1.175104022026062;0.0;0.0;0.0
1814;0.0;0.0;0.0;0.23716799914836884;-0.09857599437236786;1.1624159812927246;0.0;0.0;0.0
1816;0.12321999669075012;0.024399999529123306;1.0389519929885864;0.24887999892234802;-0.0907679945230484;1.1868159770965576;-3.294374942779541;-1.7543749809265137;0.765625
1818;0.0;0.0;0.0;0.21374399960041046;-0.10247999429702759;1.1546080112457275;0.0;0.0;0.0
1820;0.0;0.0;0.0;0.20983999967575073;-0.10247999429702759;1.1380159854888916;0.0;0.0;0.0
1823;0.0;0.0;0.0;0.20203199982643127;-0.1180959939956665;1.158511996269226;0.0;0.0;0.0
1825;0.10467600077390671;0.028060000389814377;1.0301679372787476;0.24107199907302856;-0.12199999392032623;1.146799921989441;-4.554375171661377;-5.394374847412109;-0.0043750000186264515
1827;0.0;0.0;0.0;0.23716799914836884;-0.08686399459838867;1.1546080112457275;0.0;0.0;0.0
1829;0.0;0.0;0.0;0.2176479995250702;-0.09857599437236786;1.134112000465393;0.0;0.0;0.0
1831;0.0;0.0;0.0;0.25278398394584656;-0.0907679945230484;1.0970239639282227;0.0;0.0;0.0
1833;0.10931199789047241;0.0378200002014637;1.0011320114135742;0.24887999892234802;-0.10247999429702759;1.122399926185608;-4.554375171661377;-9.174375534057617;-0.7743749618530273
1835;0.0;0.0;0.0;0.24887999892234802;-0.0907679945230484;1.1175199747085571;0.0;0.0;0.0
1837;0.0;0.0;0.0;0.26449599862098694;-0.09467199444770813;1.097999930381775;0.0;0.0;0.0
1840;0.0;0.0;0.0;0.2683999836444855;-0.10247999429702759;1.097999930381775;0.0;0.0;0.0
1842;0.14518000185489655;0.047091998159885406;0.9745360016822815;0.260591983795166;-0.1180959939956665;1.085312008857727;-4.274374961853027;-8.054375648498535;-0.21437500417232513
1844;0.0;0.0;0.0;0.260591983795166;-0.10247999429702759;1.0775039196014404;0.0;0.0;0.0
1846;0.0;0.0;0.0;0.24887999892234802;-0.09467199444770813;1.0648159980773926;0.0;0.0;0.0
1848;0.0;0.0;0.0;0.2840159833431244;-0.12199999392032623;1.073599934577942;0.0;0.0;0.0
1850;0.13859200477600098;0.028303999453783035;0.9393999576568604;0.25278398394584656;-0.1180959939956665;1.0570080280303955;-3.364375114440918;-3.994374990463257;0.5556250214576721
1852;0.0;0.0;0.0;0.2332639992237091;-0.1180959939956665;1.0491999387741089;0.0;0.0;0.0
1855;0.0;0.0;0.0;0.2566879987716675;-0.09467199444770813;1.0687199831008911;0.0;0.0;0.0
1857;0.0;0.0;0.0;0.26449599862098694;-0.12199999392032623;1.0687199831008911;0.0;0.0;0.0
1859;0.13468798995018005;0.02025200054049492;0.9479399919509888;0.27620798349380493;-0.09857599437236786;1.0931199789047241;-1.2643749713897705;-1.544374942779541;0.6256250143051147
1861;0.0;0.0;0.0;0.25278398394584656;-0.08686399459838867;1.10971200466156;0.0;0.0;0.0
1863;0.0;0.0;0.0;0.260591983795166;-0.08686399459838867;1.0892159938812256;0.0;0.0;0.0
1865;0.0;0.0;0.0;0.28011199831962585;-0.08686399459838867;1.1136159896850586;0.0;0.0;0.0
1867;0.1420079916715622;0.04050400108098984;0.9723399877548218;0.24107199907302856;-0.08295999467372894;1.10971200466156;-0.21437500417232513;-0.8443750143051147;1.115625023841858
1870;0.0;0.0;0.0;0.2723039984703064;-0.07905599474906921;1.1058080196380615;0.0;0.0;0.0
1871;0.0;0.0;0.0;0.2879199981689453;-0.0634399950504303;1.1058080196380615;0.0;0.0;0.0
1874;0.0;0.0;0.0;0.2840159833431244;-0.07905599474906921;1.10971200466156;0.0;0.0;0.0
1876;0.1395680010318756;0.0558759979903698;0.9850279688835144;0.22155199944972992;-0.07905599474906921;1.1058080196380615;-0.3543750047683716;-0.4243750274181366;2.585624933242798
1878;0.0;0.0;0.0;0.25278398394584656;-0.09857599437236786;1.122399926185608;0.0;0.0;0.0
1880;0.0;0.0;0.0;0.23716799914836884;-0.09857599437236786;1.101904034614563;0.0;0.0;0.0
1882;0.0;0.0;0.0;0.2879199981689453;-0.08686399459838867;1.10971200466156;0.0;0.0;0.0
1884;0.13249199092388153;0.04758000001311302;0.9872239828109741;0.2449759989976883;-0.09857599437236786;1.1175199747085571;-0.7043749690055847;-0.0043750000186264515;3.8456249237060547
1887;0.0;0.0;0.0;0.2449759989976883;-0.07905599474906921;1.134112000465393;0.0;0.0;0.0
1889;0.0;0.0;0.0;0.2683999836444855;-0.0907679945230484;1.134112000465393;0.0;0.0;0.0
1891;0.0;0.0;0.0;0.2449759989976883;-0.11419199407100677;1.146799921989441;0.0;0.0;0.0
1893;0.11907199770212173;0.04025999829173088;1.0043039321899414;0.2449759989976883;-0.08686399459838867;1.134112000465393;-1.1243749856948853;-0.984375;4.195624828338623
1895;0.0;0.0;0.0;0.22545599937438965;-0.0907679945230484;1.1546080112457275;0.0;0.0;0.0
1897;0.0;0.0;0.0;0.24887999892234802;-0.1180959939956665;1.158511996269226;0.0;0.0;0.0
1899;0.0;0.0;0.0;0.2683999836444855;-0.11028799414634705;1.1302080154418945;0.0;0.0;0.0
1901;0.1285879909992218;0.030988000333309174;1.0140639543533325;0.260591983795166;-0.11419199407100677;1.1380159854888916;-2.5243749618530273;-2.874375104904175;3.075624942779541
1903;0.0;0.0;0.0;0.22935999929904938;-0.07124799489974976;1.10971200466156;0.0;0.0;0.0
1906;0.0;0.0;0.0;0.24107199907302856;-0.12590399384498596;1.134112000465393;0.0;0.0;0.0
1908;0.0;0.0;0.0;0.27620798349380493;-0.13761599361896515;1.1136159896850586;0.0;0.0;0.0
1910;0.1256600022315979;0.02659599855542183;0.9999119639396667;0.22935999929904938;-0.11028799414634705;1.122399926185608;-4.20437479019165;-4.694375038146973;2.0956249237060547
1912;0.0;0.0;0.0;0.2723039984703064;-0.1180959939956665;1.1175199747085571;0.0;0.0;0.0
1914;0.0;0.0;0.0;0.2566879987716675;-0.09857599437236786;1.122399926185608;0.0;0.0;0.0
1916;0.0;0.0;0.0;0.2996319830417633;-0.10638399422168732;1.122399926185608;0.0;0.0;0.0
1918;0.14810799062252045;0.027084000408649445;0.9869799613952637;0.28011199831962585;-0.12199999392032623;1.0931199789047241;-6.024374961853027;-4.974374771118164;1.605625033378601
1921;0.0;0.0;0.0;0.2879199981689453;-0.11028799414634705;1.0892159938812256;0.0;0.0;0.0
1923;0.0;0.0;0.0;0.29572799801826477;-0.1180959939956665;1.0892159938812256;0.0;0.0;0.0
1925;0.0;0.0;0.0;0.2723039984703064;-0.07905599474906921;1.0814080238342285;0.0;0.0;0.0
1927;0.15860000252723694;0.027084000408649445;0.9645319581031799;0.26449599862098694;-0.11028799414634705;1.0687199831008911;-7.564374923706055;-3.784374952316284;2.0956249237060547
1929;0.0;0.0;0.0;0.2879199981689453;-0.08686399459838867;1.0775039196014404;0.0;0.0;0.0
1931;0.0;0.0;0.0;0.26449599862098694;-0.09857599437236786;1.0570080280303955;0.0;0.0;0.0
1933;0.0;0.0;0.0;0.29182398319244385;-0.09857599437236786;1.0648159980773926;0.0;0.0;0.0
1935;0.15323199331760406;0.03537999838590622;0.9454999566078186;0.29182398319244385;-0.09467199444770813;1.0648159980773926;-7.844375133514404;-1.4743750095367432;2.3056249618530273
1938;0.0;0.0;0.0;0.2723039984703064;-0.05953599885106087;1.0531039237976074;0.0;0.0;0.0
1940;0.0;0.0;0.0;0.2683999836444855;-0.08686399459838867;1.0531039237976074;0.0;0.0;0.0
1942;0.0;0.0;0.0;0.2840159833431244;-0.07905599474906921;1.0570080280303955;0.0;0.0;0.0
1944;0.1483519971370697;0.04147999733686447;0.9284200072288513;0.2723039984703064;-0.10247999429702759;1.0287039279937744;-6.234375;0.6956250071525574;2.585624933242798
1946;0.0;0.0;0.0;0.2723039984703064;-0.08686399459838867;1.0404160022735596;0.0;0.0;0.0
1948;0.0;0.0;0.0;0.260591983795166;-0.10638399422168732;1.0531039237976074;0.0;0.0;0.0
1950;0.0;0.0;0.0;0.28011199831962585;-0.11419199407100677;1.036512017250061;0.0;0.0;0.0
1952;0.1483519971370697;0.031964000314474106;0.9179279804229736;0.2566879987716675;-0.11419199407100677;1.0531039237976074;-2.5243749618530273;3.075624942779541;2.585624933242798
1955;0.0;0.0;0.0;0.2566879987716675;-0.12590399384498596;1.060912013053894;0.0;0.0;0.0
1957;0.0;0.0;0.0;0.24107199907302856;-0.11419199407100677;1.0775039196014404;0.0;0.0;0.0
1959;0.0;0.0;0.0;0.29572799801826477;-0.11419199407100677;1.0814080238342285;0.0;0.0;0.0
1961;0.1471319943666458;0.02147199958562851;0.9474520087242126;0.2879199981689453;-0.13371199369430542;1.1136159896850586;1.7456250190734863;7.345624923706055;1.3956249952316284
1963;0.0;0.0;0.0;0.25571200251579285;-0.11028799414634705;1.097999930381775;0.0;0.0;0.0
1965;0.0;0.0;0.0;0.236191987991333;-0.08295999467372894;1.122399926185608;0.0;0.0;0.0
1967;0.0;0.0;0.0;0.25571200251579285;-0.10638399422168732;1.150704026222229;0.0;0.0;0.0
1969;0.14298400282859802;0.02659599855542183;1.002351999282837;0.2635200023651123;-0.1180959939956665;1.1546080112457275;4.125625133514404;10.005624771118164;-0.1443749964237213
1972;0.0;0.0;0.0;0.2479040026664734;-0.0907679945230484;1.1419199705123901;0.0;0.0;0.0
1974;0.0;0.0;0.0;0.2479040026664734;-0.0907679945230484;1.1790080070495605;0.0;0.0;0.0
1976;0.0;0.0;0.0;0.24399998784065247;-0.10247999429702759;1.182911992073059;0.0;0.0;0.0
1978;0.13102799654006958;0.03952799737453461;1.0374879837036133;0.2596159875392914;-0.08295999467372894;1.1712000370025635;4.125625133514404;7.765625;-0.4243750274181366
1980;0.0;0.0;0.0;0.26449599862098694;-0.07905599474906921;1.1624159812927246;0.0;0.0;0.0
1982;0.0;0.0;0.0;0.260591983795166;-0.09467199444770813;1.1712000370025635;0.0;0.0;0.0
1984;0.0;0.0;0.0;0.2449759989976883;-0.0634399950504303;1.1546080112457275;0.0;0.0;0.0
1986;0.13517600297927856;0.05441199988126755;1.0404160022735596;0.2683999836444855;-0.07515199482440948;1.1419199705123901;2.7956249713897705;2.655625104904175;0.06562499701976776
1988;0.0;0.0;0.0;0.2723039984703064;-0.07124799489974976;1.1624159812927246;0.0;0.0;0.0
1991;0.0;0.0;0.0;0.3113439977169037;-0.05172799900174141;1.1790080070495605;0.0;0.0;0.0
1993;0.0;0.0;0.0;0.28011199831962585;-0.08686399459838867;1.1419199705123901;0.0;0.0;0.0
1995;0.14761999249458313;0.059779997915029526;1.0299240350723267;0.2566879987716675;-0.08686399459838867;1.1419199705123901;0.8356250524520874;-0.28437501192092896;1.2556250095367432
1997;0.0;0.0;0.0;0.2683999836444855;-0.07124799489974976;1.1380159854888916;0.0;0.0;0.0
1999;0.0;0.0;0.0;0.29182398319244385;-0.07124799489974976;1.1546080112457275;0.0;0.0;0.0
2001;0.0;0.0;0.0;0.2879199981689453;-0.05172799900174141;1.1302080154418945;0.0;0.0;0.0
2003;0.14810799062252045;0.05782799795269966;1.0157719850540161;0.23716799914836884;-0.0907679945230484;1.1302080154418945;-0.7043749690055847;-0.7043749690055847;2.7256250381469727
2006;0.0;0.0;0.0;0.26449599862098694;-0.10247999429702759;1.122399926185608;0.0;0.0;0.0
2008;0.0;0.0;0.0;0.2566879987716675;-0.10247999429702759;1.1175199747085571;0.0;0.0;0.0
2010;0.0;0.0;0.0;0.22935999929904938;-0.10247999429702759;1.126304030418396;0.0;0.0;0.0
2012;0.1273680031299591;0.04391999915242195;1.0040600299835205;0.2449759989976883;-0.08686399459838867;1.134112000465393;-0.984375;-0.21437500417232513;2.7256250381469727
2014;0.0;0.0;0.0;0.23716799914836884;-0.09467199444770813;1.1214239597320557;0.0;0.0;0.0
2016;0.0;0.0;0.0;0.2449759989976883;-0.09467199444770813;1.1546080112457275;0.0;0.0;0.0
2018;0.0;0.0;0.0;0.260591983795166;-0.11028799414634705;1.1663199663162231;0.0;0.0;0.0
2020;0.12639199197292328;0.03537999838590622;1.0189440250396729;0.26449599862098694;-0.0907679945230484;1.146799921989441;-0.7743749618530273;0.34562498331069946;1.2556250095367432
2023;0.0;0.0;0.0;0.260591983795166;-0.08686399459838867;1.158511996269226;0.0;0.0;0.0
2025;0.0;0.0;0.0;0.28011199831962585;-0.07515199482440948;1.1868159770965576;0.0;0.0;0.0
2027;0.0;0.0;0.0;0.27620798349380493;-0.08295999467372894;1.158511996269226;0.0;0.0;0.0
2029;0.1437159925699234;0.04806799814105034;1.0367560386657715;0.27620798349380493;-0.07515199482440948;1.146799921989441;-1.544374942779541;0.8356250524520874;0.4156250059604645
2031;0.0;0.0;0.0;0.24887999892234802;-0.0907679945230484;1.146799921989441;0.0;0.0;0.0
2033;0.0;0.0;0.0;0.2683999836444855;-0.08295999467372894;1.150704026222229;0.0;0.0;0.0
2035;0.0;0.0;0.0;0.26449599862098694;-0.0907679945230484;1.150704026222229;0.0;0.0;0.0
2037;0.14273999631404877;0.05319199711084366;1.0243120193481445;0.27620798349380493;-0.07124799489974976;1.134112000465393;-1.6143749952316284;1.0456249713897705;0.4156250059604645
2040;0.0;0.0;0.0;0.2723039984703064;-0.07905599474906921;1.150704026222229;0.0;0.0;0.0
2042;0.0;0.0;0.0;0.26449599862098694;-0.07124799489974976;1.150704026222229;0.0;0.0;0.0
2044;0.0;0.0;0.0;0.2566879987716675;-0.0907679945230484;1.175104022026062;0.0;0.0;0.0
2046;0.14591199159622192;0.05441199988126755;1.0238239765167236;0.26449599862098694;-0.07515199482440948;1.150704026222229;-0.21437500417232513;1.0456249713897705;-0.6343749761581421
2048;0.0;0.0;0.0;0.27620798349380493;-0.07515199482440948;1.1546080112457275;0.0;0.0;0.0
2050;0.0;0.0;0.0;0.26449599862098694;-0.08295999467372894;1.158511996269226;0.0;0.0;0.0
2052;0.0;0.0;0.0;0.2449759989976883;-0.09467199444770813;1.1624159812927246;0.0;0.0;0.0
2054;0.1449359953403473;0.05807200074195862;1.032364010810852;0.2683999836444855;-0.07124799489974976;1.158511996269226;0.9756250381469727;-0.984375;-1.334375023841858
2057;0.0;0.0;0.0;0.260591983795166;-0.07124799489974976;1.1419199705123901;0.0;0.0;0.0
2059;0.0;0.0;0.0;0.2723039984703064;-0.07124799489974976;1.1419199705123901;0.0;0.0;0.0
2061;0.0;0.0;0.0;0.25278398394584656;-0.0634399950504303;1.1302080154418945;0.0;0.0;0.0
2063;0.1420079916715622;0.06295199692249298;1.0218719244003296;0.260591983795166;-0.06734399497509003;1.150704026222229;1.1856250762939453;-4.554375171661377;-1.4043749570846558
2065;0.0;0.0;0.0;0.27620798349380493;-0.05172799900174141;1.126304030418396;0.0;0.0;0.0
2067;0.0;0.0;0.0;0.28011199831962585;-0.05953599885106087;1.10971200466156;0.0;0.0;0.0
2069;0.0;0.0;0.0;0.2683999836444855;-0.05172799900174141;1.1136159896850586;0.0;0.0;0.0
2071;0.14932799339294434;0.07539600133895874;0.9928359985351562;0.29572799801826477;-0.05172799900174141;1.0892159938812256;0.2056250125169754;-6.864375114440918;0.06562499701976776
2074;0.0;0.0;0.0;0.2566879987716675;-0.07124799489974976;1.0814080238342285;0.0;0.0;0.0
2076;0.0;0.0;0.0;0.30743998289108276;-0.05563199892640114;1.0775039196014404;0.0;0.0;0.0
2078;0.0;0.0;0.0;0.2723039984703064;-0.08295999467372894;1.0931199789047241;0.0;0.0;0.0
2080;0.1449359953403473;0.07075999677181244;0.9579439759254456;0.2840159833431244;-0.07905599474906921;1.0814080238342285;-0.6343749761581421;-5.674375057220459;2.585624933242798
2082;0.0;0.0;0.0;0.24107199907302856;-0.1180959939956665;1.0775039196014404;0.0;0.0;0.0
2084;0.0;0.0;0.0;0.29182398319244385;-0.07905599474906921;1.0814080238342285;0.0;0.0;0.0
2086;0.0;0.0;0.0;0.28011199831962585;-0.10638399422168732;1.0775039196014404;0.0;0.0;0.0
2088;0.15225599706172943;0.039772000163793564;0.9479399919509888;0.27620798349380493;-0.09467199444770813;1.085312008857727;-0.6343749761581421;-2.734375;3.4256250858306885
2091;0.0;0.0;0.0;0.29182398319244385;-0.1180959939956665;1.0687199831008911;0.0;0.0;0.0
2093;0.0;0.0;0.0;0.2840159833431244;-0.08295999467372894;1.0931199789047241;0.0;0.0;0.0
2095;0.0;0.0;0.0;0.30353599786758423;-0.10638399422168732;1.126304030418396;0.0;0.0;0.0
2097;0.15371999144554138;0.025619998574256897;0.9642879962921143;0.24107199907302856;-0.1298079937696457;1.0814080238342285;-0.984375;-0.7043749690055847;3.775624990463257
2099;0.0;0.0;0.0;0.24887999892234802;-0.11028799414634705;1.0970239639282227;0.0;0.0;0.0
2101;0.0;0.0;0.0;0.2449759989976883;-0.0907679945230484;1.0970239639282227;0.0;0.0;0.0
2103;0.0;0.0;0.0;0.23716799914836884;-0.09857599437236786;1.101904034614563;0.0;0.0;0.0
2105;0.12639199197292328;0.030988000333309174;0.9803919792175293;0.2449759989976883;-0.09467199444770813;1.1184959411621094;-2.594374895095825;0.2056250125169754;3.4256250858306885
2108;0.0;0.0;0.0;0.2566879987716675;-0.10247999429702759;1.097999930381775;0.0;0.0;0.0
2110;0.0;0.0;0.0;0.27620798349380493;-0.0907679945230484;1.085312008857727;0.0;0.0;0.0
2112;0.0;0.0;0.0;0.24107199907302856;-0.13371199369430542;1.1175199747085571;0.0;0.0;0.0
2114;0.13298000395298004;0.02513200044631958;0.9860039949417114;0.27620798349380493;-0.12199999392032623;1.10971200466156;-4.624374866485596;-0.6343749761581421;2.7956249713897705
2116;0.0;0.0;0.0;0.2840159833431244;-0.11419199407100677;1.10971200466156;0.0;0.0;0.0
2118;0.0;0.0;0.0;0.2566879987716675;-0.13371199369430542;1.0775039196014404;0.0;0.0;0.0
2120;0.0;0.0;0.0;0.2566879987716675;-0.1298079937696457;1.122399926185608;0.0;0.0;0.0
2122;0.1466439962387085;0.008539999835193157;0.97843998670578;0.26449599862098694;-0.15323199331760406;1.0726239681243896;-5.814374923706055;-1.4043749570846558;2.7256250381469727
2125;0.0;0.0;0.0;0.260591983795166;-0.14151999354362488;1.0931199789047241;0.0;0.0;0.0
2127;0.0;0.0;0.0;0.2566879987716675;-0.16494399309158325;1.085312008857727;0.0;0.0;0.0
2129;0.0;0.0;0.0;0.27620798349380493;-0.15323199331760406;1.0687199831008911;0.0;0.0;0.0
2131;0.14054399728775024;-0.019519999623298645;0.9616039991378784;0.2683999836444855;-0.17665599286556244;1.0892159938812256;-6.024374961853027;-1.1243749856948853;1.3956249952316284
2133;0.0;0.0;0.0;0.25278398394584656;-0.17665599286556244;1.0892159938812256;0.0;0.0;0.0
2135;0.0;0.0;0.0;0.2723039984703064;-0.16103999316692352;1.0648159980773926;0.0;0.0;0.0
2137;0.0;0.0;0.0;0.26449599862098694;-0.19227199256420135;1.0648159980773926;0.0;0.0;0.0
2139;0.14786399900913239;-0.03367199748754501;0.9479399919509888;0.2879199981689453;-0.15323199331760406;1.0570080280303955;-5.394374847412109;-1.4043749570846558;-0.6343749761581421
2142;0.0;0.0;0.0;0.26449599862098694;-0.15323199331760406;1.0531039237976074;0.0;0.0;0.0
2144;0.0;0.0;0.0;0.27620798349380493;-0.16103999316692352;1.0531039237976074;0.0;0.0;0.0
2146;0.0;0.0;0.0;0.260591983795166;-0.13371199369430542;1.0648159980773926;0.0;0.0;0.0
2148;0.15030398964881897;-0.011711999773979187;0.9325679540634155;0.260591983795166;-0.11419199407100677;1.036512017250061;-4.834374904632568;-2.594374895095825;-1.1943750381469727
2150;0.0;0.0;0.0;0.2840159833431244;-0.1298079937696457;1.0404160022735596;0.0;0.0;0.0
2152;0.0;0.0;0.0;0.25278398394584656;-0.1298079937696457;1.0482239723205566;0.0;0.0;0.0
2154;0.0;0.0;0.0;0.28011199831962585;-0.12590399384498596;1.012112021446228;0.0;0.0;0.0
2156;0.15103599429130554;0.005123999901115894;0.9035319685935974;0.2879199981689453;-0.12199999392032623;1.019919991493225;-3.924375057220459;-2.734375;-1.4043749570846558
2159;0.0;0.0;0.0;0.2879199981689453;-0.14151999354362488;1.0247999429702759;0.0;0.0;0.0
2161;0.0;0.0;0.0;0.260591983795166;-0.14932799339294434;1.0160160064697266;0.0;0.0;0.0
2163;0.0;0.0;0.0;0.2723039984703064;-0.1571359932422638;1.012112021446228;0.0;0.0;0.0
2165;0.1512800008058548;-0.009759999811649323;0.8871839642524719;0.26449599862098694;-0.13761599361896515;0.9916160106658936;-2.3143749237060547;-0.9143750071525574;-2.034374952316284
2167;0.0;0.0;0.0;0.25278398394584656;-0.16103999316692352;1.019919991493225;0.0;0.0;0.0
2169;0.0;0.0;0.0;0.26449599862098694;-0.15323199331760406;1.012112021446228;0.0;0.0;0.0
2171;0.0;0.0;0.0;0.27620798349380493;-0.18836799263954163;1.0287039279937744;0.0;0.0;0.0
2173;0.14640000462532043;-0.035868000239133835;0.8935279846191406;0.25278398394584656;-0.19227199256420135;1.019919991493225;-0.7043749690055847;1.8856250047683716;-3.854374885559082
2176;0.0;0.0;0.0;0.26449599862098694;-0.18055999279022217;1.012112021446228;0.0;0.0;0.0
2178;0.0;0.0;0.0;0.2566879987716675;-0.19227199256420135;1.0043039321899414;0.0;0.0;0.0
2180;0.0;0.0;0.0;0.24887999892234802;-0.19227199256420135;1.0287039279937744;0.0;0.0;0.0
2182;0.1373720020055771;-0.04318799823522568;0.9067040085792542;0.2566879987716675;-0.17665599286556244;1.036512017250061;0.13562500476837158;3.565624952316284;-6.094375133514404
2184;0.0;0.0;0.0;0.260591983795166;-0.16884799301624298;1.0531039237976074;0.0;0.0;0.0
2186;0.0;0.0;0.0;0.26449599862098694;-0.16103999316692352;1.0482239723205566;0.0;0.0;0.0
2188;0.0;0.0;0.0;0.260591983795166;-0.1571359932422638;1.0482239723205566;0.0;0.0;0.0
2190;0.1437159925699234;-0.020739998668432236;0.9293959736824036;0.2683999836444855;-0.14932799339294434;1.0570080280303955;-0.3543750047683716;5.385624885559082;-7.634375095367432
2193;0.0;0.0;0.0;0.2723039984703064;-0.13371199369430542;1.060912013053894;0.0;0.0;0.0
2195;0.0;0.0;0.0;0.24107199907302856;-0.16103999316692352;1.0570080280303955;0.0;0.0;0.0
2197;0.0;0.0;0.0;0.29572799801826477;-0.1298079937696457;1.0648159980773926;0.0;0.0;0.0
2199;0.1622599959373474;0.0019519999623298645;0.9496479630470276;0.3113439977169037;-0.11028799414634705;1.0892159938812256;-1.6143749952316284;7.275625228881836;-8.054375648498535
2201;0.0;0.0;0.0;0.33086398243904114;-0.10638399422168732;1.1058080196380615;0.0;0.0;0.0
2203;0.0;0.0;0.0;0.3230559825897217;-0.09467199444770813;1.126304030418396;0.0;0.0;0.0
2205;0.0;0.0;0.0;0.30353599786758423;-0.08295999467372894;1.0931199789047241;0.0;0.0;0.0
2207;0.19324800372123718;0.03635599836707115;0.9708759784698486;0.3230559825897217;-0.0634399950504303;1.1175199747085571;-3.224375009536743;8.885624885559082;-6.794374942779541
2210;0.0;0.0;0.0;0.31915199756622314;-0.07124799489974976;1.0931199789047241;0.0;0.0;0.0
2212;0.0;0.0;0.0;0.2879199981689453;-0.07905599474906921;1.101904034614563;0.0;0.0;0.0
2214;0.0;0.0;0.0;0.3113439977169037;-0.07124799489974976;1.085312008857727;0.0;0.0;0.0
2216;0.17933999001979828;0.049775999039411545;0.977463960647583;0.2996319830417633;-0.09467199444770813;1.0814080238342285;-4.414374828338623;9.935624122619629;-4.76437520980835
2218;0.0;0.0;0.0;0.2723039984703064;-0.0634399950504303;1.0931199789047241;0.0;0.0;0.0
2220;0.0;0.0;0.0;0.3113439977169037;-0.08686399459838867;1.0892159938812256;0.0;0.0;0.0
2222;0.0;0.0;0.0;0.30743998289108276;-0.11028799414634705;1.0892159938812256;0.0;0.0;0.0
2224;0.17494799196720123;0.03757599741220474;0.9689239859580994;0.3230559825897217;-0.0907679945230484;1.0892159938812256;-4.694375038146973;9.515625;-4.064374923706055
2227;0.0;0.0;0.0;0.2840159833431244;-0.12590399384498596;1.101904034614563;0.0;0.0;0.0
2229;0.0;0.0;0.0;0.27620798349380493;-0.12199999392032623;1.0931199789047241;0.0;0.0;0.0
2231;0.0;0.0;0.0;0.28011199831962585;-0.12590399384498596;1.122399926185608;0.0;0.0;0.0
2233;0.16128399968147278;0.020983999595046043;0.9694119691848755;0.28011199831962585;-0.11419199407100677;1.101904034614563;-4.134375095367432;7.345624923706055;-4.344375133514404
2235;0.0;0.0;0.0;0.28303998708724976;-0.10638399422168732;1.085312008857727;0.0;0.0;0.0
2237;0.0;0.0;0.0;0.24399998784065247;-0.12199999392032623;1.1136159896850586;0.0;0.0;0.0
2239;0.0;0.0;0.0;0.2752319872379303;-0.13761599361896515;1.0970239639282227;0.0;0.0;0.0
2241;0.14932799339294434;0.016103999689221382;0.9708759784698486;0.2752319872379303;-0.11419199407100677;1.101904034614563;-3.994374990463257;4.685625076293945;-5.394374847412109
2244;0.0;0.0;0.0;0.25571200251579285;-0.10638399422168732;1.0931199789047241;0.0;0.0;0.0
2246;0.0;0.0;0.0;0.2791360020637512;-0.11028799414634705;1.0892159938812256;0.0;0.0;0.0
2248;0.0;0.0;0.0;0.25571200251579285;-0.1180959939956665;1.0814080238342285;0.0;0.0;0.0
2250;0.15786799788475037;0.02513200044631958;0.9618479609489441;0.3025600016117096;-0.10247999429702759;1.0687199831008911;-4.76437520980835;3.9156250953674316;-5.884375095367432
2252;0.0;0.0;0.0;0.3025600016117096;-0.08295999467372894;1.0648159980773926;0.0;0.0;0.0
2254;0.0;0.0;0.0;0.29475200176239014;-0.07905599474906921;1.0531039237976074;0.0;0.0;0.0
2256;0.0;0.0;0.0;0.2596159875392914;-0.08295999467372894;1.0687199831008911;0.0;0.0;0.0
2258;0.16665199398994446;0.04879999905824661;0.9472079873085022;0.2908479869365692;-0.07124799489974976;1.0648159980773926;-5.044374942779541;6.225625038146973;-4.974374771118164
2261;0.0;0.0;0.0;0.26742398738861084;-0.07124799489974976;1.0775039196014404;0.0;0.0;0.0
2263;0.0;0.0;0.0;0.26742398738861084;-0.07515199482440948;1.0570080280303955;0.0;0.0;0.0
2265;0.0;0.0;0.0;0.2752319872379303;-0.0907679945230484;1.097999930381775;0.0;0.0;0.0
2267;0.152988001704216;0.04806799814105034;0.9574559926986694;0.2752319872379303;-0.0907679945230484;1.097999930381775;-3.7143750190734863;11.825624465942383;-5.464375019073486
2269;0.0;0.0;0.0;0.25278398394584656;-0.10638399422168732;1.1058080196380615;0.0;0.0;0.0
2271;0.0;0.0;0.0;0.260591983795166;-0.09857599437236786;1.1302080154418945;0.0;0.0;0.0
2273;0.0;0.0;0.0;0.24887999892234802;-0.09857599437236786;1.122399926185608;0.0;0.0;0.0
2276;0.13761599361896515;0.04025999829173088;0.9918599724769592;0.22935999929904938;-0.07515199482440948;1.1175199747085571;-2.734375;14.905624389648438;-5.674375057220459
2278;0.0;0.0;0.0;0.23716799914836884;-0.11028799414634705;1.126304030418396;0.0;0.0;0.0
2280;0.0;0.0;0.0;0.24107199907302856;-0.09467199444770813;1.150704026222229;0.0;0.0;0.0
2282;0.0;0.0;0.0;0.22935999929904938;-0.07905599474906921;1.126304030418396;0.0;0.0;0.0
2284;0.11589999496936798;0.04806799814105034;1.012112021446228;0.23716799914836884;-0.07515199482440948;1.1546080112457275;-3.1543750762939453;12.595624923706055;-6.304375171661377
2287;0.0;0.0;0.0;0.23228800296783447;-0.06734399497509003;1.146799921989441;0.0;0.0;0.0
2288;0.0;0.0;0.0;0.236191987991333;-0.0907679945230484;1.1702239513397217;0.0;0.0;0.0
2290;0.0;0.0;0.0;0.25571200251579285;-0.09467199444770813;1.1380159854888916;0.0;0.0;0.0
2293;0.12834399938583374;0.06124399974942207;1.0140639543533325;0.24009600281715393;-0.04001599922776222;1.1419199705123901;-4.20437479019165;10.355624198913574;-6.374374866485596
2295;0.0;0.0;0.0;0.2518079876899719;-0.0907679945230484;1.126304030418396;0.0;0.0;0.0
2297;0.0;0.0;0.0;0.2635200023651123;-0.0907679945230484;1.1380159854888916;0.0;0.0;0.0
2299;0.0;0.0;0.0;0.26742398738861084;-0.06734399497509003;1.1419199705123901;0.0;0.0;0.0
2301;0.1395680010318756;0.06124399974942207;1.007964015007019;0.2791360020637512;-0.08686399459838867;1.126304030418396;-5.044374942779541;11.685624122619629;-6.094375133514404
2303;0.0;0.0;0.0;0.2791360020637512;-0.08295999467372894;1.134112000465393;0.0;0.0;0.0
2305;0.0;0.0;0.0;0.2635200023651123;-0.06734399497509003;1.1624159812927246;0.0;0.0;0.0
2307;0.0;0.0;0.0;0.2752319872379303;-0.07124799489974976;1.134112000465393;0.0;0.0;0.0
2310;0.1449359953403473;0.06929600238800049;1.0155279636383057;0.24399998784065247;-0.04001599922776222;1.1663199663162231;-5.184374809265137;12.945624351501465;-4.834374904632568
2312;0.0;0.0;0.0;0.26742398738861084;-0.07124799489974976;1.1663199663162231;0.0;0.0;0.0
2314;0.0;0.0;0.0;0.24399998784065247;-0.04782399907708168;1.1624159812927246;0.0;0.0;0.0
2316;0.0;0.0;0.0;0.2479040026664734;-0.06734399497509003;1.175104022026062;0.0;0.0;0.0
2318;0.13053999841213226;0.07832399755716324;1.0374879837036133;0.22448000311851501;-0.04391999915242195;1.1868159770965576;-5.744375228881836;12.665624618530273;-2.9443750381469727
2320;0.0;0.0;0.0;0.22545599937438965;-0.07124799489974976;1.1790080070495605;0.0;0.0;0.0
2322;0.0;0.0;0.0;0.22935999929904938;-0.09857599437236786;1.1790080070495605;0.0;0.0;0.0
2324;0.0;0.0;0.0;0.2566879987716675;-0.09467199444770813;1.1712000370025635;0.0;0.0;0.0
2327;0.11443600058555603;0.062219999730587006;1.044319987297058;0.19812799990177155;-0.07905599474906921;1.1702239513397217;-6.864375114440918;10.42562484741211;-0.9143750071525574
2329;0.0;0.0;0.0;0.21374399960041046;-0.1180959939956665;1.1624159812927246;0.0;0.0;0.0
2331;0.0;0.0;0.0;0.22155199944972992;-0.10638399422168732;1.146799921989441;0.0;0.0;0.0
2333;0.0;0.0;0.0;0.20203199982643127;-0.10638399422168732;1.1302080154418945;0.0;0.0;0.0
2335;0.08344800025224686;0.01878799870610237;1.0201640129089355;0.1903200000524521;-0.1454239934682846;1.122399926185608;-8.194375038146973;6.225625038146973;-0.3543750047683716
2337;0.0;0.0;0.0;0.205935999751091;-0.16103999316692352;1.1419199705123901;0.0;0.0;0.0
2339;0.0;0.0;0.0;0.20203199982643127;-0.14932799339294434;1.1175199747085571;0.0;0.0;0.0
2341;0.0;0.0;0.0;0.23716799914836884;-0.14932799339294434;1.101904034614563;0.0;0.0;0.0
2344;0.08686399459838867;-0.02122800052165985;0.9916160106658936;0.22545599937438965;-0.16494399309158325;1.097999930381775;-9.034375190734863;3.635625123977661;-2.594374895095825
2346;0.0;0.0;0.0;0.2566879987716675;-0.1454239934682846;1.1058080196380615;0.0;0.0;0.0
2348;0.0;0.0;0.0;0.22545599937438965;-0.18055999279022217;1.097999930381775;0.0;0.0;0.0
2350;0.0;0.0;0.0;0.24107199907302856;-0.16103999316692352;1.0892159938812256;0.0;0.0;0.0
2352;0.10101599991321564;-0.030499998480081558;0.9672159552574158;0.22935999929904938;-0.1454239934682846;1.085312008857727;-9.174375534057617;3.4956250190734863;-4.624374866485596
2354;0.0;0.0;0.0;0.21374399960041046;-0.15323199331760406;1.085312008857727;0.0;0.0;0.0
2356;0.0;0.0;0.0;0.205935999751091;-0.13371199369430542;1.0892159938812256;0.0;0.0;0.0
2358;0.0;0.0;0.0;0.205935999751091;-0.1571359932422638;1.0775039196014404;0.0;0.0;0.0
2361;0.0936959981918335;-0.014151999726891518;0.9564799666404724;0.2566879987716675;-0.13761599361896515;1.085312008857727;-8.124375343322754;4.615624904632568;-6.444375038146973
2363;0.0;0.0;0.0;0.2176479995250702;-0.1298079937696457;1.0931199789047241;0.0;0.0;0.0
2365;0.0;0.0;0.0;0.2332639992237091;-0.11419199407100677;1.097999930381775;0.0;0.0;0.0
2367;0.0;0.0;0.0;0.24887999892234802;-0.11028799414634705;1.0892159938812256;0.0;0.0;0.0
2369;0.11224000155925751;0.014151999726891518;0.9686799645423889;0.260591983795166;-0.0907679945230484;1.0931199789047241;-6.234375;6.225625038146973;-7.564374923706055
2371;0.0;0.0;0.0;0.24887999892234802;-0.0907679945230484;1.1136159896850586;0.0;0.0;0.0
2373;0.0;0.0;0.0;0.23716799914836884;-0.08295999467372894;1.10971200466156;0.0;0.0;0.0
2375;0.0;0.0;0.0;0.260591983795166;-0.07905599474906921;1.101904034614563;0.0;0.0;0.0
2378;0.12809999287128448;0.05050799995660782;0.9716079831123352;0.23716799914836884;-0.09857599437236786;1.085312008857727;-4.064374923706055;6.855625152587891;-6.024374961853027
2380;0.0;0.0;0.0;0.2683999836444855;-0.0907679945230484;1.073599934577942;0.0;0.0;0.0
2382;0.0;0.0;0.0;0.2683999836444855;-0.0907679945230484;1.0814080238342285;0.0;0.0;0.0
2384;0.0;0.0;0.0;0.2566879987716675;-0.07515199482440948;1.0892159938812256;0.0;0.0;0.0
2386;0.1349319964647293;0.05929199978709221;0.9681919813156128;0.27620798349380493;-0.10247999429702759;1.101904034614563;-2.3843750953674316;8.325624465942383;-3.434375047683716
2388;0.0;0.0;0.0;0.260591983795166;-0.0907679945230484;1.101904034614563;0.0;0.0;0.0
2390;0.0;0.0;0.0;0.2449759989976883;-0.08295999467372894;1.1136159896850586;0.0;0.0;0.0
2392;0.0;0.0;0.0;0.2332639992237091;-0.06734399497509003;1.134112000465393;0.0;0.0;0.0
2395;0.1290760040283203;0.05392399802803993;0.9869799613952637;0.2683999836444855;-0.07515199482440948;1.1380159854888916;-2.034374952316284;11.405624389648438;-1.4743750095367432
2397;0.0;0.0;0.0;0.2449759989976883;-0.10247999429702759;1.1428959369659424;0.0;0.0;0.0
2399;0.0;0.0;0.0;0.24107199907302856;-0.07124799489974976;1.1380159854888916;0.0;0.0;0.0
2401;0.0;0.0;0.0;0.205935999751091;-0.07515199482440948;1.1663199663162231;0.0;0.0;0.0
