Timestamp(ms);LG-Accel x(g);LG-Accel y(g);LG-Accel z(g);HG-Accel x(g);HG-Accel y(g);HG-Accel z(g);Gyro x(dps);Gyro y(dps);Gyro z(dps)
56;0.0;0.0;0.0;0.019519999623298645;-0.07320000231266022;1.1204479932785034;0.0;0.0;0.0
58;0.0;0.0;0.0;0.015615999698638916;-0.06539200246334076;1.124351978302002;0.0;0.0;0.0
60;0.0;0.0;0.0;0.007807999849319458;-0.06929600238800049;1.099951982498169;0.0;0.0;0.0
62;0.0;0.0;0.0;0.011711999773979187;-0.057583998888731;1.124351978302002;0.0;0.0;0.0
64;0.0;0.0;0.0;0.007807999849319458;-0.07320000231266022;1.124351978302002;0.0;0.0;0.0
66;0.0;0.0;0.0;-0.004879999905824661;-0.06734399497509003;1.1380159854888916;0.0;0.0;0.0
69;0.0;0.0;0.0;0.014639999717473984;-0.04001599922776222;1.134112000465393;0.0;0.0;0.0
71;0.0;0.0;0.0;-0.028303999453783035;-0.028303999453783035;1.1380159854888916;0.0;0.0;0.0
73;-0.13419999182224274;0.08954799920320511;1.0030839443206787;-0.024399999529123306;-0.01659199967980385;1.1419199705123901;0.0;0.0;0.0
75;0.0;0.0;0.0;-0.024399999529123306;-0.01659199967980385;1.175104022026062;0.0;0.0;0.0
77;0.0;0.0;0.0;-0.01268799975514412;-0.032207999378442764;1.150704026222229;0.0;0.0;0.0
79;0.0;0.0;0.0;0.006831999868154526;-0.03611199930310249;1.158511996269226;0.0;0.0;0.0
81;-0.13541999459266663;0.10833600163459778;1.0211399793624878;0.018543999642133713;-0.00878399983048439;1.150704026222229;0.0;0.0;0.0
83;0.0;0.0;0.0;0.03415999934077263;-0.03611199930310249;1.126304030418396;0.0;0.0;0.0
86;0.0;0.0;0.0;0.057583998888731;-0.01659199967980385;1.1214239597320557;0.0;0.0;0.0
88;0.0;0.0;0.0;0.057583998888731;-0.04001599922776222;1.146799921989441;0.0;0.0;0.0
90;-0.07881199568510056;0.1029679998755455;1.0052800178527832;0.057583998888731;-0.024399999529123306;1.150704026222229;0.0;0.0;0.0
92;0.0;0.0;0.0;0.053679998964071274;-0.0634399950504303;1.1380159854888916;0.0;0.0;0.0
94;0.0;0.0;0.0;0.03806399926543236;-0.05172799900174141;1.1428959369659424;0.0;0.0;0.0
96;0.0;0.0;0.0;0.057583998888731;-0.04391999915242195;1.1136159896850586;0.0;0.0;0.0
98;-0.06758800148963928;0.09393999725580215;1.0106480121612549;0.03415999934077263;-0.05953599885106087;1.1175199747085571;0.0;0.0;0.0
100;0.0;0.0;0.0;0.053679998964071274;-0.05953599885106087;1.122399926185608;0.0;0.0;0.0
103;0.0;0.0;0.0;0.018543999642133713;-0.07515199482440948;1.158511996269226;0.0;0.0;0.0
105;0.0;0.0;0.0;-0.01659199967980385;-0.0634399950504303;1.126304030418396;0.0;0.0;0.0
107;-0.1105320006608963;0.08247199654579163;0.9977160096168518;-0.00878399983048439;-0.0634399950504303;1.126304030418396;0.0;0.0;0.0
109;0.0;0.0;0.0;-0.032207999378442764;-0.04391999915242195;1.1214239597320557;0.0;0.0;0.0
111;0.0;0.0;0.0;-0.03611199930310249;-0.01659199967980385;1.1136159896850586;0.0;0.0;0.0
113;0.0;0.0;0.0;-0.020495999604463577;-0.028303999453783035;1.122399926185608;0.0;0.0;0.0
115;-0.1471319943666458;0.08417999744415283;0.9969840049743652;-0.020495999604463577;-0.05172799900174141;1.1302080154418945;-4.112500190734863;10.517499923706055;3.486875057220459
118;0.0;0.0;0.0;-0.024399999529123306;-0.04782399907708168;1.126304030418396;0.0;0.0;0.0
120;0.0;0.0;0.0;-0.020495999604463577;-0.04001599922776222;1.1136159896850586;0.0;0.0;0.0
122;0.0;0.0;0.0;0.0029279999434947968;-0.04782399907708168;1.126304030418396;0.0;0.0;0.0
124;-0.13541999459266663;0.08808399736881256;0.9923479557037354;-0.004879999905824661;-0.020495999604463577;1.0814080238342285;-3.132500171661377;5.05750036239624;3.8368749618530273
126;0.0;0.0;0.0;0.022447999566793442;-0.04001599922776222;1.1175199747085571;0.0;0.0;0.0
128;0.0;0.0;0.0;0.010735999792814255;-0.04782399907708168;1.122399926185608;0.0;0.0;0.0
130;0.0;0.0;0.0;0.03415999934077263;-0.04391999915242195;1.1302080154418945;0.0;0.0;0.0
132;-0.10491999983787537;0.0878399983048439;0.9879559874534607;0.03806399926543236;-0.05172799900174141;1.134112000465393;-0.8225000500679016;0.7875000238418579;6.426875114440918
135;0.0;0.0;0.0;0.014639999717473984;-0.07124799489974976;1.1175199747085571;0.0;0.0;0.0
137;0.0;0.0;0.0;0.03806399926543236;-0.05953599885106087;1.1175199747085571;0.0;0.0;0.0
139;0.0;0.0;0.0;0.03415999934077263;-0.04782399907708168;1.1380159854888916;0.0;0.0;0.0
141;-0.09711199998855591;0.07905599474906921;0.9925919771194458;-0.01659199967980385;-0.05172799900174141;1.1136159896850586;2.047499895095825;0.8575000166893005;9.226874351501465
143;0.0;0.0;0.0;0.02635199949145317;-0.04391999915242195;1.10971200466156;0.0;0.0;0.0
145;0.0;0.0;0.0;0.014639999717473984;-0.05953599885106087;1.1380159854888916;0.0;0.0;0.0
147;0.0;0.0;0.0;0.014639999717473984;-0.05172799900174141;1.126304030418396;0.0;0.0;0.0
149;-0.1076039969921112;0.07685999572277069;0.9977160096168518;0.0302559994161129;-0.07124799489974976;1.1302080154418945;4.497499942779541;2.817500114440918;10.346874237060547
152;0.0;0.0;0.0;0.006831999868154526;-0.04001599922776222;1.122399926185608;0.0;0.0;0.0
154;0.0;0.0;0.0;0.014639999717473984;-0.04782399907708168;1.122399926185608;0.0;0.0;0.0
156;0.0;0.0;0.0;0.0029279999434947968;-0.032207999378442764;1.1175199747085571;0.0;0.0;0.0
158;-0.11467999964952469;0.07441999763250351;1.0003999471664429;0.006831999868154526;-0.04001599922776222;1.1419199705123901;6.177499771118164;2.817500114440918;11.046875
160;0.0;0.0;0.0;0.022447999566793442;-0.05953599885106087;1.150704026222229;0.0;0.0;0.0
162;0.0;0.0;0.0;0.0029279999434947968;-0.05172799900174141;1.1175199747085571;0.0;0.0;0.0
164;0.0;0.0;0.0;-0.01659199967980385;-0.07124799489974976;1.134112000465393;0.0;0.0;0.0
166;-0.12492799758911133;0.07978799939155579;1.0050359964370728;-0.004879999905824661;-0.03611199930310249;1.134112000465393;6.877500057220459;1.4175000190734863;10.906874656677246
169;0.0;0.0;0.0;-0.024399999529123306;-0.05172799900174141;1.122399926185608;0.0;0.0;0.0
171;0.0;0.0;0.0;-0.01659199967980385;-0.05563199892640114;1.1419199705123901;0.0;0.0;0.0
173;0.0;0.0;0.0;0.006831999868154526;-0.01268799975514412;1.134112000465393;0.0;0.0;0.0
175;-0.12517200410366058;0.08686399459838867;1.0086959600448608;0.0029279999434947968;-0.05172799900174141;1.1546080112457275;5.967499732971191;-0.12250000238418579;9.576874732971191
177;0.0;0.0;0.0;-0.00878399983048439;-0.04782399907708168;1.1380159854888916;0.0;0.0;0.0
179;0.0;0.0;0.0;0.010735999792814255;-0.028303999453783035;1.146799921989441;0.0;0.0;0.0
181;0.0;0.0;0.0;-0.01268799975514412;-0.05563199892640114;1.150704026222229;0.0;0.0;0.0
183;-0.11541199684143066;0.0936959981918335;1.012355923652649;0.014639999717473984;-0.04782399907708168;1.122399926185608;3.447499990463257;-0.8224999904632568;7.616875171661377
186;0.0;0.0;0.0;0.03415999934077263;-0.05953599885106087;1.1380159854888916;0.0;0.0;0.0
188;0.0;0.0;0.0;0.022447999566793442;-0.05953599885106087;1.158511996269226;0.0;0.0;0.0
190;0.0;0.0;0.0;0.018543999642133713;-0.06734399497509003;1.134112000465393;0.0;0.0;0.0
192;-0.09955199807882309;0.08735200017690659;1.0050359964370728;0.010735999792814255;-0.06734399497509003;1.126304030418396;0.7174999713897705;0.5774999856948853;5.866875171661377
194;0.0;0.0;0.0;0.03415999934077263;-0.04391999915242195;1.101904034614563;0.0;0.0;0.0
196;0.0;0.0;0.0;0.02635199949145317;-0.032207999378442764;1.1380159854888916;0.0;0.0;0.0
198;0.0;0.0;0.0;0.03415999934077263;-0.05953599885106087;1.1175199747085571;0.0;0.0;0.0
200;-0.09857599437236786;0.08564399927854538;1.0016199350357056;0.010735999792814255;-0.05172799900174141;1.122399926185608;-0.612500011920929;2.9574999809265137;4.956874847412109
203;0.0;0.0;0.0;0.006831999868154526;-0.04001599922776222;1.122399926185608;0.0;0.0;0.0
205;0.0;0.0;0.0;-0.0009759999811649323;-0.05172799900174141;1.1555839776992798;0.0;0.0;0.0
207;0.0;0.0;0.0;-0.00878399983048439;-0.04782399907708168;1.1350879669189453;0.0;0.0;0.0
209;-0.11321599781513214;0.08661999553442001;1.0057679414749146;-0.0009759999811649323;-0.05172799900174141;1.1106879711151123;-0.7524999976158142;3.7274999618530273;5.166874885559082
211;0.0;0.0;0.0;-0.01268799975514412;-0.05953599885106087;1.1067839860916138;0.0;0.0;0.0
213;0.0;0.0;0.0;0.0029279999434947968;-0.05953599885106087;1.1184959411621094;0.0;0.0;0.0
215;0.0;0.0;0.0;0.018543999642133713;-0.04782399907708168;1.097999930381775;0.0;0.0;0.0
217;-0.11980399489402771;0.07612799853086472;0.9818559885025024;-0.004879999905824661;-0.05172799900174141;1.0940959453582764;0.3675000071525574;2.677500009536743;5.306875228881836
220;0.0;0.0;0.0;0.03415999934077263;-0.05563199892640114;1.085312008857727;0.0;0.0;0.0
222;0.0;0.0;0.0;0.010735999792814255;-0.05953599885106087;1.1175199747085571;0.0;0.0;0.0
224;0.0;0.0;0.0;0.010735999792814255;-0.04001599922776222;1.0775039196014404;0.0;0.0;0.0
226;-0.11248400062322617;0.08369199931621552;0.9779520034790039;0.010735999792814255;-0.04391999915242195;1.101904034614563;3.1675000190734863;1.1375000476837158;6.426875114440918
228;0.0;0.0;0.0;0.014639999717473984;-0.032207999378442764;1.0931199789047241;0.0;0.0;0.0
230;0.0;0.0;0.0;-0.0009759999811649323;-0.03611199930310249;1.101904034614563;0.0;0.0;0.0
232;0.0;0.0;0.0;-0.004879999905824661;-0.05953599885106087;1.0892159938812256;0.0;0.0;0.0
234;-0.11614400148391724;0.08979199826717377;0.9689239859580994;0.006831999868154526;-0.04391999915242195;1.0892159938812256;4.847499847412109;-0.26250001788139343;7.546875
237;0.0;0.0;0.0;0.014639999717473984;-0.03611199930310249;1.073599934577942;0.0;0.0;0.0
239;0.0;0.0;0.0;0.03415999934077263;-0.04782399907708168;1.097999930381775;0.0;0.0;0.0
241;0.0;0.0;0.0;0.022447999566793442;-0.04001599922776222;1.097999930381775;0.0;0.0;0.0
243;-0.10687199980020523;0.09174399822950363;0.9513559937477112;-0.00878399983048439;-0.04001599922776222;1.0901919603347778;6.457499980926514;-0.8925000429153442;7.82687520980835
245;0.0;0.0;0.0;0.018543999642133713;-0.05953599885106087;1.0823839902877808;0.0;0.0;0.0
247;0.0;0.0;0.0;0.006831999868154526;-0.01268799975514412;1.0901919603347778;0.0;0.0;0.0
249;0.0;0.0;0.0;0.014639999717473984;-0.04782399907708168;1.0901919603347778;0.0;0.0;0.0
251;-0.10809199512004852;0.10272400081157684;0.9589200019836426;-0.004879999905824661;-0.01659199967980385;1.1106879711151123;6.317500114440918;0.017499998211860657;8.526874542236328
254;0.0;0.0;0.0;-0.004879999905824661;-0.01268799975514412;1.0892159938812256;0.0;0.0;0.0
256;0.0;0.0;0.0;0.006831999868154526;-0.028303999453783035;1.101904034614563;0.0;0.0;0.0
258;0.0;0.0;0.0;0.03806399926543236;-0.03611199930310249;1.1058080196380615;0.0;0.0;0.0
260;-0.11028799414634705;0.11492399871349335;0.9657520055770874;0.03806399926543236;0.006831999868154526;1.10971200466156;4.917500019073486;1.2074999809265137;8.386874198913574
262;0.0;0.0;0.0;-0.004879999905824661;-0.00878399983048439;1.1136159896850586;0.0;0.0;0.0
264;0.0;0.0;0.0;0.03415999934077263;-0.020495999604463577;1.122399926185608;0.0;0.0;0.0
266;0.0;0.0;0.0;0.0029279999434947968;-0.020495999604463577;1.1380159854888916;0.0;0.0;0.0
268;-0.10589599609375;0.11834000051021576;0.98990797996521;0.006831999868154526;-0.020495999604463577;1.0892159938812256;3.6575000286102295;2.747499942779541;8.176874160766602
271;0.0;0.0;0.0;0.03415999934077263;-0.032207999378442764;1.126304030418396;0.0;0.0;0.0
273;0.0;0.0;0.0;0.018543999642133713;-0.03611199930310249;1.1175199747085571;0.0;0.0;0.0
275;0.0;0.0;0.0;0.0029279999434947968;-0.04391999915242195;1.122399926185608;0.0;0.0;0.0
277;-0.11370399594306946;0.10565199702978134;0.9930799603462219;-0.0009759999811649323;-0.05563199892640114;1.122399926185608;2.1875;5.4775004386901855;8.176874160766602
279;0.0;0.0;0.0;-0.01659199967980385;-0.028303999453783035;1.1058080196380615;0.0;0.0;0.0
281;0.0;0.0;0.0;-0.024399999529123306;-0.01268799975514412;1.1214239597320557;0.0;0.0;0.0
283;0.0;0.0;0.0;-0.04001599922776222;-0.004879999905824661;1.1136159896850586;0.0;0.0;0.0
285;-0.1420079916715622;0.1088239997625351;0.9842959642410278;-0.04391999915242195;-0.024399999529123306;1.0892159938812256;2.047499895095825;6.80750036239624;7.966875076293945
288;0.0;0.0;0.0;-0.020495999604463577;-0.03611199930310249;1.1136159896850586;0.0;0.0;0.0
290;0.0;0.0;0.0;-0.05172799900174141;-0.020495999604463577;1.10971200466156;0.0;0.0;0.0
292;0.0;0.0;0.0;-0.06734399497509003;-0.04391999915242195;1.0892159938812256;0.0;0.0;0.0
294;-0.16323599219322205;0.10052800178527832;0.9696559906005859;-0.04391999915242195;-0.04001599922776222;1.0814080238342285;2.817499876022339;3.0274999141693115;9.086874961853027
296;0.0;0.0;0.0;-0.04782399907708168;-0.00878399983048439;1.0931199789047241;0.0;0.0;0.0
298;0.0;0.0;0.0;-0.020495999604463577;-0.00878399983048439;1.0814080238342285;0.0;0.0;0.0
300;0.0;0.0;0.0;-0.03611199930310249;-0.05563199892640114;1.101904034614563;0.0;0.0;0.0
302;-0.16299200057983398;0.09686800092458725;0.9598959684371948;-0.04391999915242195;-0.024399999529123306;1.0775039196014404;2.9574999809265137;0.22749999165534973;9.506875038146973
305;0.0;0.0;0.0;-0.028303999453783035;-0.04782399907708168;1.101904034614563;0.0;0.0;0.0
307;0.0;0.0;0.0;-0.05172799900174141;-0.028303999453783035;1.0814080238342285;0.0;0.0;0.0
309;0.0;0.0;0.0;-0.01268799975514412;-0.04782399907708168;1.0687199831008911;0.0;0.0;0.0
311;-0.15615999698638916;0.09930799901485443;0.9574559926986694;-0.024399999529123306;-0.024399999529123306;1.0726239681243896;1.4175000190734863;-1.2425000667572021;8.946874618530273
313;0.0;0.0;0.0;-0.020495999604463577;-0.032207999378442764;1.073599934577942;0.0;0.0;0.0
315;0.0;0.0;0.0;-0.020495999604463577;-0.032207999378442764;1.085312008857727;0.0;0.0;0.0
317;0.0;0.0;0.0;-0.00878399983048439;-0.04001599922776222;1.101904034614563;0.0;0.0;0.0
320;-0.13981199264526367;0.10272400081157684;0.957211971282959;0.0029279999434947968;-0.01659199967980385;1.085312008857727;-1.9424999952316284;-2.432500123977661;8.246874809265137
322;0.0;0.0;0.0;-0.004879999905824661;-0.032207999378442764;1.097999930381775;0.0;0.0;0.0
324;0.0;0.0;0.0;-0.01268799975514412;-0.020495999604463577;1.0814080238342285;0.0;0.0;0.0
326;0.0;0.0;0.0;-0.020495999604463577;-0.04782399907708168;1.0892159938812256;0.0;0.0;0.0
328;-0.12419600039720535;0.10150399804115295;0.9576999545097351;0.0029279999434947968;-0.04782399907708168;1.0687199831008911;-6.5625;-2.432500123977661;8.036874771118164
330;0.0;0.0;0.0;0.010735999792814255;-0.020495999604463577;1.0775039196014404;0.0;0.0;0.0
332;0.0;0.0;0.0;0.018543999642133713;-0.024399999529123306;1.1058080196380615;0.0;0.0;0.0
334;0.0;0.0;0.0;0.022447999566793442;-0.05563199892640114;1.0814080238342285;0.0;0.0;0.0
337;-0.11443600058555603;0.08930400013923645;0.9589200019836426;0.022447999566793442;-0.05563199892640114;1.0892159938812256;-10.762499809265137;-0.7524999976158142;8.106874465942383
339;0.0;0.0;0.0;0.018543999642133713;-0.05563199892640114;1.0814080238342285;0.0;0.0;0.0
341;0.0;0.0;0.0;0.018543999642133713;-0.08295999467372894;1.085312008857727;0.0;0.0;0.0
343;0.0;0.0;0.0;0.022447999566793442;-0.07124799489974976;1.0892159938812256;0.0;0.0;0.0
345;-0.10613999515771866;0.07295599579811096;0.9650200009346008;0.022447999566793442;-0.05953599885106087;1.0892159938812256;-12.862500190734863;2.1875;7.896874904632568
347;0.0;0.0;0.0;0.018543999642133713;-0.05172799900174141;1.0892159938812256;0.0;0.0;0.0
349;0.0;0.0;0.0;0.0302559994161129;-0.08295999467372894;1.085312008857727;0.0;0.0;0.0
351;0.0;0.0;0.0;0.018543999642133713;-0.07515199482440948;1.101904034614563;0.0;0.0;0.0
354;-0.10931199789047241;0.053679998964071274;0.966484010219574;0.0029279999434947968;-0.07515199482440948;1.0892159938812256;-13.142499923706055;3.447499990463257;8.7368745803833
356;0.0;0.0;0.0;0.006831999868154526;-0.0907679945230484;1.0892159938812256;0.0;0.0;0.0
358;0.0;0.0;0.0;0.006831999868154526;-0.1180959939956665;1.1136159896850586;0.0;0.0;0.0
360;0.0;0.0;0.0;-0.0009759999811649323;-0.10638399422168732;1.097999930381775;0.0;0.0;0.0
362;-0.11785199493169785;0.03001200035214424;0.9672159552574158;0.006831999868154526;-0.13761599361896515;1.101904034614563;-12.022500038146973;2.817500114440918;9.786874771118164
364;0.0;0.0;0.0;-0.01659199967980385;-0.13371199369430542;1.0892159938812256;0.0;0.0;0.0
366;0.0;0.0;0.0;-0.01659199967980385;-0.1298079937696457;1.1058080196380615;0.0;0.0;0.0
368;0.0;0.0;0.0;0.014639999717473984;-0.18055999279022217;1.073599934577942;0.0;0.0;0.0
371;-0.12029200047254562;-0.013663999736309052;0.9586759805679321;0.02635199949145317;-0.1454239934682846;1.0775039196014404;-10.202500343322754;-0.4025000035762787;10.766874313354492
373;0.0;0.0;0.0;-0.03611199930310249;-0.07124799489974976;1.101904034614563;0.0;0.0;0.0
375;0.0;0.0;0.0;0.057583998888731;-0.11028799414634705;1.0892159938812256;0.0;0.0;0.0
377;0.0;0.0;0.0;0.04196799919009209;-0.16884799301624298;1.085312008857727;0.0;0.0;0.0
379;-0.10711599886417389;0.004635999910533428;0.9594079852104187;0.018543999642133713;-0.16884799301624298;1.060912013053894;-7.122499942779541;-5.162499904632568;12.096874237060547
381;0.0;0.0;0.0;0.049775999039411545;-0.12199999392032623;1.0531039237976074;0.0;0.0;0.0
383;0.0;0.0;0.0;0.0849120020866394;-0.1571359932422638;1.0491999387741089;0.0;0.0;0.0
385;0.0;0.0;0.0;0.06929600238800049;-0.1571359932422638;1.044319987297058;0.0;0.0;0.0
388;-0.06173199787735939;-0.02025200054049492;0.9247599840164185;0.06148799881339073;-0.14151999354362488;1.0531039237976074;-4.042500019073486;-8.382499694824219;14.546875
390;0.0;0.0;0.0;0.10833600163459778;-0.1571359932422638;1.0452959537506104;0.0;0.0;0.0
392;0.0;0.0;0.0;0.09662400186061859;-0.17665599286556244;1.0169919729232788;0.0;0.0;0.0
394;0.0;0.0;0.0;0.08100800216197968;-0.18055999279022217;1.0657919645309448;0.0;0.0;0.0
396;-0.04391999915242195;-0.02757199853658676;0.9240279793739319;0.08881600201129913;-0.14932799339294434;1.0657919645309448;1.9075000286102295;-6.28249979019165;15.7368745803833
398;0.0;0.0;0.0;0.07320000231266022;-0.16884799301624298;1.0657919645309448;0.0;0.0;0.0
400;0.0;0.0;0.0;0.06148799881339073;-0.14151999354362488;1.0901919603347778;0.0;0.0;0.0
402;0.0;0.0;0.0;0.049775999039411545;-0.16103999316692352;1.0940959453582764;0.0;0.0;0.0
405;-0.06148799881339073;-0.01781199872493744;0.9564799666404724;0.07710400223731995;-0.14151999354362488;1.1106879711151123;6.807499885559082;-2.7125000953674316;17.13687515258789
407;0.0;0.0;0.0;0.0029279999434947968;-0.11419199407100677;1.0931199789047241;0.0;0.0;0.0
409;0.0;0.0;0.0;0.022447999566793442;-0.1298079937696457;1.10971200466156;0.0;0.0;0.0
411;0.0;0.0;0.0;0.02635199949145317;-0.13371199369430542;1.126304030418396;0.0;0.0;0.0
413;-0.10711599886417389;0.0012199999764561653;0.9840520024299622;-0.00878399983048439;-0.1180959939956665;1.122399926185608;8.837499618530273;-0.612500011920929;17.486875534057617
415;0.0;0.0;0.0;-0.01268799975514412;-0.1298079937696457;1.1302080154418945;0.0;0.0;0.0
417;0.0;0.0;0.0;-0.01659199967980385;-0.10638399422168732;1.150704026222229;0.0;0.0;0.0
419;0.0;0.0;0.0;-0.00878399983048439;-0.09467199444770813;1.1546080112457275;0.0;0.0;0.0
422;-0.13468798995018005;0.015371999703347683;1.019919991493225;-0.04001599922776222;-0.12199999392032623;1.1702239513397217;8.767499923706055;-0.7524999976158142;16.576875686645508
424;0.0;0.0;0.0;-0.01659199967980385;-0.11028799414634705;1.1389919519424438;0.0;0.0;0.0
426;0.0;0.0;0.0;-0.032207999378442764;-0.09857599437236786;1.1350879669189453;0.0;0.0;0.0
428;0.0;0.0;0.0;-0.032207999378442764;-0.10638399422168732;1.1311839818954468;0.0;0.0;0.0
430;-0.14151999354362488;0.024399999529123306;1.0216280221939087;-0.03611199930310249;-0.08686399459838867;1.1428959369659424;7.297500133514404;-1.2425000667572021;15.386874198913574
432;0.0;0.0;0.0;-0.04782399907708168;-0.07905599474906921;1.1428959369659424;0.0;0.0;0.0
434;0.0;0.0;0.0;-0.04001599922776222;-0.08686399459838867;1.1721760034561157;0.0;0.0;0.0
436;0.0;0.0;0.0;-0.00878399983048439;-0.08686399459838867;1.1672959327697754;0.0;0.0;0.0
439;-0.14640000462532043;0.037331998348236084;1.0294359922409058;-0.020495999604463577;-0.11028799414634705;1.1672959327697754;5.967499732971191;-2.7125000953674316;14.406874656677246
441;0.0;0.0;0.0;-0.028303999453783035;-0.08686399459838867;1.1428959369659424;0.0;0.0;0.0
443;0.0;0.0;0.0;-0.03611199930310249;-0.07905599474906921;1.1428959369659424;0.0;0.0;0.0
445;0.0;0.0;0.0;-0.01268799975514412;-0.08295999467372894;1.1389919519424438;0.0;0.0;0.0
447;-0.14005599915981293;0.04758000001311302;1.0233359336853027;-0.00878399983048439;-0.05563199892640114;1.1633919477462769;4.077499866485596;-4.8125;12.656874656677246
449;0.0;0.0;0.0;-0.01659199967980385;-0.07905599474906921;1.1594879627227783;0.0;0.0;0.0
451;0.0;0.0;0.0;0.0302559994161129;-0.09467199444770813;1.1350879669189453;0.0;0.0;0.0
453;0.0;0.0;0.0;0.010735999792814255;-0.07905599474906921;1.1516799926757812;0.0;0.0;0.0
456;-0.11858399957418442;0.0500199981033802;1.0160160064697266;0.010735999792814255;-0.07124799489974976;1.1350879669189453;1.3475000858306885;-7.052499771118164;11.046875
458;0.0;0.0;0.0;0.02635199949145317;-0.08686399459838867;1.1311839818954468;0.0;0.0;0.0
460;0.0;0.0;0.0;0.02635199949145317;-0.09467199444770813;1.1428959369659424;0.0;0.0;0.0
462;0.0;0.0;0.0;0.06539200246334076;-0.0907679945230484;1.1311839818954468;0.0;0.0;0.0
464;-0.08735200017690659;0.04367600008845329;1.00381600856781;0.04196799919009209;-0.11028799414634705;1.1350879669189453;-1.662500023841858;-7.612499713897705;9.716875076293945
466;0.0;0.0;0.0;0.057583998888731;-0.0634399950504303;1.1350879669189453;0.0;0.0;0.0
468;0.0;0.0;0.0;0.06148799881339073;-0.06734399497509003;1.1302080154418945;0.0;0.0;0.0
470;0.0;0.0;0.0;0.0849120020866394;-0.06734399497509003;1.1389919519424438;0.0;0.0;0.0
473;-0.06026799976825714;0.05416800081729889;1.010159969329834;0.08100800216197968;-0.0634399950504303;1.1145919561386108;-5.582499980926514;-6.702499866485596;9.016874313354492
475;0.0;0.0;0.0;0.08100800216197968;-0.09857599437236786;1.1302080154418945;0.0;0.0;0.0
477;0.0;0.0;0.0;0.0849120020866394;-0.10638399422168732;1.1419199705123901;0.0;0.0;0.0
479;0.0;0.0;0.0;0.09272000193595886;-0.0907679945230484;1.1380159854888916;0.0;0.0;0.0
481;-0.043431997299194336;0.04636000096797943;1.0069879293441772;0.08881600201129913;-0.0634399950504303;1.122399926185608;-10.412500381469727;-3.9725000858306885;8.036874771118164
483;0.0;0.0;0.0;0.06148799881339073;-0.09857599437236786;1.1428959369659424;0.0;0.0;0.0
485;0.0;0.0;0.0;0.08881600201129913;-0.08686399459838867;1.1175199747085571;0.0;0.0;0.0
487;0.0;0.0;0.0;0.07320000231266022;-0.12199999392032623;1.0814080238342285;0.0;0.0;0.0
490;-0.03269600123167038;0.0287919994443655;0.9918599724769592;0.115167997777462;-0.12199999392032623;1.0892159938812256;-13.492500305175781;0.3675000071525574;7.406875133514404
492;0.0;0.0;0.0;0.07320000231266022;-0.12590399384498596;1.073599934577942;0.0;0.0;0.0
494;0.0;0.0;0.0;0.053679998964071274;-0.12199999392032623;1.0901919603347778;0.0;0.0;0.0
496;0.0;0.0;0.0;0.045871999114751816;-0.1454239934682846;1.073599934577942;0.0;0.0;0.0
498;-0.054899998009204865;0.003415999934077263;0.95306396484375;0.0302559994161129;-0.1454239934682846;1.0657919645309448;-13.912500381469727;6.527500152587891;7.896874904632568
500;0.0;0.0;0.0;0.0302559994161129;-0.13761599361896515;1.0862879753112793;0.0;0.0;0.0
502;0.0;0.0;0.0;0.010735999792814255;-0.15323199331760406;1.0579839944839478;0.0;0.0;0.0
505;0.0;0.0;0.0;-0.004879999905824661;-0.1571359932422638;1.0657919645309448;0.0;0.0;0.0
507;-0.11248400062322617;-0.012443999759852886;0.9440360069274902;0.0029279999434947968;-0.1298079937696457;1.0775039196014404;-9.362500190734863;8.977499961853027;9.926874160766602
509;0.0;0.0;0.0;-0.020495999604463577;-0.13761599361896515;1.0687199831008911;0.0;0.0;0.0
511;0.0;0.0;0.0;0.006831999868154526;-0.14151999354362488;1.0687199831008911;0.0;0.0;0.0
513;0.0;0.0;0.0;-0.004879999905824661;-0.13761599361896515;1.060912013053894;0.0;0.0;0.0
515;-0.13834799826145172;-0.007075999863445759;0.9467200040817261;-0.020495999604463577;-0.13761599361896515;1.0814080238342285;-1.2424999475479126;4.077500343322754;12.2368745803833
517;0.0;0.0;0.0;0.010735999792814255;-0.1298079937696457;1.060912013053894;0.0;0.0;0.0
519;0.0;0.0;0.0;-0.0009759999811649323;-0.13371199369430542;1.085312008857727;0.0;0.0;0.0
521;0.0;0.0;0.0;0.010735999792814255;-0.14932799339294434;1.0814080238342285;0.0;0.0;0.0
524;-0.12639199197292328;0.00024399999529123306;0.9579439759254456;0.006831999868154526;-0.13371199369430542;1.0931199789047241;6.807499885559082;-2.362499952316284;14.616874694824219
526;0.0;0.0;0.0;-0.020495999604463577;-0.12199999392032623;1.10971200466156;0.0;0.0;0.0
528;0.0;0.0;0.0;0.03415999934077263;-0.1180959939956665;1.1058080196380615;0.0;0.0;0.0
530;0.0;0.0;0.0;-0.0009759999811649323;-0.09467199444770813;1.0892159938812256;0.0;0.0;0.0
532;-0.11663199961185455;0.020495999604463577;0.977463960647583;-0.0009759999811649323;-0.09857599437236786;1.1214239597320557;11.637499809265137;-5.792500019073486;15.946874618530273
534;0.0;0.0;0.0;0.022447999566793442;-0.12199999392032623;1.0931199789047241;0.0;0.0;0.0
536;0.0;0.0;0.0;0.045871999114751816;-0.07124799489974976;1.126304030418396;0.0;0.0;0.0
539;0.0;0.0;0.0;0.0302559994161129;-0.07124799489974976;1.1175199747085571;0.0;0.0;0.0
541;-0.10735999792814255;0.04806799814105034;0.9911279678344727;0.022447999566793442;-0.07515199482440948;1.097999930381775;12.6875;-6.5625;15.106874465942383
543;0.0;0.0;0.0;0.0302559994161129;-0.06734399497509003;1.10971200466156;0.0;0.0;0.0
545;0.0;0.0;0.0;0.045871999114751816;-0.05953599885106087;1.1380159854888916;0.0;0.0;0.0
547;0.0;0.0;0.0;0.02635199949145317;-0.05563199892640114;1.1175199747085571;0.0;0.0;0.0
549;-0.08906000107526779;0.07246799767017365;1.0021079778671265;0.03415999934077263;-0.07124799489974976;1.1302080154418945;10.447500228881836;-5.932499885559082;13.076874732971191
551;0.0;0.0;0.0;0.03806399926543236;-0.06734399497509003;1.126304030418396;0.0;0.0;0.0
553;0.0;0.0;0.0;0.08100800216197968;-0.05563199892640114;1.122399926185608;0.0;0.0;0.0
556;0.0;0.0;0.0;0.09564799815416336;-0.04782399907708168;1.1136159896850586;0.0;0.0;0.0
558;-0.06392800062894821;0.08051999658346176;1.0028399229049683;0.049775999039411545;-0.05563199892640114;1.134112000465393;6.387499809265137;-3.2725000381469727;11.536874771118164
560;0.0;0.0;0.0;0.0849120020866394;-0.07124799489974976;1.134112000465393;0.0;0.0;0.0
562;0.0;0.0;0.0;0.045871999114751816;-0.04001599922776222;1.1175199747085571;0.0;0.0;0.0
564;0.0;0.0;0.0;0.03806399926543236;-0.0634399950504303;1.0892159938812256;0.0;0.0;0.0
566;-0.06441599875688553;0.07490799576044083;0.9928359985351562;0.045871999114751816;-0.05953599885106087;1.126304030418396;2.1875;1.5575000047683716;10.906874656677246
568;0.0;0.0;0.0;0.014639999717473984;-0.04782399907708168;1.126304030418396;0.0;0.0;0.0
570;0.0;0.0;0.0;0.03415999934077263;-0.03611199930310249;1.1175199747085571;0.0;0.0;0.0
573;0.0;0.0;0.0;-0.01268799975514412;-0.05953599885106087;1.126304030418396;0.0;0.0;0.0
575;-0.09906399995088577;0.07759200036525726;0.9906399846076965;-0.020495999604463577;-0.03611199930310249;1.126304030418396;-0.6825000047683716;6.6675004959106445;10.836874961853027
577;0.0;0.0;0.0;-0.028303999453783035;-0.03611199930310249;1.146799921989441;0.0;0.0;0.0
579;0.0;0.0;0.0;-0.020495999604463577;-0.032207999378442764;1.1184959411621094;0.0;0.0;0.0
581;0.0;0.0;0.0;-0.024399999529123306;-0.04391999915242195;1.1184959411621094;0.0;0.0;0.0
583;-0.14322799444198608;0.09149999916553497;0.9967399835586548;-0.024399999529123306;-0.05172799900174141;1.1184959411621094;-2.7825000286102295;6.80750036239624;10.55687427520752
585;0.0;0.0;0.0;-0.04782399907708168;-0.04391999915242195;1.1106879711151123;0.0;0.0;0.0
587;0.0;0.0;0.0;-0.028303999453783035;-0.04782399907708168;1.1058080196380615;0.0;0.0;0.0
590;0.0;0.0;0.0;-0.01268799975514412;-0.04001599922776222;1.1106879711151123;0.0;0.0;0.0
592;-0.14883999526500702;0.09027999639511108;0.9842959642410278;-0.020495999604463577;-0.04782399907708168;1.1106879711151123;-3.762500047683716;2.047499895095825;10.626874923706055
594;0.0;0.0;0.0;0.0029279999434947968;-0.04782399907708168;1.1184959411621094;0.0;0.0;0.0
596;0.0;0.0;0.0;-0.0009759999811649323;-0.05563199892640114;1.0940959453582764;0.0;0.0;0.0
598;0.0;0.0;0.0;-0.004879999905824661;-0.04782399907708168;1.0940959453582764;0.0;0.0;0.0
600;-0.13053999841213226;0.08344800025224686;0.9750239849090576;0.04196799919009209;-0.04782399907708168;1.0940959453582764;-4.042500019073486;-3.3424999713897705;11.536874771118164
602;0.0;0.0;0.0;0.014639999717473984;-0.07515199482440948;1.0784800052642822;0.0;0.0;0.0
604;0.0;0.0;0.0;0.018543999642133713;-0.07124799489974976;1.073599934577942;0.0;0.0;0.0
607;0.0;0.0;0.0;0.010735999792814255;-0.07515199482440948;1.0901919603347778;0.0;0.0;0.0
609;-0.10150399804115295;0.07173600047826767;0.9496479630470276;0.0302559994161129;-0.05953599885106087;1.0901919603347778;-3.4125001430511475;-5.0224995613098145;12.516874313354492
611;0.0;0.0;0.0;0.022447999566793442;-0.05172799900174141;1.0657919645309448;0.0;0.0;0.0
613;0.0;0.0;0.0;0.04196799919009209;-0.05563199892640114;1.0696959495544434;0.0;0.0;0.0
615;0.0;0.0;0.0;0.04196799919009209;-0.07124799489974976;1.0775039196014404;0.0;0.0;0.0
617;-0.0785679966211319;0.06661199778318405;0.945743978023529;0.03415999934077263;-0.0634399950504303;1.0696959495544434;-1.8025000095367432;-3.132499933242798;13.076874732971191
619;0.0;0.0;0.0;0.06148799881339073;-0.05953599885106087;1.073599934577942;0.0;0.0;0.0
621;0.0;0.0;0.0;0.049775999039411545;-0.08686399459838867;1.0775039196014404;0.0;0.0;0.0
624;0.0;0.0;0.0;0.057583998888731;-0.09467199444770813;1.097999930381775;0.0;0.0;0.0
626;-0.06954000145196915;0.05807200074195862;0.9584319591522217;0.06539200246334076;-0.08686399459838867;1.0940959453582764;-0.5425000190734863;-0.4725000262260437;13.636874198913574
628;0.0;0.0;0.0;0.03806399926543236;-0.08295999467372894;1.1145919561386108;0.0;0.0;0.0
630;0.0;0.0;0.0;0.045871999114751816;-0.07124799489974976;1.1145919561386108;0.0;0.0;0.0
632;0.0;0.0;0.0;0.08100800216197968;-0.07905599474906921;1.1350879669189453;0.0;0.0;0.0
634;-0.07246799767017365;0.049775999039411545;0.9947879910469055;0.049775999039411545;-0.0634399950504303;1.1350879669189453;-0.612500011920929;2.047499895095825;13.846874237060547
636;0.0;0.0;0.0;0.0302559994161129;-0.0907679945230484;1.122399926185608;0.0;0.0;0.0
638;0.0;0.0;0.0;0.06539200246334076;-0.07905599474906921;1.1350879669189453;0.0;0.0;0.0
641;0.0;0.0;0.0;0.014639999717473984;-0.09857599437236786;1.1145919561386108;0.0;0.0;0.0
643;-0.09418399631977081;0.037331998348236084;0.9991799592971802;-0.01268799975514412;-0.10247999429702759;1.150704026222229;-2.2925000190734863;4.287500381469727;13.076874732971191
645;0.0;0.0;0.0;-0.020495999604463577;-0.08295999467372894;1.1106879711151123;0.0;0.0;0.0
647;0.0;0.0;0.0;-0.0009759999811649323;-0.09857599437236786;1.126304030418396;0.0;0.0;0.0
649;0.0;0.0;0.0;-0.028303999453783035;-0.09467199444770813;1.097999930381775;0.0;0.0;0.0
651;-0.14103199541568756;0.03171999752521515;0.9950319528579712;-0.03611199930310249;-0.09857599437236786;1.122399926185608;-3.132500171661377;4.427500247955322;12.166874885559082
653;0.0;0.0;0.0;-0.028303999453783035;-0.1180959939956665;1.101904034614563;0.0;0.0;0.0
655;0.0;0.0;0.0;-0.04001599922776222;-0.1180959939956665;1.1067839860916138;0.0;0.0;0.0
658;0.0;0.0;0.0;-0.04782399907708168;-0.11419199407100677;1.122399926185608;0.0;0.0;0.0
660;-0.1634799987077713;0.030743999406695366;0.9877119660377502;-0.04391999915242195;-0.11028799414634705;1.1067839860916138;-2.502500057220459;0.3675000071525574;10.696874618530273
662;0.0;0.0;0.0;-0.028303999453783035;-0.08686399459838867;1.1145919561386108;0.0;0.0;0.0
664;0.0;0.0;0.0;-0.0009759999811649323;-0.11028799414634705;1.0862879753112793;0.0;0.0;0.0
666;0.0;0.0;0.0;-0.0009759999811649323;-0.11419199407100677;1.0862879753112793;0.0;0.0;0.0
668;-0.14103199541568756;0.03537999838590622;0.9725840091705322;0.0029279999434947968;-0.10247999429702759;1.101904034614563;-1.9424999952316284;-4.392499923706055;9.226874351501465
670;0.0;0.0;0.0;0.010735999792814255;-0.11028799414634705;1.0901919603347778;0.0;0.0;0.0
672;0.0;0.0;0.0;0.010735999792814255;-0.08686399459838867;1.0862879753112793;0.0;0.0;0.0
675;0.0;0.0;0.0;0.03806399926543236;-0.10638399422168732;1.0696959495544434;0.0;0.0;0.0
677;-0.10247999429702759;0.04367600008845329;0.9659959673881531;0.022447999566793442;-0.07905599474906921;1.0901919603347778;-1.662500023841858;-5.862499713897705;8.106874465942383
679;0.0;0.0;0.0;0.0302559994161129;-0.08686399459838867;1.085312008857727;0.0;0.0;0.0
681;0.0;0.0;0.0;0.045871999114751816;-0.07515199482440948;1.0931199789047241;0.0;0.0;0.0
683;0.0;0.0;0.0;0.06148799881339073;-0.07905599474906921;1.101904034614563;0.0;0.0;0.0
685;-0.07490799576044083;0.05831599980592728;0.9686799645423889;0.045871999114751816;-0.0634399950504303;1.10971200466156;-2.2925000190734863;-4.252499580383301;7.686874866485596
687;0.0;0.0;0.0;0.057583998888731;-0.07124799489974976;1.10971200466156;0.0;0.0;0.0
689;0.0;0.0;0.0;0.057583998888731;-0.08686399459838867;1.0892159938812256;0.0;0.0;0.0
692;0.0;0.0;0.0;0.07320000231266022;-0.06734399497509003;1.101904034614563;0.0;0.0;0.0
694;-0.06563600152730942;0.059779997915029526;0.9759999513626099;0.06148799881339073;-0.06734399497509003;1.1058080196380615;-3.2725000381469727;-1.2425000667572021;8.386874198913574
696;0.0;0.0;0.0;0.014639999717473984;-0.09857599437236786;1.122399926185608;0.0;0.0;0.0
698;0.0;0.0;0.0;0.045871999114751816;-0.0907679945230484;1.1067839860916138;0.0;0.0;0.0
700;0.0;0.0;0.0;0.03806399926543236;-0.07905599474906921;1.1067839860916138;0.0;0.0;0.0
702;-0.07173600047826767;0.04879999905824661;0.9830759763717651;0.049775999039411545;-0.07905599474906921;1.0940959453582764;-3.202500104904175;1.4175000190734863;9.226874351501465
704;0.0;0.0;0.0;0.022447999566793442;-0.0907679945230484;1.1067839860916138;0.0;0.0;0.0
706;0.0;0.0;0.0;0.03415999934077263;-0.11419199407100677;1.1184959411621094;0.0;0.0;0.0
709;0.0;0.0;0.0;0.053679998964071274;-0.10638399422168732;1.0940959453582764;0.0;0.0;0.0
711;-0.08198399841785431;0.029279999434947968;0.9835639595985413;0.022447999566793442;-0.10247999429702759;1.1028800010681152;-1.872499942779541;2.5374999046325684;10.136874198913574
713;0.0;0.0;0.0;0.045871999114751816;-0.11028799414634705;1.1145919561386108;0.0;0.0;0.0
715;0.0;0.0;0.0;0.018543999642133713;-0.13761599361896515;1.1389919519424438;0.0;0.0;0.0
717;0.0;0.0;0.0;0.010735999792814255;-0.1180959939956665;1.1184959411621094;0.0;0.0;0.0
719;-0.09759999811649323;0.011467999778687954;0.9852719902992249;0.010735999792814255;-0.1180959939956665;1.1184959411621094;0.3675000071525574;2.117500066757202;10.836874961853027
722;0.0;0.0;0.0;0.018543999642133713;-0.13761599361896515;1.126304030418396;0.0;0.0;0.0
723;0.0;0.0;0.0;0.02635199949145317;-0.10247999429702759;1.1106879711151123;0.0;0.0;0.0
726;0.0;0.0;0.0;-0.01268799975514412;-0.11419199407100677;1.1106879711151123;0.0;0.0;0.0
728;-0.11101999878883362;0.017079999670386314;0.9935680031776428;-0.00878399983048439;-0.10247999429702759;1.1311839818954468;1.8375000953674316;0.6474999785423279;11.676874160766602
730;0.0;0.0;0.0;0.0029279999434947968;-0.11028799414634705;1.1184959411621094;0.0;0.0;0.0
732;0.0;0.0;0.0;0.018543999642133713;-0.12590399384498596;1.1302080154418945;0.0;0.0;0.0
734;0.0;0.0;0.0;0.018543999642133713;-0.10247999429702759;1.1145919561386108;0.0;0.0;0.0
736;-0.11711999773979187;0.023423999547958374;0.9945439696311951;0.02635199949145317;-0.11028799414634705;1.073599934577942;2.5374999046325684;-2.502500057220459;12.796875
739;0.0;0.0;0.0;0.018543999642133713;-0.11028799414634705;1.122399926185608;0.0;0.0;0.0
741;0.0;0.0;0.0;0.010735999792814255;-0.10247999429702759;1.1184959411621094;0.0;0.0;0.0
743;0.0;0.0;0.0;0.018543999642133713;-0.09857599437236786;1.1184959411621094;0.0;0.0;0.0
745;-0.11150799691677094;0.031964000314474106;0.986735999584198;0.010735999792814255;-0.09857599437236786;1.1184959411621094;3.1675000190734863;-5.162499904632568;13.286874771118164
747;0.0;0.0;0.0;0.006831999868154526;-0.10247999429702759;1.1311839818954468;0.0;0.0;0.0
749;0.0;0.0;0.0;0.04196799919009209;-0.07515199482440948;1.1106879711151123;0.0;0.0;0.0
751;0.0;0.0;0.0;0.006831999868154526;-0.11028799414634705;1.126304030418396;0.0;0.0;0.0
753;-0.1041879951953888;0.04172400012612343;0.9930799603462219;0.03415999934077263;-0.07515199482440948;1.1145919561386108;3.0274999141693115;-6.352499961853027;13.356874465942383
756;0.0;0.0;0.0;0.010735999792814255;-0.09857599437236786;1.1311839818954468;0.0;0.0;0.0
758;0.0;0.0;0.0;0.04196799919009209;-0.08686399459838867;1.1272799968719482;0.0;0.0;0.0
760;0.0;0.0;0.0;0.014639999717473984;-0.08295999467372894;1.1350879669189453;0.0;0.0;0.0
762;-0.10028399527072906;0.04196799919009209;1.0003999471664429;0.018543999642133713;-0.10247999429702759;1.1350879669189453;1.4175000190734863;-5.932499885559082;12.2368745803833
764;0.0;0.0;0.0;0.018543999642133713;-0.11419199407100677;1.1106879711151123;0.0;0.0;0.0
766;0.0;0.0;0.0;0.06148799881339073;-0.12199999392032623;1.1272799968719482;0.0;0.0;0.0
768;0.0;0.0;0.0;0.06148799881339073;-0.08686399459838867;1.1311839818954468;0.0;0.0;0.0
770;-0.0907679945230484;0.030988000333309174;0.9969840049743652;0.049775999039411545;-0.1298079937696457;1.1106879711151123;-0.8925000429153442;-4.882499694824219;10.066874504089355
773;0.0;0.0;0.0;0.053679998964071274;-0.10638399422168732;1.1311839818954468;0.0;0.0;0.0
775;0.0;0.0;0.0;0.049775999039411545;-0.1454239934682846;1.146799921989441;0.0;0.0;0.0
777;0.0;0.0;0.0;0.06539200246334076;-0.1298079937696457;1.122399926185608;0.0;0.0;0.0
779;-0.0710039958357811;0.015371999703347683;0.9996680021286011;0.045871999114751816;-0.14151999354362488;1.1028800010681152;-3.552500009536743;-3.622499942779541;8.946874618530273
781;0.0;0.0;0.0;0.0302559994161129;-0.1298079937696457;1.1106879711151123;0.0;0.0;0.0
783;0.0;0.0;0.0;0.07320000231266022;-0.1298079937696457;1.1106879711151123;0.0;0.0;0.0
785;0.0;0.0;0.0;0.03806399926543236;-0.1454239934682846;1.122399926185608;0.0;0.0;0.0
787;-0.07417599856853485;0.003659999929368496;0.9811239838600159;0.08100800216197968;-0.12590399384498596;1.1184959411621094;-4.742500305175781;-0.6825000047683716;8.7368745803833
789;0.0;0.0;0.0;0.010735999792814255;-0.13761599361896515;1.1067839860916138;0.0;0.0;0.0
792;0.0;0.0;0.0;0.02635199949145317;-0.14151999354362488;1.1028800010681152;0.0;0.0;0.0
794;0.0;0.0;0.0;0.006831999868154526;-0.13371199369430542;1.0901919603347778;0.0;0.0;0.0
796;-0.10052800178527832;0.003415999934077263;0.9701439738273621;0.03806399926543236;-0.1298079937696457;1.0696959495544434;-3.692500114440918;2.117500066757202;8.7368745803833
798;0.0;0.0;0.0;-0.020495999604463577;-0.12199999392032623;1.0901919603347778;0.0;0.0;0.0
800;0.0;0.0;0.0;-0.004879999905824661;-0.1180959939956665;1.0784800052642822;0.0;0.0;0.0
802;0.0;0.0;0.0;0.014639999717473984;-0.1180959939956665;1.0657919645309448;0.0;0.0;0.0
804;-0.12297599762678146;0.00951599981635809;0.9625799655914307;-0.0009759999811649323;-0.1454239934682846;1.0862879753112793;-1.522499918937683;2.4674999713897705;8.946874618530273
807;0.0;0.0;0.0;0.0029279999434947968;-0.11028799414634705;1.0862879753112793;0.0;0.0;0.0
809;0.0;0.0;0.0;-0.0009759999811649323;-0.11419199407100677;1.097999930381775;0.0;0.0;0.0
811;0.0;0.0;0.0;0.022447999566793442;-0.11419199407100677;1.0862879753112793;0.0;0.0;0.0
813;-0.11834000051021576;0.019276000559329987;0.9652639627456665;-0.00878399983048439;-0.1180959939956665;1.122399926185608;1.5575000047683716;0.5074999928474426;9.64687442779541
815;0.0;0.0;0.0;0.010735999792814255;-0.09857599437236786;1.0940959453582764;0.0;0.0;0.0
817;0.0;0.0;0.0;0.02635199949145317;-0.09467199444770813;1.1028800010681152;0.0;0.0;0.0
819;0.0;0.0;0.0;0.02635199949145317;-0.0907679945230484;1.1311839818954468;0.0;0.0;0.0
821;-0.10979999601840973;0.03269600123167038;0.9779520034790039;0.018543999642133713;-0.08295999467372894;1.1184959411621094;4.497499942779541;-1.0325000286102295;10.276874542236328
824;0.0;0.0;0.0;0.022447999566793442;-0.0907679945230484;1.122399926185608;0.0;0.0;0.0
826;0.0;0.0;0.0;-0.004879999905824661;-0.0634399950504303;1.1184959411621094;0.0;0.0;0.0
828;0.0;0.0;0.0;-0.01268799975514412;-0.08295999467372894;1.1311839818954468;0.0;0.0;0.0
830;-0.11760799586772919;0.050995998084545135;0.9930799603462219;0.03806399926543236;-0.0907679945230484;1.1184959411621094;5.197499752044678;-2.432500123977661;10.20687484741211
832;0.0;0.0;0.0;0.006831999868154526;-0.0634399950504303;1.1428959369659424;0.0;0.0;0.0
834;0.0;0.0;0.0;0.006831999868154526;-0.0634399950504303;1.1428959369659424;0.0;0.0;0.0
836;0.0;0.0;0.0;0.0029279999434947968;-0.05563199892640114;1.146799921989441;0.0;0.0;0.0
838;-0.1134599968791008;0.06368400156497955;1.0135760307312012;0.010735999792814255;-0.05953599885106087;1.1428959369659424;3.7274999618530273;-4.322499752044678;9.086874961853027
841;0.0;0.0;0.0;0.022447999566793442;-0.0907679945230484;1.1145919561386108;0.0;0.0;0.0
843;0.0;0.0;0.0;0.0302559994161129;-0.05172799900174141;1.1350879669189453;0.0;0.0;0.0
845;0.0;0.0;0.0;0.02635199949145317;-0.07905599474906921;1.1311839818954468;0.0;0.0;0.0
847;-0.10858000069856644;0.0651479959487915;1.0160160064697266;0.022447999566793442;-0.0634399950504303;1.122399926185608;-0.4025000035762787;-5.302499771118164;7.546875
849;0.0;0.0;0.0;0.018543999642133713;-0.07124799489974976;1.1145919561386108;0.0;0.0;0.0
851;0.0;0.0;0.0;0.04196799919009209;-0.07515199482440948;1.1145919561386108;0.0;0.0;0.0
853;0.0;0.0;0.0;0.0302559994161129;-0.05953599885106087;1.1477760076522827;0.0;0.0;0.0
855;-0.10247999429702759;0.05636399984359741;1.001863956451416;0.03415999934077263;-0.0907679945230484;1.1145919561386108;-4.602499961853027;-5.0224995613098145;5.586874961853027
858;0.0;0.0;0.0;0.02635199949145317;-0.10638399422168732;1.1272799968719482;0.0;0.0;0.0
860;0.0;0.0;0.0;0.049775999039411545;-0.0907679945230484;1.1145919561386108;0.0;0.0;0.0
862;0.0;0.0;0.0;0.03415999934077263;-0.08295999467372894;1.1145919561386108;0.0;0.0;0.0
864;-0.09857599437236786;0.04684799909591675;0.9860039949417114;0.014639999717473984;-0.05953599885106087;1.1106879711151123;-8.172499656677246;-3.4125001430511475;4.32687520980835
866;0.0;0.0;0.0;0.022447999566793442;-0.10247999429702759;1.1184959411621094;0.0;0.0;0.0
868;0.0;0.0;0.0;0.0302559994161129;-0.11028799414634705;1.1184959411621094;0.0;0.0;0.0
870;0.0;0.0;0.0;0.0302559994161129;-0.09467199444770813;1.1272799968719482;0.0;0.0;0.0
872;-0.09393999725580215;0.042211998254060745;0.986735999584198;0.02635199949145317;-0.08686399459838867;1.0901919603347778;-10.272500038146973;-1.5225000381469727;3.7668750286102295
875;0.0;0.0;0.0;0.014639999717473984;-0.08686399459838867;1.101904034614563;0.0;0.0;0.0
877;0.0;0.0;0.0;0.018543999642133713;-0.08295999467372894;1.1184959411621094;0.0;0.0;0.0
879;0.0;0.0;0.0;0.022447999566793442;-0.09467199444770813;1.126304030418396;0.0;0.0;0.0
881;-0.09418399631977081;0.03855200111865997;0.977463960647583;0.04196799919009209;-0.11419199407100677;1.097999930381775;-11.46250057220459;-1.1024999618530273;3.9068751335144043
883;0.0;0.0;0.0;0.04196799919009209;-0.08686399459838867;1.1106879711151123;0.0;0.0;0.0
885;0.0;0.0;0.0;0.02635199949145317;-0.11419199407100677;1.0940959453582764;0.0;0.0;0.0
887;0.0;0.0;0.0;0.0302559994161129;-0.12199999392032623;1.122399926185608;0.0;0.0;0.0
889;-0.08954799920320511;0.02513200044631958;0.973315954208374;0.049775999039411545;-0.12590399384498596;1.1106879711151123;-11.182499885559082;-1.5225000381469727;4.256875038146973
892;0.0;0.0;0.0;0.018543999642133713;-0.13371199369430542;1.097999930381775;0.0;0.0;0.0
894;0.0;0.0;0.0;0.045871999114751816;-0.11419199407100677;1.0784800052642822;0.0;0.0;0.0
896;0.0;0.0;0.0;0.0302559994161129;-0.1298079937696457;1.0775039196014404;0.0;0.0;0.0
898;-0.08710800111293793;0.01781199872493744;0.9618479609489441;0.049775999039411545;-0.11028799414634705;1.0823839902877808;-9.992500305175781;-2.0824999809265137;4.676875114440918
900;0.0;0.0;0.0;0.053679998964071274;-0.12590399384498596;1.0901919603347778;0.0;0.0;0.0
902;0.0;0.0;0.0;0.053679998964071274;-0.12590399384498596;1.0579839944839478;0.0;0.0;0.0
904;0.0;0.0;0.0;0.03415999934077263;-0.13761599361896515;1.0696959495544434;0.0;0.0;0.0
906;-0.0802759975194931;0.00951599981635809;0.9486719965934753;0.049775999039411545;-0.12199999392032623;1.0940959453582764;-7.402500152587891;-2.572499990463257;4.886875152587891
909;0.0;0.0;0.0;0.04196799919009209;-0.13371199369430542;1.0901919603347778;0.0;0.0;0.0
911;0.0;0.0;0.0;0.053679998964071274;-0.13761599361896515;1.0784800052642822;0.0;0.0;0.0
913;0.0;0.0;0.0;0.03415999934077263;-0.12590399384498596;1.0784800052642822;0.0;0.0;0.0
915;-0.07685999572277069;0.010003999806940556;0.9464759826660156;0.03415999934077263;-0.09857599437236786;1.0901919603347778;-4.112500190734863;-2.9225001335144043;5.726875305175781
917;0.0;0.0;0.0;0.06148799881339073;-0.09467199444770813;1.0862879753112793;0.0;0.0;0.0
919;0.0;0.0;0.0;0.045871999114751816;-0.1298079937696457;1.0657919645309448;0.0;0.0;0.0
921;0.0;0.0;0.0;0.018543999642133713;-0.09467199444770813;1.0618879795074463;0.0;0.0;0.0
923;-0.0773480013012886;0.02122800052165985;0.9491599798202515;0.03415999934077263;-0.10638399422168732;1.0784800052642822;-1.1725000143051147;-3.202500104904175;6.916874885559082
926;0.0;0.0;0.0;0.04196799919009209;-0.09467199444770813;1.0901919603347778;0.0;0.0;0.0
928;0.0;0.0;0.0;0.06148799881339073;-0.10638399422168732;1.097999930381775;0.0;0.0;0.0
930;0.0;0.0;0.0;0.04196799919009209;-0.09467199444770813;1.0901919603347778;0.0;0.0;0.0
932;-0.07832399755716324;0.03562399744987488;0.9706319570541382;0.0302559994161129;-0.07905599474906921;1.1311839818954468;0.22750000655651093;-3.9024999141693115;7.056875228881836
934;0.0;0.0;0.0;0.045871999114751816;-0.07515199482440948;1.122399926185608;0.0;0.0;0.0
936;0.0;0.0;0.0;0.03806399926543236;-0.08686399459838867;1.122399926185608;0.0;0.0;0.0
938;0.0;0.0;0.0;0.053679998964071274;-0.09857599437236786;1.1428959369659424;0.0;0.0;0.0
940;-0.07075999677181244;0.05270399898290634;1.0030839443206787;0.06148799881339073;-0.07515199482440948;1.1350879669189453;-0.9625000357627869;-5.302499771118164;7.126874923706055
943;0.0;0.0;0.0;0.09662400186061859;-0.09467199444770813;1.1350879669189453;0.0;0.0;0.0
945;0.0;0.0;0.0;0.08881600201129913;-0.0907679945230484;1.126304030418396;0.0;0.0;0.0
947;0.0;0.0;0.0;0.0878399983048439;-0.10247999429702759;1.1311839818954468;0.0;0.0;0.0
949;-0.04513999819755554;0.04172400012612343;0.9979599714279175;0.049775999039411545;-0.10247999429702759;1.1058080196380615;-4.392499923706055;-6.702499866485596;7.476875305175781
951;0.0;0.0;0.0;0.049775999039411545;-0.07905599474906921;1.097999930381775;0.0;0.0;0.0
953;0.0;0.0;0.0;0.07710400223731995;-0.07515199482440948;1.1175199747085571;0.0;0.0;0.0
955;0.0;0.0;0.0;0.04196799919009209;-0.10247999429702759;1.1136159896850586;0.0;0.0;0.0
957;-0.06148799881339073;0.040748000144958496;0.9796599745750427;0.09662400186061859;-0.07905599474906921;1.101904034614563;-7.262500286102295;-5.932499885559082;6.426875114440918
960;0.0;0.0;0.0;0.0849120020866394;-0.08686399459838867;1.101904034614563;0.0;0.0;0.0
962;0.0;0.0;0.0;0.057583998888731;-0.09857599437236786;1.1136159896850586;0.0;0.0;0.0
964;0.0;0.0;0.0;0.049775999039411545;-0.10247999429702759;1.060912013053894;0.0;0.0;0.0
966;-0.05709599703550339;0.032207999378442764;0.9674599766731262;0.057583998888731;-0.09467199444770813;1.0775039196014404;-9.502500534057617;-7.122499942779541;5.236875057220459
968;0.0;0.0;0.0;0.115167997777462;-0.10638399422168732;1.0970239639282227;0.0;0.0;0.0
970;0.0;0.0;0.0;0.10735999792814255;-0.11419199407100677;1.0687199831008911;0.0;0.0;0.0
972;0.0;0.0;0.0;0.13078400492668152;-0.1298079937696457;1.097999930381775;0.0;0.0;0.0
974;-0.02025200054049492;0.01439599972218275;0.9491599798202515;0.10735999792814255;-0.13371199369430542;1.0892159938812256;-10.342499732971191;-5.582499980926514;6.07687520980835
977;0.0;0.0;0.0;0.09662400186061859;-0.1298079937696457;1.0648159980773926;0.0;0.0;0.0
979;0.0;0.0;0.0;0.08881600201129913;-0.13761599361896515;1.0648159980773926;0.0;0.0;0.0
981;0.0;0.0;0.0;0.09272000193595886;-0.11028799414634705;1.0814080238342285;0.0;0.0;0.0
983;-0.02635199949145317;0.004635999910533428;0.9550159573554993;0.07320000231266022;-0.1454239934682846;1.0931199789047241;-9.15250015258789;1.6974999904632568;8.596874237060547
985;0.0;0.0;0.0;0.07320000231266022;-0.11419199407100677;1.0901919603347778;0.0;0.0;0.0
987;0.0;0.0;0.0;0.07710400223731995;-0.12590399384498596;1.1184959411621094;0.0;0.0;0.0
989;0.0;0.0;0.0;0.0302559994161129;-0.13761599361896515;1.0940959453582764;0.0;0.0;0.0
991;-0.07124799489974976;0.00317199993878603;0.9767319560050964;0.018543999642133713;-0.12590399384498596;1.1106879711151123;-5.932499885559082;7.017500400543213;10.766874313354492
994;0.0;0.0;0.0;0.018543999642133713;-0.11028799414634705;1.1184959411621094;0.0;0.0;0.0
996;0.0;0.0;0.0;-0.032207999378442764;-0.10638399422168732;1.1067839860916138;0.0;0.0;0.0
998;0.0;0.0;0.0;0.006831999868154526;-0.13371199369430542;1.1350879669189453;0.0;0.0;0.0
1000;-0.1163880005478859;0.012443999759852886;0.9952759742736816;0.006831999868154526;-0.13761599361896515;1.1428959369659424;-2.3625001907348633;5.757500171661377;11.746874809265137
1002;0.0;0.0;0.0;-0.004879999905824661;-0.12199999392032623;1.1428959369659424;0.0;0.0;0.0
1004;0.0;0.0;0.0;0.018543999642133713;-0.1180959939956665;1.1184959411621094;0.0;0.0;0.0
1006;0.0;0.0;0.0;0.018543999642133713;-0.10638399422168732;1.1516799926757812;0.0;0.0;0.0
1008;-0.11980399489402771;0.018300000578165054;1.0089399814605713;0.010735999792814255;-0.1180959939956665;1.1311839818954468;-0.4724999964237213;-0.6825000047683716;12.516874313354492
1011;0.0;0.0;0.0;0.022447999566793442;-0.12199999392032623;1.1389919519424438;0.0;0.0;0.0
1013;0.0;0.0;0.0;0.03415999934077263;-0.09857599437236786;1.1350879669189453;0.0;0.0;0.0
1015;0.0;0.0;0.0;0.04196799919009209;-0.1298079937696457;1.1272799968719482;0.0;0.0;0.0
1017;-0.08735200017690659;0.019519999623298645;1.0040600299835205;0.07320000231266022;-0.12590399384498596;1.1428959369659424;0.5774999856948853;-5.162499904632568;12.166874885559082
1019;0.0;0.0;0.0;0.0302559994161129;-0.09467199444770813;1.1184959411621094;0.0;0.0;0.0
1021;0.0;0.0;0.0;0.06539200246334076;-0.1298079937696457;1.1311839818954468;0.0;0.0;0.0
1023;0.0;0.0;0.0;0.057583998888731;-0.09467199444770813;1.1350879669189453;0.0;0.0;0.0
1025;-0.062219999730587006;0.016835998743772507;1.001863956451416;0.08100800216197968;-0.11028799414634705;1.1067839860916138;0.1574999988079071;-4.462499618530273;11.39687442779541
1028;0.0;0.0;0.0;0.0302559994161129;-0.11419199407100677;1.1350879669189453;0.0;0.0;0.0
1030;0.0;0.0;0.0;0.022447999566793442;-0.0907679945230484;1.1311839818954468;0.0;0.0;0.0
1032;0.0;0.0;0.0;0.03806399926543236;-0.11028799414634705;1.122399926185608;0.0;0.0;0.0
1034;-0.07588399946689606;0.029523998498916626;0.9989359974861145;0.03806399926543236;-0.1180959939956665;1.1389919519424438;-0.6825000047683716;-1.4524999856948853;9.436874389648438
1036;0.0;0.0;0.0;0.02635199949145317;-0.10247999429702759;1.1516799926757812;0.0;0.0;0.0
1038;0.0;0.0;0.0;0.049775999039411545;-0.09467199444770813;1.1184959411621094;0.0;0.0;0.0
1040;0.0;0.0;0.0;0.07320000231266022;-0.11419199407100677;1.1311839818954468;0.0;0.0;0.0
1042;-0.06905199587345123;0.02659599855542183;1.0072319507598877;0.057583998888731;-0.12590399384498596;1.1311839818954468;-2.7825000286102295;-2.7825000286102295;8.316874504089355
1045;0.0;0.0;0.0;0.057583998888731;-0.09857599437236786;1.1184959411621094;0.0;0.0;0.0
1047;0.0;0.0;0.0;0.06148799881339073;-0.12199999392032623;1.1311839818954468;0.0;0.0;0.0
1049;0.0;0.0;0.0;0.07710400223731995;-0.11028799414634705;1.1145919561386108;0.0;0.0;0.0
1051;-0.046115998178720474;0.019519999623298645;0.9928359985351562;0.0849120020866394;-0.1180959939956665;1.1145919561386108;-3.202500104904175;-3.3424999713897705;7.896874904632568
1053;0.0;0.0;0.0;0.06929600238800049;-0.0907679945230484;1.1106879711151123;0.0;0.0;0.0
1055;0.0;0.0;0.0;0.07320000231266022;-0.11028799414634705;1.122399926185608;0.0;0.0;0.0
1057;0.0;0.0;0.0;0.06929600238800049;-0.11028799414634705;1.097999930381775;0.0;0.0;0.0
1059;-0.048555999994277954;0.012931999750435352;0.9840520024299622;0.08881600201129913;-0.1180959939956665;1.1067839860916138;-2.572499990463257;-1.8025000095367432;7.546875
1062;0.0;0.0;0.0;0.06148799881339073;-0.10638399422168732;1.097999930381775;0.0;0.0;0.0
1064;0.0;0.0;0.0;0.06148799881339073;-0.11028799414634705;1.0823839902877808;0.0;0.0;0.0
1066;0.0;0.0;0.0;0.057583998888731;-0.12590399384498596;1.1067839860916138;0.0;0.0;0.0
1068;-0.05929199978709221;0.011711999773979187;0.9718520045280457;0.04196799919009209;-0.12199999392032623;1.0940959453582764;-1.522499918937683;-0.7524999976158142;7.616875171661377
1070;0.0;0.0;0.0;0.049775999039411545;-0.1298079937696457;1.101904034614563;0.0;0.0;0.0
1072;0.0;0.0;0.0;0.03415999934077263;-0.11419199407100677;1.0687199831008911;0.0;0.0;0.0
1074;0.0;0.0;0.0;0.06539200246334076;-0.11028799414634705;1.085312008857727;0.0;0.0;0.0
1076;-0.07441999763250351;0.024887999519705772;0.9674599766731262;0.06831999868154526;-0.09467199444770813;1.10971200466156;0.017500000074505806;-0.05250000208616257;8.036874771118164
1079;0.0;0.0;0.0;0.06929600238800049;-0.09857599437236786;1.101904034614563;0.0;0.0;0.0
1081;0.0;0.0;0.0;0.03415999934077263;-0.09857599437236786;1.1058080196380615;0.0;0.0;0.0
1083;0.0;0.0;0.0;0.045871999114751816;-0.0634399950504303;1.0931199789047241;0.0;0.0;0.0
1085;-0.08247199654579163;0.04513999819755554;0.9679479598999023;0.045871999114751816;-0.06734399497509003;1.1136159896850586;0.9275000095367432;0.017499998211860657;8.666874885559082
1087;0.0;0.0;0.0;0.04196799919009209;-0.07124799489974976;1.0823839902877808;0.0;0.0;0.0
1089;0.0;0.0;0.0;0.049775999039411545;-0.08295999467372894;1.1145919561386108;0.0;0.0;0.0
1091;0.0;0.0;0.0;0.0302559994161129;-0.07124799489974976;1.097999930381775;0.0;0.0;0.0
1093;-0.09442799538373947;0.06417199969291687;0.9755119681358337;0.04196799919009209;-0.06734399497509003;1.1106879711151123;1.2075001001358032;0.3675000071525574;9.086874961853027
1096;0.0;0.0;0.0;0.014639999717473984;-0.07515199482440948;1.1067839860916138;0.0;0.0;0.0
1098;0.0;0.0;0.0;0.049775999039411545;-0.07515199482440948;1.097999930381775;0.0;0.0;0.0
1100;0.0;0.0;0.0;0.0302559994161129;-0.04782399907708168;1.0940959453582764;0.0;0.0;0.0
1102;-0.07905599474906921;0.0727119967341423;0.9808799624443054;0.07710400223731995;-0.07124799489974976;1.1067839860916138;2.257499933242798;-0.6825000047683716;9.64687442779541
1104;0.0;0.0;0.0;0.049775999039411545;-0.07515199482440948;1.1145919561386108;0.0;0.0;0.0
1106;0.0;0.0;0.0;0.049775999039411545;-0.04782399907708168;1.1184959411621094;0.0;0.0;0.0
1108;0.0;0.0;0.0;0.045871999114751816;-0.08686399459838867;1.101904034614563;0.0;0.0;0.0
1110;-0.062463998794555664;0.07246799767017365;0.9852719902992249;0.06929600238800049;-0.04001599922776222;1.1145919561386108;3.0974998474121094;-1.1024999618530273;10.766874313354492
1113;0.0;0.0;0.0;0.08100800216197968;-0.07515199482440948;1.1106879711151123;0.0;0.0;0.0
1115;0.0;0.0;0.0;0.06148799881339073;-0.024399999529123306;1.097999930381775;0.0;0.0;0.0
1117;0.0;0.0;0.0;0.04196799919009209;-0.0634399950504303;1.097999930381775;0.0;0.0;0.0
1119;-0.054655998945236206;0.07222399860620499;0.9835639595985413;0.06148799881339073;-0.07905599474906921;1.0940959453582764;3.9375;-1.8725000619888306;12.096874237060547
1121;0.0;0.0;0.0;0.06929600238800049;-0.06734399497509003;1.0823839902877808;0.0;0.0;0.0
1123;0.0;0.0;0.0;0.06539200246334076;-0.07905599474906921;1.0862879753112793;0.0;0.0;0.0
1125;0.0;0.0;0.0;0.08881600201129913;-0.06734399497509003;1.101904034614563;0.0;0.0;0.0
1128;-0.05075199902057648;0.06368400156497955;0.9694119691848755;0.08100800216197968;-0.07905599474906921;1.0775039196014404;4.497499942779541;-3.692500114440918;13.356874465942383
1130;0.0;0.0;0.0;0.0849120020866394;-0.04001599922776222;1.101904034614563;0.0;0.0;0.0
1132;0.0;0.0;0.0;0.06539200246334076;-0.05563199892640114;1.101904034614563;0.0;0.0;0.0
1134;0.0;0.0;0.0;0.06148799881339073;-0.0634399950504303;1.0823839902877808;0.0;0.0;0.0
1136;-0.04758000001311302;0.0634399950504303;0.9598959684371948;0.06929600238800049;-0.05953599885106087;1.097999930381775;4.847499847412109;-3.3424999713897705;13.70687484741211
1138;0.0;0.0;0.0;0.07710400223731995;-0.05563199892640114;1.0901919603347778;0.0;0.0;0.0
1140;0.0;0.0;0.0;0.07710400223731995;-0.04391999915242195;1.1028800010681152;0.0;0.0;0.0
1142;0.0;0.0;0.0;0.022447999566793442;-0.01659199967980385;1.1106879711151123;0.0;0.0;0.0
1145;-0.07515199482440948;0.08735200017690659;0.9706319570541382;0.045871999114751816;-0.01659199967980385;1.1145919561386108;4.427499771118164;-0.26250001788139343;13.636874198913574
1147;0.0;0.0;0.0;0.018543999642133713;-0.024399999529123306;1.101904034614563;0.0;0.0;0.0
1149;0.0;0.0;0.0;0.03806399926543236;-0.004879999905824661;1.1028800010681152;0.0;0.0;0.0
1151;0.0;0.0;0.0;0.014639999717473984;-0.032207999378442764;1.1106879711151123;0.0;0.0;0.0
1153;-0.10101599991321564;0.11736399680376053;0.9811239838600159;0.02635199949145317;-0.00878399983048439;1.1184959411621094;3.0274999141693115;0.08749999850988388;12.936874389648438
1155;0.0;0.0;0.0;0.03415999934077263;-0.004879999905824661;1.1302080154418945;0.0;0.0;0.0
1157;0.0;0.0;0.0;0.049775999039411545;-0.05172799900174141;1.1145919561386108;0.0;0.0;0.0
1159;0.0;0.0;0.0;0.03415999934077263;-0.0009759999811649323;1.1067839860916138;0.0;0.0;0.0
1162;-0.08100800216197968;0.12468399852514267;0.9781959652900696;0.045871999114751816;-0.032207999378442764;1.097999930381775;1.627500057220459;-1.0325000286102295;14.89687442779541
1164;0.0;0.0;0.0;0.014639999717473984;-0.028303999453783035;1.097999930381775;0.0;0.0;0.0
1166;0.0;0.0;0.0;0.03415999934077263;-0.01268799975514412;1.0940959453582764;0.0;0.0;0.0
1168;0.0;0.0;0.0;0.03806399926543236;-0.020495999604463577;1.1350879669189453;0.0;0.0;0.0
1170;-0.08393599838018417;0.1210239976644516;0.9811239838600159;0.0029279999434947968;-0.01659199967980385;1.1058080196380615;1.2075001001358032;1.1375000476837158;16.716875076293945
1172;0.0;0.0;0.0;0.010735999792814255;-0.01659199967980385;1.1067839860916138;0.0;0.0;0.0
1174;0.0;0.0;0.0;0.0029279999434947968;-0.05172799900174141;1.1067839860916138;0.0;0.0;0.0
1176;0.0;0.0;0.0;0.014639999717473984;-0.03611199930310249;1.1184959411621094;0.0;0.0;0.0
1179;-0.10199199616909027;0.10565199702978134;0.977463960647583;-0.0009759999811649323;-0.04001599922776222;1.0696959495544434;0.4375000298023224;1.627500057220459;18.606876373291016
1181;0.0;0.0;0.0;0.02635199949145317;-0.028303999453783035;1.101904034614563;0.0;0.0;0.0
1183;0.0;0.0;0.0;0.018543999642133713;-0.032207999378442764;1.0901919603347778;0.0;0.0;0.0
1185;0.0;0.0;0.0;0.03806399926543236;-0.04001599922776222;1.0823839902877808;0.0;0.0;0.0
1187;-0.11297199875116348;0.09491600096225739;0.9735599756240845;0.014639999717473984;-0.04391999915242195;1.0940959453582764;0.08749999850988388;0.017499998211860657;19.796875
1189;0.0;0.0;0.0;0.0302559994161129;-0.05563199892640114;1.101904034614563;0.0;0.0;0.0
1191;0.0;0.0;0.0;0.014639999717473984;-0.0634399950504303;1.1067839860916138;0.0;0.0;0.0
1193;0.0;0.0;0.0;0.04196799919009209;-0.07124799489974976;1.1184959411621094;0.0;0.0;0.0
1196;-0.09223199635744095;0.07807999849319458;0.9779520034790039;0.049775999039411545;-0.07124799489974976;1.0618879795074463;-0.05250000208616257;-2.0824999809265137;20.076875686645508
1198;0.0;0.0;0.0;0.04196799919009209;-0.05953599885106087;1.0775039196014404;0.0;0.0;0.0
1200;0.0;0.0;0.0;0.053679998964071274;-0.05172799900174141;1.1067839860916138;0.0;0.0;0.0
1202;0.0;0.0;0.0;0.04196799919009209;-0.06734399497509003;1.1145919561386108;0.0;0.0;0.0
1204;-0.07807999849319458;0.07197999954223633;0.9791719913482666;0.03415999934077263;-0.05563199892640114;1.1106879711151123;-0.7524999976158142;-2.012500047683716;19.656875610351562
1206;0.0;0.0;0.0;0.053679998964071274;-0.05563199892640114;1.1067839860916138;0.0;0.0;0.0
1208;0.0;0.0;0.0;0.02635199949145317;-0.05953599885106087;1.1272799968719482;0.0;0.0;0.0
1210;0.0;0.0;0.0;0.057583998888731;-0.04001599922776222;1.097999930381775;0.0;0.0;0.0
1213;-0.0849120020866394;0.07612799853086472;0.986735999584198;0.045871999114751816;-0.04001599922776222;1.122399926185608;-2.572499990463257;-0.7524999976158142;19.1668758392334
1215;0.0;0.0;0.0;0.04196799919009209;-0.05953599885106087;1.1184959411621094;0.0;0.0;0.0
1217;0.0;0.0;0.0;0.03806399926543236;-0.03611199930310249;1.122399926185608;0.0;0.0;0.0
1219;0.0;0.0;0.0;0.03415999934077263;-0.04391999915242195;1.1184959411621094;0.0;0.0;0.0
1221;-0.08661999553442001;0.07978799939155579;0.9977160096168518;0.03806399926543236;-0.06734399497509003;1.122399926185608;-4.742500305175781;-0.05250000208616257;18.25687599182129
1223;0.0;0.0;0.0;0.057583998888731;-0.04001599922776222;1.1184959411621094;0.0;0.0;0.0
1225;0.0;0.0;0.0;0.04196799919009209;-0.028303999453783035;1.126304030418396;0.0;0.0;0.0
1227;0.0;0.0;0.0;0.045871999114751816;-0.05172799900174141;1.1428959369659424;0.0;0.0;0.0
1230;-0.08686399459838867;0.07490799576044083;0.9979599714279175;0.045871999114751816;-0.06734399497509003;1.1184959411621094;-6.352499961853027;0.4375;18.046875
1232;0.0;0.0;0.0;0.022447999566793442;-0.04391999915242195;1.1428959369659424;0.0;0.0;0.0
1234;0.0;0.0;0.0;0.03806399926543236;-0.07124799489974976;1.122399926185608;0.0;0.0;0.0
1236;0.0;0.0;0.0;0.03415999934077263;-0.07905599474906921;1.1184959411621094;0.0;0.0;0.0
1238;-0.10272400081157684;0.05904799699783325;1.0030839443206787;0.014639999717473984;-0.0634399950504303;1.1350879669189453;-6.142499923706055;0.4375;19.86687469482422
1240;0.0;0.0;0.0;0.006831999868154526;-0.10247999429702759;1.146799921989441;0.0;0.0;0.0
1242;0.0;0.0;0.0;-0.004879999905824661;-0.08295999467372894;1.1555839776992798;0.0;0.0;0.0
1244;0.0;0.0;0.0;-0.01268799975514412;-0.08295999467372894;1.1546080112457275;0.0;0.0;0.0
1247;-0.12224400043487549;0.05148399993777275;1.0157719850540161;0.006831999868154526;-0.0907679945230484;1.1633919477462769;-4.532500267028809;-0.9625000357627869;21.336875915527344
1249;0.0;0.0;0.0;-0.004879999905824661;-0.08686399459838867;1.1672959327697754;0.0;0.0;0.0
1251;0.0;0.0;0.0;0.0029279999434947968;-0.09857599437236786;1.1721760034561157;0.0;0.0;0.0
1253;0.0;0.0;0.0;-0.024399999529123306;-0.11419199407100677;1.1477760076522827;0.0;0.0;0.0
1255;-0.11858399957418442;0.035868000239133835;1.0230920314788818;0.018543999642133713;-0.10247999429702759;1.1428959369659424;-2.432500123977661;-3.622499942779541;21.826875686645508
1257;0.0;0.0;0.0;0.014639999717473984;-0.07124799489974976;1.1633919477462769;0.0;0.0;0.0
1259;0.0;0.0;0.0;0.0302559994161129;-0.1180959939956665;1.1594879627227783;0.0;0.0;0.0
1261;0.0;0.0;0.0;0.02635199949145317;-0.12199999392032623;1.1428959369659424;0.0;0.0;0.0
1264;-0.10199199616909027;0.020739998668432236;1.0213840007781982;0.04196799919009209;-0.12590399384498596;1.1350879669189453;-0.26249998807907104;-5.722499847412109;21.966875076293945
1266;0.0;0.0;0.0;0.045871999114751816;-0.12199999392032623;1.1633919477462769;0.0;0.0;0.0
1268;0.0;0.0;0.0;0.049775999039411545;-0.17665599286556244;1.1594879627227783;0.0;0.0;0.0
1270;0.0;0.0;0.0;0.053679998964071274;-0.12590399384498596;1.1516799926757812;0.0;0.0;0.0
1272;-0.08100800216197968;0.0029279999434947968;1.018455982208252;0.03806399926543236;-0.13371199369430542;1.1672959327697754;1.8375000953674316;-5.862499713897705;22.246875762939453
1274;0.0;0.0;0.0;0.022447999566793442;-0.13761599361896515;1.126304030418396;0.0;0.0;0.0
1276;0.0;0.0;0.0;0.022447999566793442;-0.1180959939956665;1.1721760034561157;0.0;0.0;0.0
1278;0.0;0.0;0.0;0.057583998888731;-0.13371199369430542;1.1672959327697754;0.0;0.0;0.0
1281;-0.08661999553442001;-0.0024399999529123306;1.02211594581604;0.06539200246334076;-0.11419199407100677;1.1389919519424438;3.307499885559082;-4.952499866485596;21.826875686645508
1283;0.0;0.0;0.0;0.022447999566793442;-0.1298079937696457;1.1516799926757812;0.0;0.0;0.0
1285;0.0;0.0;0.0;0.022447999566793442;-0.1298079937696457;1.1633919477462769;0.0;0.0;0.0
1287;0.0;0.0;0.0;0.049775999039411545;-0.12590399384498596;1.146799921989441;0.0;0.0;0.0
1289;-0.08759599924087524;-0.003903999924659729;1.022603988647461;0.02635199949145317;-0.14932799339294434;1.146799921989441;3.377500057220459;-5.792500019073486;20.496875762939453
1291;0.0;0.0;0.0;0.06929600238800049;-0.1298079937696457;1.1516799926757812;0.0;0.0;0.0
1293;0.0;0.0;0.0;0.010735999792814255;-0.12199999392032623;1.1516799926757812;0.0;0.0;0.0
1295;0.0;0.0;0.0;0.04196799919009209;-0.1298079937696457;1.150704026222229;0.0;0.0;0.0
1298;-0.0802759975194931;-0.006099999882280827;1.0287039279937744;0.06929600238800049;-0.14151999354362488;1.1633919477462769;1.977500081062317;-7.612499713897705;19.236875534057617
1300;0.0;0.0;0.0;0.03806399926543236;-0.14932799339294434;1.1672959327697754;0.0;0.0;0.0
1302;0.0;0.0;0.0;0.045871999114751816;-0.14151999354362488;1.1311839818954468;0.0;0.0;0.0
1304;0.0;0.0;0.0;0.07710400223731995;-0.16494399309158325;1.1555839776992798;0.0;0.0;0.0
1306;-0.06734399497509003;-0.011467999778687954;1.0265079736709595;0.04196799919009209;-0.14932799339294434;1.1311839818954468;-0.33249998092651367;-7.332499980926514;17.486875534057617
1308;0.0;0.0;0.0;0.0849120020866394;-0.16494399309158325;1.1516799926757812;0.0;0.0;0.0
1310;0.0;0.0;0.0;0.053679998964071274;-0.1454239934682846;1.1555839776992798;0.0;0.0;0.0
1312;0.0;0.0;0.0;0.08881600201129913;-0.1571359932422638;1.1428959369659424;0.0;0.0;0.0
1315;-0.06173199787735939;-0.00878399983048439;1.017967939376831;0.045871999114751816;-0.12590399384498596;1.1350879669189453;-2.3625001907348633;-4.952499866485596;15.45687484741211
1317;0.0;0.0;0.0;0.06148799881339073;-0.13371199369430542;1.1389919519424438;0.0;0.0;0.0
1319;0.0;0.0;0.0;0.057583998888731;-0.13761599361896515;1.1311839818954468;0.0;0.0;0.0
1321;0.0;0.0;0.0;0.04196799919009209;-0.13761599361896515;1.1145919561386108;0.0;0.0;0.0
1323;-0.0663679987192154;-0.007807999849319458;1.0047919750213623;0.06148799881339073;-0.15323199331760406;1.122399926185608;-3.762500047683716;-2.992500066757202;14.05687427520752
1325;0.0;0.0;0.0;0.04196799919009209;-0.1298079937696457;1.1389919519424438;0.0;0.0;0.0
1327;0.0;0.0;0.0;0.045871999114751816;-0.1571359932422638;1.1106879711151123;0.0;0.0;0.0
1329;0.0;0.0;0.0;0.07320000231266022;-0.12199999392032623;1.126304030418396;0.0;0.0;0.0
1332;-0.06002400070428848;-0.0024399999529123306;0.98990797996521;0.08881600201129913;-0.1454239934682846;1.0901919603347778;-3.3425002098083496;-3.132499933242798;13.916874885559082
1334;0.0;0.0;0.0;0.0849120020866394;-0.1180959939956665;1.122399926185608;0.0;0.0;0.0
1336;0.0;0.0;0.0;0.07320000231266022;-0.1298079937696457;1.1145919561386108;0.0;0.0;0.0
1338;0.0;0.0;0.0;0.06539200246334076;-0.12199999392032623;1.0823839902877808;0.0;0.0;0.0
1340;-0.04660400003194809;0.00024399999529123306;0.9799039959907532;0.07320000231266022;-0.11028799414634705;1.1311839818954468;-1.2424999475479126;-3.8324999809265137;15.106874465942383
1342;0.0;0.0;0.0;0.07320000231266022;-0.13761599361896515;1.0931199789047241;0.0;0.0;0.0
1344;0.0;0.0;0.0;0.049775999039411545;-0.14151999354362488;1.1136159896850586;0.0;0.0;0.0
1347;0.0;0.0;0.0;0.07320000231266022;-0.14932799339294434;1.1136159896850586;0.0;0.0;0.0
1349;-0.04172400012612343;0.0004879999905824661;0.982587993144989;0.057583998888731;-0.13761599361896515;1.0931199789047241;0.7874999642372131;-3.4825000762939453;16.156875610351562
1351;0.0;0.0;0.0;0.06148799881339073;-0.14932799339294434;1.1136159896850586;0.0;0.0;0.0
1353;0.0;0.0;0.0;0.08881600201129913;-0.14932799339294434;1.126304030418396;0.0;0.0;0.0
1355;0.0;0.0;0.0;0.049775999039411545;-0.14932799339294434;1.0931199789047241;0.0;0.0;0.0
1357;-0.04562800005078316;-0.005367999896407127;0.9779520034790039;0.06539200246334076;-0.12199999392032623;1.1302080154418945;1.4875000715255737;-2.6424999237060547;16.086875915527344
1359;0.0;0.0;0.0;0.057583998888731;-0.14932799339294434;1.1067839860916138;0.0;0.0;0.0
1361;0.0;0.0;0.0;0.07710400223731995;-0.1727519929409027;1.1067839860916138;0.0;0.0;0.0
1364;0.0;0.0;0.0;0.07320000231266022;-0.12590399384498596;1.101904034614563;0.0;0.0;0.0
1366;-0.04270000010728836;-0.006099999882280827;0.9752680063247681;0.07710400223731995;-0.14932799339294434;1.1058080196380615;1.4875000715255737;-1.662500023841858;14.686874389648438
1368;0.0;0.0;0.0;0.06148799881339073;-0.12199999392032623;1.0940959453582764;0.0;0.0;0.0
1370;0.0;0.0;0.0;0.06539200246334076;-0.1571359932422638;1.0940959453582764;0.0;0.0;0.0
1372;0.0;0.0;0.0;0.06539200246334076;-0.16103999316692352;1.097999930381775;0.0;0.0;0.0
1374;-0.04318799823522568;-0.003415999934077263;0.9745360016822815;0.09272000193595886;-0.14932799339294434;1.1067839860916138;0.9975000023841858;-0.612500011920929;13.14687442779541
1376;0.0;0.0;0.0;0.06929600238800049;-0.11028799414634705;1.1145919561386108;0.0;0.0;0.0
1378;0.0;0.0;0.0;0.06929600238800049;-0.11028799414634705;1.1184959411621094;0.0;0.0;0.0
1381;0.0;0.0;0.0;0.057583998888731;-0.11028799414634705;1.1184959411621094;0.0;0.0;0.0
1383;-0.04391999915242195;0.0056119998916983604;0.9769759774208069;0.0849120020866394;-0.12199999392032623;1.0901919603347778;0.7874999642372131;0.1574999988079071;12.096874237060547
1385;0.0;0.0;0.0;0.06539200246334076;-0.12199999392032623;1.1184959411621094;0.0;0.0;0.0
1387;0.0;0.0;0.0;0.057583998888731;-0.09467199444770813;1.101904034614563;0.0;0.0;0.0
1389;0.0;0.0;0.0;0.06929600238800049;-0.08686399459838867;1.097999930381775;0.0;0.0;0.0
1391;-0.05416800081729889;0.02000799961388111;0.9777079820632935;0.06929600238800049;-0.09467199444770813;1.0940959453582764;0.22750000655651093;0.4375;11.886874198913574
1393;0.0;0.0;0.0;0.0605119988322258;-0.0936959981918335;1.0775039196014404;0.0;0.0;0.0
1395;0.0;0.0;0.0;0.06831999868154526;-0.09759999811649323;1.0940959453582764;0.0;0.0;0.0
1398;0.0;0.0;0.0;0.044895999133586884;-0.10540799796581268;1.1028800010681152;0.0;0.0;0.0
1400;-0.06002400070428848;0.026839999482035637;0.9674599766731262;0.08003199845552444;-0.09759999811649323;1.073599934577942;0.3675000071525574;-0.4025000035762787;12.726874351501465
1402;0.0;0.0;0.0;0.044895999133586884;-0.08979199826717377;1.0862879753112793;0.0;0.0;0.0
1404;0.0;0.0;0.0;0.08003199845552444;-0.09759999811649323;1.0862879753112793;0.0;0.0;0.0
1406;0.0;0.0;0.0;0.08393599838018417;-0.07807999849319458;1.0940959453582764;0.0;0.0;0.0
1408;-0.05831599980592728;0.03611199930310249;0.9608719944953918;0.05270399898290634;-0.11321599781513214;1.0618879795074463;1.4875000715255737;-2.1524999141693115;13.496874809265137
1410;0.0;0.0;0.0;0.10345599800348282;-0.08295999467372894;1.0823839902877808;0.0;0.0;0.0
1412;0.0;0.0;0.0;0.07320000231266022;-0.09467199444770813;1.0657919645309448;0.0;0.0;0.0
1415;0.0;0.0;0.0;0.057583998888731;-0.0907679945230484;1.0823839902877808;0.0;0.0;0.0
1417;-0.047335997223854065;0.04270000010728836;0.9594079852104187;0.06929600238800049;-0.0634399950504303;1.0775039196014404;2.4674999713897705;-3.8324999809265137;14.196874618530273
1419;0.0;0.0;0.0;0.10735999792814255;-0.08295999467372894;1.0862879753112793;0.0;0.0;0.0
1421;0.0;0.0;0.0;0.10345599800348282;-0.09467199444770813;1.0823839902877808;0.0;0.0;0.0
1423;0.0;0.0;0.0;0.06539200246334076;-0.09467199444770813;1.1028800010681152;0.0;0.0;0.0
1425;-0.03391600027680397;0.04416399821639061;0.9606279730796814;0.07710400223731995;-0.10247999429702759;1.097999930381775;2.3975000381469727;-5.0224995613098145;14.89687442779541
1427;0.0;0.0;0.0;0.09564799815416336;-0.10931199789047241;1.0862879753112793;0.0;0.0;0.0
1429;0.0;0.0;0.0;0.0878399983048439;-0.07807999849319458;1.097999930381775;0.0;0.0;0.0
1432;0.0;0.0;0.0;0.1180959939956665;-0.0936959981918335;1.0940959453582764;0.0;0.0;0.0
1434;-0.01634800061583519;0.0348920002579689;0.9635559916496277;0.12590399384498596;-0.12883199751377106;1.097999930381775;1.0674999952316284;-4.8125;15.386874198913574
1436;0.0;0.0;0.0;0.1180959939956665;-0.11321599781513214;1.0940959453582764;0.0;0.0;0.0
1438;0.0;0.0;0.0;0.10345599800348282;-0.11321599781513214;1.0696959495544434;0.0;0.0;0.0
1440;0.0;0.0;0.0;0.09564799815416336;-0.0936959981918335;1.097999930381775;0.0;0.0;0.0
1442;-0.01659199967980385;0.017079999670386314;0.9728279709815979;0.10735999792814255;-0.1483519971370697;1.1145919561386108;-0.4025000035762787;-2.0824999809265137;15.80687427520752
1444;0.0;0.0;0.0;0.11126399785280228;-0.1298079937696457;1.122399926185608;0.0;0.0;0.0
1446;0.0;0.0;0.0;0.09272000193595886;-0.12590399384498596;1.0940959453582764;0.0;0.0;0.0
1449;0.0;0.0;0.0;0.09955199807882309;-0.13371199369430542;1.1145919561386108;0.0;0.0;0.0
1451;-0.03391600027680397;-0.0021959999576210976;0.9779520034790039;0.06539200246334076;-0.1454239934682846;1.0940959453582764;-1.4524999856948853;0.9275000095367432;15.246874809265137
1453;0.0;0.0;0.0;0.057583998888731;-0.16494399309158325;1.0901919603347778;0.0;0.0;0.0
1455;0.0;0.0;0.0;0.053679998964071274;-0.1454239934682846;1.0862879753112793;0.0;0.0;0.0
1457;0.0;0.0;0.0;0.057583998888731;-0.16103999316692352;1.126304030418396;0.0;0.0;0.0
1459;-0.05685199797153473;-0.020739998668432236;0.9701439738273621;0.07710400223731995;-0.16103999316692352;1.0901919603347778;-1.1024999618530273;1.837499976158142;14.266874313354492
1461;0.0;0.0;0.0;0.04196799919009209;-0.1727519929409027;1.101904034614563;0.0;0.0;0.0
1463;0.0;0.0;0.0;0.049775999039411545;-0.15323199331760406;1.101904034614563;0.0;0.0;0.0
1466;0.0;0.0;0.0;0.06929600238800049;-0.16494399309158325;1.073599934577942;0.0;0.0;0.0
1468;-0.06368400156497955;-0.029767999425530434;0.9574559926986694;0.057583998888731;-0.18055999279022217;1.0687199831008911;0.1574999988079071;0.08749999850988388;13.776874542236328
1470;0.0;0.0;0.0;0.053679998964071274;-0.16103999316692352;1.0814080238342285;0.0;0.0;0.0
1472;0.0;0.0;0.0;0.057583998888731;-0.1727519929409027;1.073599934577942;0.0;0.0;0.0
1474;0.0;0.0;0.0;0.08100800216197968;-0.14932799339294434;1.0814080238342285;0.0;0.0;0.0
1476;-0.053679998964071274;-0.027084000408649445;0.9535520076751709;0.09662400186061859;-0.14151999354362488;1.0775039196014404;1.6975001096725464;-2.1524999141693115;13.916874885559082
1478;0.0;0.0;0.0;0.06148799881339073;-0.14932799339294434;1.097999930381775;0.0;0.0;0.0
1480;0.0;0.0;0.0;0.10735999792814255;-0.1571359932422638;1.0784800052642822;0.0;0.0;0.0
1483;0.0;0.0;0.0;0.08100800216197968;-0.1454239934682846;1.073599934577942;0.0;0.0;0.0
1485;-0.03952799737453461;-0.01439599972218275;0.9674599766731262;0.07320000231266022;-0.14932799339294434;1.1106879711151123;3.237499952316284;-2.502500057220459;13.916874885559082
1487;0.0;0.0;0.0;0.08881600201129913;-0.12199999392032623;1.1184959411621094;0.0;0.0;0.0
1489;0.0;0.0;0.0;0.09955199807882309;-0.14151999354362488;1.1106879711151123;0.0;0.0;0.0
1491;0.0;0.0;0.0;0.049775999039411545;-0.1571359932422638;1.1106879711151123;0.0;0.0;0.0
1493;-0.0302559994161129;-0.005123999901115894;0.9955199956893921;0.09955199807882309;-0.16884799301624298;1.126304030418396;3.797499895095825;-0.05250000208616257;13.216875076293945
1496;0.0;0.0;0.0;0.09662400186061859;-0.13371199369430542;1.1389919519424438;0.0;0.0;0.0
1497;0.0;0.0;0.0;0.08881600201129913;-0.13371199369430542;1.175104022026062;0.0;0.0;0.0
1500;0.0;0.0;0.0;0.08100800216197968;-0.13761599361896515;1.1594879627227783;0.0;0.0;0.0
1502;-0.040748000144958496;-0.0029279999434947968;1.0252879858016968;0.07710400223731995;-0.12590399384498596;1.1594879627227783;3.0974998474121094;2.677500009536743;12.026874542236328
1504;0.0;0.0;0.0;0.053679998964071274;-0.14151999354362488;1.1672959327697754;0.0;0.0;0.0
1506;0.0;0.0;0.0;0.03806399926543236;-0.14151999354362488;1.1672959327697754;0.0;0.0;0.0
1508;0.0;0.0;0.0;0.053679998964071274;-0.13761599361896515;1.175104022026062;0.0;0.0;0.0
1510;-0.0634399950504303;-0.007807999849319458;1.0355359315872192;0.053679998964071274;-0.1454239934682846;1.1594879627227783;0.7874999642372131;2.4674999713897705;10.906874656677246
1512;0.0;0.0;0.0;0.053679998964071274;-0.13761599361896515;1.1594879627227783;0.0;0.0;0.0
1515;0.0;0.0;0.0;0.03806399926543236;-0.16884799301624298;1.1389919519424438;0.0;0.0;0.0
1517;0.0;0.0;0.0;0.049775999039411545;-0.16103999316692352;1.146799921989441;0.0;0.0;0.0
1519;-0.07149200141429901;-0.02000799961388111;1.0287039279937744;0.06539200246334076;-0.16103999316692352;1.1516799926757812;-1.3125;-0.19249999523162842;10.066874504089355
1521;0.0;0.0;0.0;0.03415999934077263;-0.15323199331760406;1.1350879669189453;0.0;0.0;0.0
1523;0.0;0.0;0.0;0.022447999566793442;-0.1571359932422638;1.1350879669189453;0.0;0.0;0.0
1525;0.0;0.0;0.0;0.045871999114751816;-0.13761599361896515;1.1145919561386108;0.0;0.0;0.0
1527;-0.07002799957990646;-0.025863999500870705;1.0077199935913086;0.03806399926543236;-0.16103999316692352;1.122399926185608;-2.2225000858306885;-2.502500057220459;8.596874237060547
1529;0.0;0.0;0.0;0.06929600238800049;-0.17665599286556244;1.1311839818954468;0.0;0.0;0.0
1532;0.0;0.0;0.0;0.0849120020866394;-0.16884799301624298;1.122399926185608;0.0;0.0;0.0
1534;0.0;0.0;0.0;0.07320000231266022;-0.2000799924135208;1.1028800010681152;0.0;0.0;0.0
1536;-0.051239997148513794;-0.04025999829173088;0.9852719902992249;0.04196799919009209;-0.16103999316692352;1.101904034614563;-2.432500123977661;-2.8524999618530273;6.986875057220459
1538;0.0;0.0;0.0;0.053679998964071274;-0.1571359932422638;1.1106879711151123;0.0;0.0;0.0
1540;0.0;0.0;0.0;0.10345599800348282;-0.18055999279022217;1.1106879711151123;0.0;0.0;0.0
1542;0.0;0.0;0.0;0.07320000231266022;-0.16103999316692352;1.1106879711151123;0.0;0.0;0.0
1544;-0.043431997299194336;-0.03757599741220474;0.9842959642410278;0.07710400223731995;-0.1571359932422638;1.1067839860916138;-1.872499942779541;-1.2425000667572021;6.426875114440918
1546;0.0;0.0;0.0;0.10052800178527832;-0.16103999316692352;1.097999930381775;0.0;0.0;0.0
1549;0.0;0.0;0.0;0.06929600238800049;-0.13371199369430542;1.1067839860916138;0.0;0.0;0.0
1551;0.0;0.0;0.0;0.06929600238800049;-0.16884799301624298;1.1067839860916138;0.0;0.0;0.0
1553;-0.053435999900102615;-0.022447999566793442;0.9847840070724487;0.06148799881339073;-0.1571359932422638;1.1067839860916138;-1.4524999856948853;-0.8925000429153442;6.496875286102295
1555;0.0;0.0;0.0;0.045871999114751816;-0.13371199369430542;1.122399926185608;0.0;0.0;0.0
1557;0.0;0.0;0.0;0.06539200246334076;-0.1571359932422638;1.1428959369659424;0.0;0.0;0.0
1559;0.0;0.0;0.0;0.06539200246334076;-0.16103999316692352;1.1389919519424438;0.0;0.0;0.0
1561;-0.049531999975442886;-0.013419999741017818;1.0043039321899414;0.06148799881339073;-0.16103999316692352;1.1760799884796143;-1.1725000143051147;-3.4125001430511475;7.056875228881836
1564;0.0;0.0;0.0;0.09662400186061859;-0.16494399309158325;1.1428959369659424;0.0;0.0;0.0
1566;0.0;0.0;0.0;0.08100800216197968;-0.14932799339294434;1.1672959327697754;0.0;0.0;0.0
1568;0.0;0.0;0.0;0.08100800216197968;-0.16494399309158325;1.1672959327697754;0.0;0.0;0.0
1570;-0.03269600123167038;-0.013907999731600285;1.0201640129089355;0.09662400186061859;-0.1454239934682846;1.1594879627227783;-1.662500023841858;-5.722499847412109;7.266875267028809
1572;0.0;0.0;0.0;0.08881600201129913;-0.16103999316692352;1.1389919519424438;0.0;0.0;0.0
1574;0.0;0.0;0.0;0.09662400186061859;-0.19617599248886108;1.1672959327697754;0.0;0.0;0.0
1576;0.0;0.0;0.0;0.0849120020866394;-0.17665599286556244;1.1594879627227783;0.0;0.0;0.0
1578;-0.0226919986307621;-0.0287919994443655;1.020408034324646;0.10345599800348282;-0.2000799924135208;1.1633919477462769;-2.7125000953674316;-4.462499618530273;6.426875114440918
1581;0.0;0.0;0.0;0.10833600163459778;-0.2000799924135208;1.1389919519424438;0.0;0.0;0.0
1583;0.0;0.0;0.0;0.10052800178527832;-0.19617599248886108;1.1389919519424438;0.0;0.0;0.0
1585;0.0;0.0;0.0;0.10052800178527832;-0.19227199256420135;1.1350879669189453;0.0;0.0;0.0
1587;-0.023423999547958374;-0.053679998964071274;1.0091840028762817;0.09272000193595886;-0.20788799226284027;1.1106879711151123;-3.3425002098083496;-1.662500023841858;4.816874980926514
1589;0.0;0.0;0.0;0.07320000231266022;-0.16884799301624298;1.1311839818954468;0.0;0.0;0.0
1591;0.0;0.0;0.0;0.08393599838018417;-0.2117919921875;1.1184959411621094;0.0;0.0;0.0
1593;0.0;0.0;0.0;0.10052800178527832;-0.2391199916601181;1.1184959411621094;0.0;0.0;0.0
1595;-0.03294000029563904;-0.07173600047826767;0.985759973526001;0.08100800216197968;-0.23131199181079865;1.0989760160446167;-2.7125000953674316;-0.26250001788139343;3.0668749809265137
1598;0.0;0.0;0.0;0.08100800216197968;-0.21959999203681946;1.073599934577942;0.0;0.0;0.0
1600;0.0;0.0;0.0;0.09564799815416336;-0.23521599173545837;1.0775039196014404;0.0;0.0;0.0
1602;0.0;0.0;0.0;0.08100800216197968;-0.24692799150943756;1.0657919645309448;0.0;0.0;0.0
1604;-0.029767999425530434;-0.08076399564743042;0.9579439759254456;0.09955199807882309;-0.2117919921875;1.0775039196014404;-0.12250000238418579;-1.5924999713897705;1.736875057220459
1606;0.0;0.0;0.0;0.115167997777462;-0.22740799188613892;1.073599934577942;0.0;0.0;0.0
1608;0.0;0.0;0.0;0.11126399785280228;-0.22740799188613892;1.0657919645309448;0.0;0.0;0.0
1610;0.0;0.0;0.0;0.09662400186061859;-0.21569599211215973;1.0775039196014404;0.0;0.0;0.0
1612;-0.007807999849319458;-0.07710400223731995;0.9486719965934753;0.115167997777462;-0.20398399233818054;1.0940959453582764;3.237499952316284;-3.0625;1.176875114440918
1614;0.0;0.0;0.0;0.13468798995018005;-0.2117919921875;1.0823839902877808;0.0;0.0;0.0
1617;0.0;0.0;0.0;0.13078400492668152;-0.17665599286556244;1.1106879711151123;0.0;0.0;0.0
1619;0.0;0.0;0.0;0.12297599762678146;-0.18055999279022217;1.0775039196014404;0.0;0.0;0.0
1621;0.012443999759852886;-0.0605119988322258;0.9645319581031799;0.12297599762678146;-0.19617599248886108;1.1184959411621094;5.827499866485596;-1.5225000381469727;0.6868749856948853
1623;0.0;0.0;0.0;0.13078400492668152;-0.19617599248886108;1.1058080196380615;0.0;0.0;0.0
1625;0.0;0.0;0.0;0.13468798995018005;-0.18836799263954163;1.1184959411621094;0.0;0.0;0.0
1627;0.0;0.0;0.0;0.11907199770212173;-0.16884799301624298;1.097999930381775;0.0;0.0;0.0
1629;0.00951599981635809;-0.04879999905824661;0.9767319560050964;0.11224000155925751;-0.1727519929409027;1.1106879711151123;7.507500171661377;2.1875;-0.08312500268220901
1632;0.0;0.0;0.0;0.11907199770212173;-0.1727519929409027;1.1145919561386108;0.0;0.0;0.0
1634;0.0;0.0;0.0;0.09955199807882309;-0.17665599286556244;1.1233760118484497;0.0;0.0;0.0
1636;0.0;0.0;0.0;0.115167997777462;-0.18836799263954163;1.1184959411621094;0.0;0.0;0.0
1638;-0.011467999778687954;-0.037087999284267426;0.9886879920959473;0.115167997777462;-0.15323199331760406;1.122399926185608;8.557499885559082;4.707500457763672;-0.9231250286102295
1640;0.0;0.0;0.0;0.10735999792814255;-0.18055999279022217;1.126304030418396;0.0;0.0;0.0
1642;0.0;0.0;0.0;0.08881600201129913;-0.16884799301624298;1.1311839818954468;0.0;0.0;0.0
1644;0.0;0.0;0.0;0.07320000231266022;-0.14151999354362488;1.122399926185608;0.0;0.0;0.0
1646;-0.03611199930310249;-0.025619998574256897;0.9911279678344727;0.07710400223731995;-0.15323199331760406;1.122399926185608;8.837499618530273;4.917500019073486;-1.5531249046325684
1649;0.0;0.0;0.0;0.06539200246334076;-0.14932799339294434;1.122399926185608;0.0;0.0;0.0
1651;0.0;0.0;0.0;0.07320000231266022;-0.15323199331760406;1.1184959411621094;0.0;0.0;0.0
1653;0.0;0.0;0.0;0.06539200246334076;-0.1180959939956665;1.126304030418396;0.0;0.0;0.0
1655;-0.05514399707317352;-0.004635999910533428;0.9889319539070129;0.08100800216197968;-0.10638399422168732;1.1106879711151123;8.977499961853027;3.447499990463257;-1.9731249809265137
1657;0.0;0.0;0.0;0.07320000231266022;-0.13371199369430542;1.1184959411621094;0.0;0.0;0.0
1659;0.0;0.0;0.0;0.07320000231266022;-0.11028799414634705;1.1145919561386108;0.0;0.0;0.0
1661;0.0;0.0;0.0;0.06539200246334076;-0.11028799414634705;1.1350879669189453;0.0;0.0;0.0
1663;-0.04904399812221527;0.01878799870610237;0.9911279678344727;0.057583998888731;-0.09857599437236786;1.1311839818954468;8.487500190734863;1.627500057220459;-1.6231249570846558
1666;0.0;0.0;0.0;0.08100800216197968;-0.11419199407100677;1.126304030418396;0.0;0.0;0.0
1668;0.0;0.0;0.0;0.08100800216197968;-0.10247999429702759;1.1389919519424438;0.0;0.0;0.0
1670;0.0;0.0;0.0;0.0849120020866394;-0.10638399422168732;1.146799921989441;0.0;0.0;0.0
1672;-0.03415999934077263;0.02903600037097931;1.00381600856781;0.09955199807882309;-0.11028799414634705;1.146799921989441;7.647500038146973;1.4175000190734863;-0.9931250214576721
1674;0.0;0.0;0.0;0.10443200170993805;-0.12199999392032623;1.1184959411621094;0.0;0.0;0.0
1676;0.0;0.0;0.0;0.10443200170993805;-0.09857599437236786;1.1389919519424438;0.0;0.0;0.0
1678;0.0;0.0;0.0;0.10052800178527832;-0.1298079937696457;1.1428959369659424;0.0;0.0;0.0
1680;-0.021959999576210976;0.022204000502824783;1.010159969329834;0.11126399785280228;-0.1180959939956665;1.1555839776992798;6.877500057220459;3.0274999141693115;-0.8531250357627869
1683;0.0;0.0;0.0;0.11126399785280228;-0.13761599361896515;1.1311839818954468;0.0;0.0;0.0
1685;0.0;0.0;0.0;0.0849120020866394;-0.10247999429702759;1.1428959369659424;0.0;0.0;0.0
1687;0.0;0.0;0.0;0.0878399983048439;-0.1454239934682846;1.1311839818954468;0.0;0.0;0.0
1689;-0.024643998593091965;0.0012199999764561653;1.006011962890625;0.115167997777462;-0.1298079937696457;1.122399926185608;6.457499980926514;4.707500457763672;-1.203125
1691;0.0;0.0;0.0;0.07320000231266022;-0.1454239934682846;1.1184959411621094;0.0;0.0;0.0
1693;0.0;0.0;0.0;0.09955199807882309;-0.16103999316692352;1.1106879711151123;0.0;0.0;0.0
1695;0.0;0.0;0.0;0.10052800178527832;-0.16103999316692352;1.1067839860916138;0.0;0.0;0.0
1697;-0.03001200035214424;-0.01756799966096878;0.9891759753227234;0.09955199807882309;-0.1727519929409027;1.1058080196380615;6.737500190734863;5.267500400543213;-2.1131248474121094
1700;0.0;0.0;0.0;0.09272000193595886;-0.1454239934682846;1.1272799968719482;0.0;0.0;0.0
1702;0.0;0.0;0.0;0.0849120020866394;-0.14151999354362488;1.073599934577942;0.0;0.0;0.0
1704;0.0;0.0;0.0;0.09662400186061859;-0.1844639927148819;1.0823839902877808;0.0;0.0;0.0
1706;-0.03562399744987488;-0.019519999623298645;0.9652639627456665;0.09272000193595886;-0.1571359932422638;1.0823839902877808;8.137499809265137;4.637500286102295;-3.2331249713897705
1708;0.0;0.0;0.0;0.12297599762678146;-0.1298079937696457;1.0618879795074463;0.0;0.0;0.0
1710;0.0;0.0;0.0;0.09662400186061859;-0.1180959939956665;1.0940959453582764;0.0;0.0;0.0
1712;0.0;0.0;0.0;0.10345599800348282;-0.13371199369430542;1.097999930381775;0.0;0.0;0.0
1714;-0.032207999378442764;-0.00317199993878603;0.9628239870071411;0.09272000193595886;-0.10638399422168732;1.1145919561386108;10.167499542236328;4.497500419616699;-4.003125190734863
1717;0.0;0.0;0.0;0.0878399983048439;-0.0907679945230484;1.1028800010681152;0.0;0.0;0.0
1719;0.0;0.0;0.0;0.08881600201129913;-0.0907679945230484;1.1184959411621094;0.0;0.0;0.0
1721;0.0;0.0;0.0;0.08881600201129913;-0.11028799414634705;1.1311839818954468;0.0;0.0;0.0
1723;-0.03294000029563904;0.0378200002014637;0.9852719902992249;0.06929600238800049;-0.07515199482440948;1.1028800010681152;11.287500381469727;5.4775004386901855;-4.003125190734863
1725;0.0;0.0;0.0;0.10052800178527832;-0.07124799489974976;1.1350879669189453;0.0;0.0;0.0
1727;0.0;0.0;0.0;0.08881600201129913;-0.07515199482440948;1.1311839818954468;0.0;0.0;0.0
1729;0.0;0.0;0.0;0.08100800216197968;-0.04001599922776222;1.1389919519424438;0.0;0.0;0.0
1731;-0.04416399821639061;0.06929600238800049;1.0167479515075684;0.06148799881339073;-0.07515199482440948;1.1428959369659424;10.9375;7.297500133514404;-3.3031249046325684
1734;0.0;0.0;0.0;0.06148799881339073;-0.07515199482440948;1.1594879627227783;0.0;0.0;0.0
1736;0.0;0.0;0.0;0.057583998888731;-0.06734399497509003;1.150704026222229;0.0;0.0;0.0
1738;0.0;0.0;0.0;0.06929600238800049;-0.08295999467372894;1.1760799884796143;0.0;0.0;0.0
1740;-0.0710039958357811;0.07759200036525726;1.0306559801101685;0.045871999114751816;-0.04782399907708168;1.1672959327697754;9.817500114440918;8.417500495910645;-2.463124990463257
1742;0.0;0.0;0.0;0.010735999792814255;-0.05953599885106087;1.1516799926757812;0.0;0.0;0.0
1744;0.0;0.0;0.0;0.014639999717473984;-0.04782399907708168;1.1389919519424438;0.0;0.0;0.0
1746;0.0;0.0;0.0;0.0029279999434947968;-0.05172799900174141;1.1633919477462769;0.0;0.0;0.0
1748;-0.09979599714279175;0.07320000231266022;1.0265079736709595;0.014639999717473984;-0.05953599885106087;1.1555839776992798;9.467499732971191;6.247500419616699;-1.9031249284744263
1751;0.0;0.0;0.0;-0.0009759999811649323;-0.05563199892640114;1.1350879669189453;0.0;0.0;0.0
1753;0.0;0.0;0.0;0.0029279999434947968;-0.05953599885106087;1.1389919519424438;0.0;0.0;0.0
1755;0.0;0.0;0.0;0.0302559994161129;-0.08686399459838867;1.1389919519424438;0.0;0.0;0.0
1757;-0.1012599989771843;0.06929600238800049;1.0145519971847534;0.03415999934077263;-0.06734399497509003;1.126304030418396;9.7475004196167;0.9275000095367432;-1.763124942779541
1759;0.0;0.0;0.0;0.03806399926543236;-0.05172799900174141;1.1428959369659424;0.0;0.0;0.0
1761;0.0;0.0;0.0;0.04196799919009209;-0.0634399950504303;1.1184959411621094;0.0;0.0;0.0
1763;0.0;0.0;0.0;0.049775999039411545;-0.05953599885106087;1.1428959369659424;0.0;0.0;0.0
1765;-0.0878399983048439;0.07759200036525726;1.00381600856781;0.045871999114751816;-0.04782399907708168;1.1311839818954468;9.327500343322754;-2.2925000190734863;-2.393125057220459
1768;0.0;0.0;0.0;0.06148799881339073;-0.04782399907708168;1.1145919561386108;0.0;0.0;0.0
1770;0.0;0.0;0.0;0.049775999039411545;-0.032207999378442764;1.1350879669189453;0.0;0.0;0.0
1772;0.0;0.0;0.0;0.053679998964071274;-0.04391999915242195;1.1106879711151123;0.0;0.0;0.0
1774;-0.0663679987192154;0.08881600201129913;0.9972279667854309;0.045871999114751816;-0.01659199967980385;1.122399926185608;8.067500114440918;-2.012500047683716;-3.3731250762939453
1776;0.0;0.0;0.0;0.06148799881339073;-0.05953599885106087;1.122399926185608;0.0;0.0;0.0
1778;0.0;0.0;0.0;0.06148799881339073;-0.020495999604463577;1.1594879627227783;0.0;0.0;0.0
1780;0.0;0.0;0.0;0.0849120020866394;-0.04391999915242195;1.1184959411621094;0.0;0.0;0.0
1782;-0.06173199787735939;0.1088239997625351;1.0001559257507324;0.04196799919009209;-0.01268799975514412;1.146799921989441;6.387499809265137;-0.4025000035762787;-3.2331249713897705
1785;0.0;0.0;0.0;0.07710400223731995;-0.01659199967980385;1.10971200466156;0.0;0.0;0.0
1787;0.0;0.0;0.0;0.049775999039411545;0.010735999792814255;1.150704026222229;0.0;0.0;0.0
1789;0.0;0.0;0.0;0.04196799919009209;0.0029279999434947968;1.126304030418396;0.0;0.0;0.0
1791;-0.07149200141429901;0.12541599571704865;1.0069879293441772;0.06148799881339073;-0.004879999905824661;1.134112000465393;4.357500076293945;-0.612500011920929;-2.1831250190734863
1793;0.0;0.0;0.0;0.06148799881339073;0.010735999792814255;1.150704026222229;0.0;0.0;0.0
1795;0.0;0.0;0.0;0.045871999114751816;0.006831999868154526;1.146799921989441;0.0;0.0;0.0
1797;0.0;0.0;0.0;0.08100800216197968;-0.0009759999811649323;1.1546080112457275;0.0;0.0;0.0
1799;-0.08076399564743042;0.1332239955663681;1.0174800157546997;0.03415999934077263;0.010735999792814255;1.1419199705123901;1.8375000953674316;-2.0824999809265137;-1.1331249475479126
1802;0.0;0.0;0.0;0.03806399926543236;-0.0009759999811649323;1.122399926185608;0.0;0.0;0.0
1804;0.0;0.0;0.0;0.022447999566793442;-0.004879999905824661;1.1302080154418945;0.0;0.0;0.0
1806;0.0;0.0;0.0;0.014639999717473984;-0.00878399983048439;1.1311839818954468;0.0;0.0;0.0
1808;-0.09296400099992752;0.1273680031299591;1.0182119607925415;-0.0009759999811649323;-0.020495999604463577;1.1350879669189453;-1.2424999475479126;-2.2925000190734863;-0.7131249904632568
1810;0.0;0.0;0.0;0.010735999792814255;-0.028303999453783035;1.1350879669189453;0.0;0.0;0.0
1812;0.0;0.0;0.0;0.006831999868154526;-0.020495999604463577;1.1555839776992798;0.0;0.0;0.0
1814;0.0;0.0;0.0;0.018543999642133713;-0.0009759999811649323;1.1311839818954468;0.0;0.0;0.0
1816;-0.10516399890184402;0.11858399957418442;1.0130879878997803;0.02635199949145317;-0.004879999905824661;1.1555839776992798;-4.042500019073486;-1.7325000762939453;-1.1331249475479126
1819;0.0;0.0;0.0;0.018543999642133713;-0.04782399907708168;1.1350879669189453;0.0;0.0;0.0
1821;0.0;0.0;0.0;0.010735999792814255;-0.028303999453783035;1.1272799968719482;0.0;0.0;0.0
1823;0.0;0.0;0.0;0.02635199949145317;-0.03611199930310249;1.1389919519424438;0.0;0.0;0.0
1825;-0.10150399804115295;0.10833600163459778;1.0001559257507324;0.014639999717473984;-0.020495999604463577;1.126304030418396;-6.072500228881836;-2.572499990463257;-1.6931250095367432
1827;0.0;0.0;0.0;0.010735999792814255;-0.04391999915242195;1.1145919561386108;0.0;0.0;0.0
1829;0.0;0.0;0.0;0.03415999934077263;-0.020495999604463577;1.1067839860916138;0.0;0.0;0.0
1831;0.0;0.0;0.0;0.022447999566793442;-0.03611199930310249;1.1145919561386108;0.0;0.0;0.0
1833;-0.08906000107526779;0.09711199998855591;0.9818559885025024;0.06539200246334076;-0.06734399497509003;1.0862879753112793;-6.772500038146973;-4.882499694824219;-1.2731249332427979
1836;0.0;0.0;0.0;0.02635199949145317;-0.05172799900174141;1.0940959453582764;0.0;0.0;0.0
1838;0.0;0.0;0.0;0.045871999114751816;-0.04001599922776222;1.1184959411621094;0.0;0.0;0.0
1840;0.0;0.0;0.0;0.045871999114751816;-0.05172799900174141;1.0862879753112793;0.0;0.0;0.0
1842;-0.07612799853086472;0.0924759954214096;0.958187997341156;0.02635199949145317;-0.03611199930310249;1.0657919645309448;-6.702500343322754;-6.5625;-0.2931250035762787
1844;0.0;0.0;0.0;0.045871999114751816;-0.05563199892640114;1.0862879753112793;0.0;0.0;0.0
1846;0.0;0.0;0.0;0.057583998888731;-0.04391999915242195;1.0618879795074463;0.0;0.0;0.0
1848;0.0;0.0;0.0;0.06539200246334076;-0.05172799900174141;1.0823839902877808;0.0;0.0;0.0
1850;-0.05831599980592728;0.08857199549674988;0.9469639658927917;0.06929600238800049;-0.032207999378442764;1.073599934577942;-6.002500057220459;-6.632499694824219;0.40687501430511475
1853;0.0;0.0;0.0;0.053679998964071274;-0.0634399950504303;1.0579839944839478;0.0;0.0;0.0
1855;0.0;0.0;0.0;0.07710400223731995;-0.07515199482440948;1.0696959495544434;0.0;0.0;0.0
1857;0.0;0.0;0.0;0.08881600201129913;-0.07124799489974976;1.0823839902877808;0.0;0.0;0.0
1859;-0.040991999208927155;0.07807999849319458;0.945743978023529;0.11224000155925751;-0.05953599885106087;1.0901919603347778;-4.882500171661377;-5.652499675750732;1.176875114440918
1861;0.0;0.0;0.0;0.09662400186061859;-0.06734399497509003;1.0657919645309448;0.0;0.0;0.0
1863;0.0;0.0;0.0;0.08100800216197968;-0.07124799489974976;1.0862879753112793;0.0;0.0;0.0
1865;0.0;0.0;0.0;0.08881600201129913;-0.0634399950504303;1.0579839944839478;0.0;0.0;0.0
1867;-0.03855200111865997;0.06368400156497955;0.949891984462738;0.10345599800348282;-0.09467199444770813;1.0784800052642822;-4.042500019073486;-4.462499618530273;2.296875
1870;0.0;0.0;0.0;0.06539200246334076;-0.08295999467372894;1.1067839860916138;0.0;0.0;0.0
1872;0.0;0.0;0.0;0.06929600238800049;-0.09467199444770813;1.0862879753112793;0.0;0.0;0.0
1874;0.0;0.0;0.0;0.07320000231266022;-0.06734399497509003;1.0901919603347778;0.0;0.0;0.0
1876;-0.037087999284267426;0.04928799718618393;0.9589200019836426;0.0849120020866394;-0.08295999467372894;1.0901919603347778;-3.762500047683716;-3.2725000381469727;2.6468751430511475
1878;0.0;0.0;0.0;0.0849120020866394;-0.09857599437236786;1.0862879753112793;0.0;0.0;0.0
1880;0.0;0.0;0.0;0.07320000231266022;-0.11419199407100677;1.1067839860916138;0.0;0.0;0.0
1882;0.0;0.0;0.0;0.10443200170993805;-0.10638399422168732;1.0862879753112793;0.0;0.0;0.0
1884;-0.03903999924659729;0.03611199930310249;0.9594079852104187;0.08100800216197968;-0.11028799414634705;1.0823839902877808;-4.182499885559082;-2.8524999618530273;2.0868749618530273
1887;0.0;0.0;0.0;0.10443200170993805;-0.12590399384498596;1.073599934577942;0.0;0.0;0.0
1889;0.0;0.0;0.0;0.08100800216197968;-0.1180959939956665;1.073599934577942;0.0;0.0;0.0
1891;0.0;0.0;0.0;0.06929600238800049;-0.1298079937696457;1.0618879795074463;0.0;0.0;0.0
1893;-0.030743999406695366;0.016835998743772507;0.9515999555587769;0.09272000193595886;-0.1180959939956665;1.073599934577942;-4.182499885559082;-2.2925000190734863;1.1068750619888306
1895;0.0;0.0;0.0;0.0849120020866394;-0.1180959939956665;1.073599934577942;0.0;0.0;0.0
1897;0.0;0.0;0.0;0.09272000193595886;-0.11419199407100677;1.0823839902877808;0.0;0.0;0.0
1899;0.0;0.0;0.0;0.08881600201129913;-0.11419199407100677;1.0618879795074463;0.0;0.0;0.0
1901;-0.0287919994443655;0.012931999750435352;0.9494040012359619;0.0849120020866394;-0.1298079937696457;1.0901919603347778;-3.692500114440918;-0.8224999904632568;-0.013125000521540642
1904;0.0;0.0;0.0;0.07320000231266022;-0.12590399384498596;1.0940959453582764;0.0;0.0;0.0
1906;0.0;0.0;0.0;0.08881600201129913;-0.10247999429702759;1.097999930381775;0.0;0.0;0.0
1908;0.0;0.0;0.0;0.08100800216197968;-0.09467199444770813;1.0940959453582764;0.0;0.0;0.0
1910;-0.03513599932193756;0.017079999670386314;0.9591639637947083;0.0849120020866394;-0.1298079937696457;1.101904034614563;-3.3425002098083496;0.22749999165534973;-0.9931250214576721
1912;0.0;0.0;0.0;0.09662400186061859;-0.11028799414634705;1.0823839902877808;0.0;0.0;0.0
1914;0.0;0.0;0.0;0.06929600238800049;-0.10247999429702759;1.1106879711151123;0.0;0.0;0.0
1916;0.0;0.0;0.0;0.053679998964071274;-0.10638399422168732;1.0814080238342285;0.0;0.0;0.0
1918;-0.04196799919009209;0.026108000427484512;0.9677039980888367;0.07320000231266022;-0.11028799414634705;1.1067839860916138;-3.2725000381469727;-0.33250001072883606;-1.2731249332427979
1921;0.0;0.0;0.0;0.09174399822950363;-0.10247999429702759;1.1136159896850586;0.0;0.0;0.0
1923;0.0;0.0;0.0;0.07320000231266022;-0.12590399384498596;1.085312008857727;0.0;0.0;0.0
1925;0.0;0.0;0.0;0.06148799881339073;-0.08295999467372894;1.1175199747085571;0.0;0.0;0.0
1927;-0.044895999133586884;0.030499998480081558;0.9835639595985413;0.10735999792814255;-0.10638399422168732;1.126304030418396;-3.552500009536743;-1.8725000619888306;-0.8531250357627869
1929;0.0;0.0;0.0;0.07710400223731995;-0.11419199407100677;1.146799921989441;0.0;0.0;0.0
1931;0.0;0.0;0.0;0.10443200170993805;-0.11028799414634705;1.1624159812927246;0.0;0.0;0.0
1933;0.0;0.0;0.0;0.07710400223731995;-0.10247999429702759;1.1428959369659424;0.0;0.0;0.0
1936;-0.0453839972615242;0.03513599932193756;1.0043039321899414;0.0849120020866394;-0.11419199407100677;1.1184959411621094;-5.442500114440918;-3.202500104904175;-0.503125011920929
1938;0.0;0.0;0.0;0.09662400186061859;-0.10638399422168732;1.1311839818954468;0.0;0.0;0.0
1940;0.0;0.0;0.0;0.06148799881339073;-0.1180959939956665;1.150704026222229;0.0;0.0;0.0
1942;0.0;0.0;0.0;0.06148799881339073;-0.12590399384498596;1.1428959369659424;0.0;0.0;0.0
1944;-0.03806399926543236;0.025619998574256897;1.0172359943389893;0.0849120020866394;-0.11419199407100677;1.1428959369659424;-9.15250015258789;-3.3424999713897705;-0.9931250214576721
1946;0.0;0.0;0.0;0.0849120020866394;-0.13371199369430542;1.146799921989441;0.0;0.0;0.0
1948;0.0;0.0;0.0;0.0849120020866394;-0.12590399384498596;1.1350879669189453;0.0;0.0;0.0
1950;0.0;0.0;0.0;0.07320000231266022;-0.13761599361896515;1.1428959369659424;0.0;0.0;0.0
1953;-0.04660400003194809;0.007075999863445759;1.0211399793624878;0.03415999934077263;-0.14932799339294434;1.1311839818954468;-13.632499694824219;-2.362499952316284;-1.763124942779541
1955;0.0;0.0;0.0;0.044895999133586884;-0.14054399728775024;1.1516799926757812;0.0;0.0;0.0
1957;0.0;0.0;0.0;0.04879999905824661;-0.15615999698638916;1.1516799926757812;0.0;0.0;0.0
1959;0.0;0.0;0.0;0.05270399898290634;-0.16396799683570862;1.1555839776992798;0.0;0.0;0.0
1961;-0.06856399774551392;-0.00878399983048439;1.0218719244003296;0.040991999208927155;-0.13663999736309052;1.150704026222229;-17.0625;-1.8725000619888306;-2.253124952316284
1963;0.0;0.0;0.0;0.0331839993596077;-0.13663999736309052;1.122399926185608;0.0;0.0;0.0
1965;0.0;0.0;0.0;0.013663999736309052;-0.14054399728775024;1.1594879627227783;0.0;0.0;0.0
1967;0.0;0.0;0.0;0.044895999133586884;-0.14054399728775024;1.1428959369659424;0.0;0.0;0.0
1970;-0.0907679945230484;-0.01439599972218275;1.0272400379180908;0.02147199958562851;-0.13663999736309052;1.1760799884796143;-19.302499771118164;-3.4125001430511475;-2.463124990463257
1972;0.0;0.0;0.0;0.014639999717473984;-0.1727519929409027;1.1555839776992798;0.0;0.0;0.0
1974;0.0;0.0;0.0;0.0302559994161129;-0.1727519929409027;1.1682720184326172;0.0;0.0;0.0
1976;0.0;0.0;0.0;0.010735999792814255;-0.16494399309158325;1.1838879585266113;0.0;0.0;0.0
1978;-0.09979599714279175;-0.01781199872493744;1.038707971572876;0.022447999566793442;-0.1571359932422638;1.1672959327697754;-21.892499923706055;-7.262499809265137;-2.253124952316284
1980;0.0;0.0;0.0;0.03415999934077263;-0.16103999316692352;1.1712000370025635;0.0;0.0;0.0
1982;0.0;0.0;0.0;0.010735999792814255;-0.1844639927148819;1.1799839735031128;0.0;0.0;0.0
1984;0.0;0.0;0.0;0.04196799919009209;-0.2000799924135208;1.1965759992599487;0.0;0.0;0.0
1987;-0.08906000107526779;-0.03294000029563904;1.0523719787597656;0.045871999114751816;-0.19617599248886108;1.1838879585266113;-25.252500534057617;-11.602499961853027;-1.8331249952316284
1989;0.0;0.0;0.0;0.04196799919009209;-0.20398399233818054;1.1838879585266113;0.0;0.0;0.0
1991;0.0;0.0;0.0;0.07320000231266022;-0.20398399233818054;1.1760799884796143;0.0;0.0;0.0
1993;0.0;0.0;0.0;0.03806399926543236;-0.23521599173545837;1.1555839776992798;0.0;0.0;0.0
1995;-0.058559998869895935;-0.06880799680948257;1.0516400337219238;0.09564799815416336;-0.2391199916601181;1.1760799884796143;-29.3125;-14.122499465942383;-2.393125057220459
1997;0.0;0.0;0.0;0.0849120020866394;-0.23131199181079865;1.1712000370025635;0.0;0.0;0.0
1999;0.0;0.0;0.0;0.0849120020866394;-0.24302399158477783;1.1428959369659424;0.0;0.0;0.0
2001;0.0;0.0;0.0;0.11907199770212173;-0.25863999128341675;1.1594879627227783;0.0;0.0;0.0
2004;-0.023667998611927032;-0.1180959939956665;1.0306559801101685;0.10833600163459778;-0.27035200595855713;1.1516799926757812;-32.88249969482422;-14.542499542236328;-4.003125190734863
2006;0.0;0.0;0.0;0.13859200477600098;-0.3054879903793335;1.1389919519424438;0.0;0.0;0.0
2008;0.0;0.0;0.0;0.13078400492668152;-0.29767999053001404;1.1350879669189453;0.0;0.0;0.0
2010;0.0;0.0;0.0;0.13859200477600098;-0.3054879903793335;1.1145919561386108;0.0;0.0;0.0
2012;0.004635999910533428;-0.1617719978094101;0.9972279667854309;0.1268799901008606;-0.30158400535583496;1.097999930381775;-34.98249816894531;-13.0024995803833;-6.663125038146973
2014;0.0;0.0;0.0;0.15811198949813843;-0.3172000050544739;1.1028800010681152;0.0;0.0;0.0
2016;0.0;0.0;0.0;0.14640000462532043;-0.3328160047531128;1.0940959453582764;0.0;0.0;0.0
2018;0.0;0.0;0.0;0.13859200477600098;-0.32891198992729187;1.0862879753112793;0.0;0.0;0.0
2021;0.02391199953854084;-0.19324800372123718;0.9662399888038635;0.1542080044746399;-0.3484320044517517;1.0901919603347778;-34.0724983215332;-8.802499771118164;-9.253125190734863
2023;0.0;0.0;0.0;0.13468798995018005;-0.3484320044517517;1.0657919645309448;0.0;0.0;0.0
2025;0.0;0.0;0.0;0.13468798995018005;-0.35233598947525024;1.0579839944839478;0.0;0.0;0.0
2027;0.0;0.0;0.0;0.13859200477600098;-0.3445279896259308;1.0940959453582764;0.0;0.0;0.0
2029;0.03294000029563904;-0.20788799226284027;0.9525759816169739;0.17372798919677734;-0.33671998977661133;1.0823839902877808;-29.802499771118164;-2.572499990463257;-11.073125839233398
2031;0.0;0.0;0.0;0.14640000462532043;-0.3328160047531128;1.0696959495544434;0.0;0.0;0.0
2033;0.0;0.0;0.0;0.13078400492668152;-0.35233598947525024;1.0862879753112793;0.0;0.0;0.0
2035;0.0;0.0;0.0;0.1424959897994995;-0.33671998977661133;1.1067839860916138;0.0;0.0;0.0
2038;0.018300000578165054;-0.1908079981803894;0.9642879962921143;0.1542080044746399;-0.3054879903793335;1.1145919561386108;-22.52250099182129;4.357500076293945;-12.54312515258789
2040;0.0;0.0;0.0;0.10833600163459778;-0.28596800565719604;1.122399926185608;0.0;0.0;0.0
2042;0.0;0.0;0.0;0.09564799815416336;-0.2898719906806946;1.101904034614563;0.0;0.0;0.0
2044;0.0;0.0;0.0;0.08881600201129913;-0.28596800565719604;1.122399926185608;0.0;0.0;0.0
2046;-0.024156000465154648;-0.14688800275325775;0.9935680031776428;0.08881600201129913;-0.25863999128341675;1.150704026222229;-13.352499961853027;9.327500343322754;-13.453125953674316
2048;0.0;0.0;0.0;0.057583998888731;-0.23131199181079865;1.1721760034561157;0.0;0.0;0.0
2050;0.0;0.0;0.0;0.045871999114751816;-0.21569599211215973;1.1389919519424438;0.0;0.0;0.0
2052;0.0;0.0;0.0;0.049775999039411545;-0.21569599211215973;1.1838879585266113;0.0;0.0;0.0
2055;-0.07027199864387512;-0.08881600201129913;1.042367935180664;0.045871999114751816;-0.2000799924135208;1.2043839693069458;-3.762500047683716;9.397500038146973;-13.173125267028809
2057;0.0;0.0;0.0;0.022447999566793442;-0.16884799301624298;1.2043839693069458;0.0;0.0;0.0
2059;0.0;0.0;0.0;-0.01268799975514412;-0.1571359932422638;1.2365919351577759;0.0;0.0;0.0
2061;0.0;0.0;0.0;-0.004879999905824661;-0.11419199407100677;1.2570879459381104;0.0;0.0;0.0
2063;-0.10638399422168732;-0.02147199958562851;1.085312008857727;0.014639999717473984;-0.13761599361896515;1.2326879501342773;3.0274999141693115;4.147500038146973;-11.213125228881836
2065;0.0;0.0;0.0;0.0302559994161129;-0.12199999392032623;1.2326879501342773;0.0;0.0;0.0
2067;0.0;0.0;0.0;0.0029279999434947968;-0.10638399422168732;1.2365919351577759;0.0;0.0;0.0
2069;0.0;0.0;0.0;0.010735999792814255;-0.09857599437236786;1.2248799800872803;0.0;0.0;0.0
2072;-0.11834000051021576;0.029279999434947968;1.0955599546432495;-0.024399999529123306;-0.09467199444770813;1.2082879543304443;5.547500133514404;-3.9024999141693115;-7.713124752044678
2074;0.0;0.0;0.0;-0.020495999604463577;-0.07515199482440948;1.2082879543304443;0.0;0.0;0.0
2076;0.0;0.0;0.0;0.0029279999434947968;-0.07905599474906921;1.2326879501342773;0.0;0.0;0.0
2078;0.0;0.0;0.0;0.0029279999434947968;-0.05953599885106087;1.2209759950637817;0.0;0.0;0.0
2080;-0.1320039927959442;0.06588000059127808;1.0904359817504883;-0.01659199967980385;-0.07124799489974976;1.2248799800872803;4.217499732971191;-10.762499809265137;-5.473124980926514
2082;0.0;0.0;0.0;-0.01659199967980385;-0.0634399950504303;1.2326879501342773;0.0;0.0;0.0
2084;0.0;0.0;0.0;-0.01268799975514412;-0.04782399907708168;1.2004799842834473;0.0;0.0;0.0
2086;0.0;0.0;0.0;-0.00878399983048439;-0.05953599885106087;1.1877919435501099;0.0;0.0;0.0
2089;-0.12663599848747253;0.07417599856853485;1.0718920230865479;0.0029279999434947968;-0.06734399497509003;1.1760799884796143;-1.3125;-15.66249942779541;-5.473124980926514
2091;0.0;0.0;0.0;0.013663999736309052;-0.058559998869895935;1.1877919435501099;0.0;0.0;0.0
2093;0.0;0.0;0.0;0.0605119988322258;-0.07027199864387512;1.1516799926757812;0.0;0.0;0.0
2095;0.0;0.0;0.0;0.044895999133586884;-0.10931199789047241;1.1672959327697754;0.0;0.0;0.0
2097;-0.09149999916553497;0.060999996960163116;1.0467599630355835;0.06441599875688553;-0.11711999773979187;1.1760799884796143;-9.22249984741211;-18.322500228881836;-7.013124942779541
2099;0.0;0.0;0.0;0.05270399898290634;-0.10931199789047241;1.1799839735031128;0.0;0.0;0.0
2101;0.0;0.0;0.0;0.0878399983048439;-0.1327359974384308;1.146799921989441;0.0;0.0;0.0
2103;0.0;0.0;0.0;0.07222399860620499;-0.11321599781513214;1.1516799926757812;0.0;0.0;0.0
2106;-0.04513999819755554;0.02513200044631958;1.0247999429702759;0.11126399785280228;-0.11321599781513214;1.1311839818954468;-17.832500457763672;-18.042499542236328;-9.04312515258789
2108;0.0;0.0;0.0;0.10833600163459778;-0.12590399384498596;1.1272799968719482;0.0;0.0;0.0
2110;0.0;0.0;0.0;0.1424959897994995;-0.1454239934682846;1.126304030418396;0.0;0.0;0.0
2112;0.0;0.0;0.0;0.17372798919677734;-0.13761599361896515;1.1311839818954468;0.0;0.0;0.0
2114;0.010491999797523022;0.007807999849319458;1.0067440271377563;0.16591998934745789;-0.13761599361896515;1.1389919519424438;-24.90250015258789;-14.892499923706055;-12.683125495910645
2116;0.0;0.0;0.0;0.1698240041732788;-0.13761599361896515;1.097999930381775;0.0;0.0;0.0
2118;0.0;0.0;0.0;0.18934398889541626;-0.1298079937696457;1.146799921989441;0.0;0.0;0.0
2121;0.0;0.0;0.0;0.16201600432395935;-0.13371199369430542;1.122399926185608;0.0;0.0;0.0
2123;0.04782399907708168;0.0007319999858736992;0.9984479546546936;0.19715198874473572;-0.14151999354362488;1.122399926185608;-29.732500076293945;-10.272500038146973;-15.343125343322754
2125;0.0;0.0;0.0;0.16884799301624298;-0.16396799683570862;1.1428959369659424;0.0;0.0;0.0
2127;0.0;0.0;0.0;0.16494399309158325;-0.15615999698638916;1.1184959411621094;0.0;0.0;0.0
2129;0.0;0.0;0.0;0.16884799301624298;-0.14444799721240997;1.1184959411621094;0.0;0.0;0.0
2131;0.052216000854969025;-0.019276000559329987;0.9916160106658936;0.19227199256420135;-0.187391996383667;1.122399926185608;-29.802499771118164;-5.792500019073486;-15.623125076293945
2133;0.0;0.0;0.0;0.1844639927148819;-0.16787199676036835;1.1106879711151123;0.0;0.0;0.0
2135;0.0;0.0;0.0;0.1454239934682846;-0.17958399653434753;1.1145919561386108;0.0;0.0;0.0
2137;0.0;0.0;0.0;0.14151999354362488;-0.19129599630832672;1.1184959411621094;0.0;0.0;0.0
2140;0.030988000333309174;-0.05026400089263916;0.9830759763717651;0.11028799414634705;-0.19910399615764618;1.0862879753112793;-25.952499389648438;-2.992500066757202;-13.243125915527344
2142;0.0;0.0;0.0;0.12297599762678146;-0.19617599248886108;1.0901919603347778;0.0;0.0;0.0
2144;0.0;0.0;0.0;0.09564799815416336;-0.23131199181079865;1.0696959495544434;0.0;0.0;0.0
2146;0.0;0.0;0.0;0.10833600163459778;-0.2391199916601181;1.101904034614563;0.0;0.0;0.0
2148;-0.0007319999858736992;-0.08076399564743042;0.9579439759254456;0.115167997777462;-0.2117919921875;1.0823839902877808;-18.672500610351562;-1.7325000762939453;-11.493125915527344
2150;0.0;0.0;0.0;0.12297599762678146;-0.23521599173545837;1.0696959495544434;0.0;0.0;0.0
2152;0.0;0.0;0.0;0.11126399785280228;-0.23131199181079865;1.0657919645309448;0.0;0.0;0.0
2155;0.0;0.0;0.0;0.08881600201129913;-0.21569599211215973;1.0823839902877808;0.0;0.0;0.0
2157;-0.01659199967980385;-0.0924759954214096;0.9433040022850037;0.12297599762678146;-0.23521599173545837;1.0618879795074463;-9.572500228881836;-2.1524999141693115;-11.073125839233398
2159;0.0;0.0;0.0;0.1268799901008606;-0.19227199256420135;1.073599934577942;0.0;0.0;0.0
2161;0.0;0.0;0.0;0.09272000193595886;-0.22740799188613892;1.0579839944839478;0.0;0.0;0.0
2163;0.0;0.0;0.0;0.115167997777462;-0.23131199181079865;1.0657919645309448;0.0;0.0;0.0
2165;-0.015615999698638916;-0.08588799834251404;0.9389119744300842;0.12297599762678146;-0.18055999279022217;1.0618879795074463;-2.1525001525878906;-4.462499618530273;-10.653125762939453
2167;0.0;0.0;0.0;0.12297599762678146;-0.21959999203681946;1.0335839986801147;0.0;0.0;0.0
2169;0.0;0.0;0.0;0.13859200477600098;-0.1844639927148819;1.0531039237976074;0.0;0.0;0.0
2172;0.0;0.0;0.0;0.1268799901008606;-0.2000799924135208;1.0335839986801147;0.0;0.0;0.0
2174;-0.0058559998869895935;-0.07075999677181244;0.9298839569091797;0.115167997777462;-0.17665599286556244;1.0491999387741089;2.1875;-6.5625;-10.303125381469727
2176;0.0;0.0;0.0;0.1268799901008606;-0.19227199256420135;1.0618879795074463;0.0;0.0;0.0
2178;0.0;0.0;0.0;0.15030398964881897;-0.19617599248886108;1.0491999387741089;0.0;0.0;0.0
2180;0.0;0.0;0.0;0.13859200477600098;-0.2000799924135208;1.0491999387741089;0.0;0.0;0.0
2182;0.0021959999576210976;-0.052947998046875;0.9181720018386841;0.1424959897994995;-0.1844639927148819;1.0296800136566162;4.077499866485596;-7.122499942779541;-10.233125686645508
2184;0.0;0.0;0.0;0.13468798995018005;-0.16494399309158325;1.073599934577942;0.0;0.0;0.0
2186;0.0;0.0;0.0;0.16591998934745789;-0.1727519929409027;1.0491999387741089;0.0;0.0;0.0
2189;0.0;0.0;0.0;0.1424959897994995;-0.16103999316692352;1.0335839986801147;0.0;0.0;0.0
2191;0.013175999745726585;-0.037331998348236084;0.9123159646987915;0.13859200477600098;-0.1727519929409027;1.0413919687271118;3.5174999237060547;-6.002499580383301;-10.863125801086426
2193;0.0;0.0;0.0;0.14151999354362488;-0.1600639969110489;1.0296800136566162;0.0;0.0;0.0
2195;0.0;0.0;0.0;0.14151999354362488;-0.16787199676036835;1.0296800136566162;0.0;0.0;0.0
2197;0.0;0.0;0.0;0.14932799339294434;-0.16396799683570862;1.0452959537506104;0.0;0.0;0.0
2199;0.022935999557375908;-0.03245199844241142;0.9162200093269348;0.14151999354362488;-0.17177599668502808;1.0579839944839478;1.5575000047683716;-3.4125001430511475;-11.633125305175781
2201;0.0;0.0;0.0;0.1180959939956665;-0.15225599706172943;1.0579839944839478;0.0;0.0;0.0
2203;0.0;0.0;0.0;0.16494399309158325;-0.17958399653434753;1.0491999387741089;0.0;0.0;0.0
2206;0.0;0.0;0.0;0.1571359932422638;-0.15225599706172943;1.0657919645309448;0.0;0.0;0.0
2208;0.02147199958562851;-0.029523998498916626;0.9262239933013916;0.15323199331760406;-0.1756799966096878;1.073599934577942;-1.3824999332427979;-1.0325000286102295;-12.333125114440918
2210;0.0;0.0;0.0;0.16201600432395935;-0.1571359932422638;1.0540800094604492;0.0;0.0;0.0
2212;0.0;0.0;0.0;0.15030398964881897;-0.16103999316692352;1.0618879795074463;0.0;0.0;0.0
2214;0.0;0.0;0.0;0.1542080044746399;-0.16494399309158325;1.0452959537506104;0.0;0.0;0.0
2216;0.024156000465154648;-0.033427998423576355;0.9198799729347229;0.15811198949813843;-0.16494399309158325;1.0579839944839478;-3.9025001525878906;0.997499942779541;-13.733125686645508
2218;0.0;0.0;0.0;0.17372798919677734;-0.18055999279022217;1.0452959537506104;0.0;0.0;0.0
2220;0.0;0.0;0.0;0.13859200477600098;-0.16494399309158325;1.0491999387741089;0.0;0.0;0.0
2223;0.0;0.0;0.0;0.1542080044746399;-0.1844639927148819;1.0657919645309448;0.0;0.0;0.0
2225;0.02659599855542183;-0.03391600027680397;0.9262239933013916;0.15030398964881897;-0.17665599286556244;1.0531039237976074;-5.372499942779541;2.747499942779541;-14.433125495910645
2227;0.0;0.0;0.0;0.1424959897994995;-0.18055999279022217;1.060912013053894;0.0;0.0;0.0
2229;0.0;0.0;0.0;0.1424959897994995;-0.18055999279022217;1.0726239681243896;0.0;0.0;0.0
2231;0.0;0.0;0.0;0.1424959897994995;-0.20398399233818054;1.0931199789047241;0.0;0.0;0.0
2233;0.02757199853658676;-0.04513999819755554;0.9415959715843201;0.1542080044746399;-0.2000799924135208;1.0726239681243896;-5.932499885559082;4.007500171661377;-13.873125076293945
2235;0.0;0.0;0.0;0.11907199770212173;-0.19227199256420135;1.0775039196014404;0.0;0.0;0.0
2237;0.0;0.0;0.0;0.13078400492668152;-0.18055999279022217;1.060912013053894;0.0;0.0;0.0
2240;0.0;0.0;0.0;0.10735999792814255;-0.19227199256420135;1.0482239723205566;0.0;0.0;0.0
2242;0.010491999797523022;-0.062219999730587006;0.9362279772758484;0.13176000118255615;-0.2000799924135208;1.0570080280303955;-6.142499923706055;4.777500152587891;-13.453125953674316
2244;0.0;0.0;0.0;0.115167997777462;-0.20398399233818054;1.0579839944839478;0.0;0.0;0.0
2246;0.0;0.0;0.0;0.15030398964881897;-0.2391199916601181;1.0413919687271118;0.0;0.0;0.0
2248;0.0;0.0;0.0;0.1268799901008606;-0.22740799188613892;1.0491999387741089;0.0;0.0;0.0
2250;0.0017079999670386314;-0.0849120020866394;0.9232959747314453;0.1268799901008606;-0.21959999203681946;1.0579839944839478;-4.742500305175781;5.05750036239624;-14.363125801086426
2252;0.0;0.0;0.0;0.11126399785280228;-0.2547360062599182;1.0531039237976074;0.0;0.0;0.0
2254;0.0;0.0;0.0;0.1424959897994995;-0.26254400610923767;1.0208959579467773;0.0;0.0;0.0
2257;0.0;0.0;0.0;0.115167997777462;-0.23131199181079865;1.0540800094604492;0.0;0.0;0.0
2259;-0.00317199993878603;-0.10028399527072906;0.9252479672431946;0.10443200170993805;-0.2547360062599182;1.0657919645309448;-1.5924999713897705;5.127500057220459;-14.573125839233398
2261;0.0;0.0;0.0;0.07710400223731995;-0.2235039919614792;1.0540800094604492;0.0;0.0;0.0
2263;0.0;0.0;0.0;0.11907199770212173;-0.25863999128341675;1.0657919645309448;0.0;0.0;0.0
2265;0.0;0.0;0.0;0.115167997777462;-0.21959999203681946;1.0579839944839478;0.0;0.0;0.0
2267;-0.014151999726891518;-0.09686800092458725;0.9335439801216125;0.10052800178527832;-0.21569599211215973;1.0413919687271118;1.9075000286102295;6.177500247955322;-14.643125534057617
2269;0.0;0.0;0.0;0.0849120020866394;-0.2235039919614792;1.073599934577942;0.0;0.0;0.0
2271;0.0;0.0;0.0;0.07710400223731995;-0.20398399233818054;1.0823839902877808;0.0;0.0;0.0
2274;0.0;0.0;0.0;0.045871999114751816;-0.19617599248886108;1.0862879753112793;0.0;0.0;0.0
2276;-0.03537999838590622;-0.07930000126361847;0.9535520076751709;0.08881600201129913;-0.19617599248886108;1.1067839860916138;5.127500057220459;8.137499809265137;-14.29312515258789
2278;0.0;0.0;0.0;0.057583998888731;-0.19617599248886108;1.1028800010681152;0.0;0.0;0.0
2280;0.0;0.0;0.0;0.06539200246334076;-0.18055999279022217;1.1311839818954468;0.0;0.0;0.0
2282;0.0;0.0;0.0;0.07320000231266022;-0.16103999316692352;1.1594879627227783;0.0;0.0;0.0
2284;-0.06563600152730942;-0.04147999733686447;0.9972279667854309;0.04196799919009209;-0.14151999354362488;1.1389919519424438;7.297500133514404;8.83750057220459;-13.663125038146973
2286;0.0;0.0;0.0;0.018543999642133713;-0.1454239934682846;1.1672959327697754;0.0;0.0;0.0
2288;0.0;0.0;0.0;0.03806399926543236;-0.15323199331760406;1.1760799884796143;0.0;0.0;0.0
2291;0.0;0.0;0.0;0.045871999114751816;-0.12590399384498596;1.1672959327697754;0.0;0.0;0.0
2293;-0.08857199549674988;-0.006831999868154526;1.0457839965820312;0.04196799919009209;-0.15323199331760406;1.2082879543304443;8.207499504089355;7.157500267028809;-12.54312515258789
2295;0.0;0.0;0.0;0.022447999566793442;-0.12199999392032623;1.2082879543304443;0.0;0.0;0.0
2297;0.0;0.0;0.0;0.045871999114751816;-0.12590399384498596;1.2121919393539429;0.0;0.0;0.0
2299;0.0;0.0;0.0;0.049775999039411545;-0.11028799414634705;1.2326879501342773;0.0;0.0;0.0
2301;-0.09101200103759766;0.0058559998869895935;1.0887279510498047;0.02635199949145317;-0.12590399384498596;1.2492799758911133;8.207499504089355;4.567500114440918;-11.913125038146973
2304;0.0;0.0;0.0;0.0302559994161129;-0.11028799414634705;1.2453759908676147;0.0;0.0;0.0
2305;0.0;0.0;0.0;0.014639999717473984;-0.12199999392032623;1.2365919351577759;0.0;0.0;0.0
2308;0.0;0.0;0.0;-0.004879999905824661;-0.13371199369430542;1.2375680208206177;0.0;0.0;0.0
2310;-0.1012599989771843;0.004147999919950962;1.108247995376587;0.018543999642133713;-0.11419199407100677;1.2453759908676147;5.967499732971191;1.6974999904632568;-11.633125305175781
2312;0.0;0.0;0.0;-0.00878399983048439;-0.14151999354362488;1.2287839651107788;0.0;0.0;0.0
2314;0.0;0.0;0.0;0.010735999792814255;-0.14932799339294434;1.2170720100402832;0.0;0.0;0.0
2316;0.0;0.0;0.0;-0.0009759999811649323;-0.1454239934682846;1.2248799800872803;0.0;0.0;0.0
2318;-0.1041879951953888;-0.00317199993878603;1.0955599546432495;0.022447999566793442;-0.1454239934682846;1.2043839693069458;3.447499990463257;-2.362499952316284;-12.823125839233398
2320;0.0;0.0;0.0;0.022447999566793442;-0.14932799339294434;1.2082879543304443;0.0;0.0;0.0
2322;0.0;0.0;0.0;0.0302559994161129;-0.14151999354362488;1.1965759992599487;0.0;0.0;0.0
2325;0.0;0.0;0.0;0.006831999868154526;-0.1571359932422638;1.1760799884796143;0.0;0.0;0.0
2327;-0.08906000107526779;-0.022447999566793442;1.0648159980773926;0.04196799919009209;-0.15323199331760406;1.1799839735031128;1.6975001096725464;-6.702499866485596;-14.433125495910645
2329;0.0;0.0;0.0;0.06148799881339073;-0.18055999279022217;1.1555839776992798;0.0;0.0;0.0
2331;0.0;0.0;0.0;0.06539200246334076;-0.1571359932422638;1.1721760034561157;0.0;0.0;0.0
2333;0.0;0.0;0.0;0.0849120020866394;-0.18836799263954163;1.1428959369659424;0.0;0.0;0.0
2335;-0.05904799699783325;-0.039772000163793564;1.0279719829559326;0.09174399822950363;-0.19227199256420135;1.1311839818954468;0.9275000095367432;-8.872499465942383;-16.04312515258789
2338;0.0;0.0;0.0;0.06539200246334076;-0.18836799263954163;1.1555839776992798;0.0;0.0;0.0
2340;0.0;0.0;0.0;0.08100800216197968;-0.16884799301624298;1.122399926185608;0.0;0.0;0.0
2342;0.0;0.0;0.0;0.09662400186061859;-0.17665599286556244;1.122399926185608;0.0;0.0;0.0
2344;-0.030743999406695366;-0.044652000069618225;1.0072319507598877;0.0849120020866394;-0.16103999316692352;1.1428959369659424;1.1375000476837158;-7.612499713897705;-18.003124237060547
